Time (s),ESC signal (µs),Servo 1 (µs),Servo 2 (µs),Servo 3 (µs),AccX (g),AccY (g),AccZ (g),Torque (N·m),Thrust (N),Voltage (V),Current (A),Motor Electrical Speed (RPM),Motor Optical Speed (RPM),Electrical Power (W),Mechanical Power (W),Motor Efficiency (%),Propeller Mech. Efficiency (N/W),Overall Efficiency (N/W),Vibration (g),App message,90% settling time (s),Max acceleration (RPM/s),
0,1000,,,,-0.0625,0.05078125,-0.95703125,-0.0005774444820684113,-0.019401657590582454,15.206822236595444,0.06606301253545976,0,0,1.0046084880407131,0,0,0,0,0.05859375,,
0,1000,,,,-0.0625,0.05078125,-0.95703125,-0.0005774444820684113,-0.019401657590582454,15.20689842673415,0.06706053830473864,0,0,1.0197827944422753,0,0,0,0,0.05859375,,
0.007345000000670552,1000,,,,-0.0625,0.05078125,-0.95703125,-0.0005774444820684113,-0.019401657590582454,15.207119937508162,0.06717560028713926,0,0,1.0215474104406344,0,0,0,0,0.05859375,,
0.01533500000089407,1000,,,,-0.0625,0.05078125,-0.953125,-0.0005774444820684113,-0.019401657590582454,15.207064507789813,0.06826834819720837,0,0,1.038161174875204,0,0,0,0,0.05859375,,
0.024310000001452864,1000,,,,-0.0625,0.046875,-0.953125,-0.0005774444820684113,-0.019401657590582454,15.20704250817957,0.06774620774564798,0,0,1.030219460956033,0,0,0,0,0.05859375,,
0.032560000001452864,1000,,,,-0.0625,0.046875,-0.955078125,-0.0005774444820684113,-0.019401657590582454,15.206958597603768,0.06794936445268555,0,0,1.0333031719654784,0,0,0,0,0.05859375,,
0.04155000000074506,1000,,,,-0.0625,0.05078125,-0.95703125,-0.0005774444820684113,-0.025065579244626893,15.206721576177797,0.06768707563298285,0,0,1.0292985134564587,0,0,0,0,0.05859375,,
0.04956000000052154,1000,,,,-0.0625,0.05078125,-0.958984375,-0.0005774444820684113,-0.025065579244626893,15.206980486774135,0.06714775302259046,0,0,1.0211145699452622,0,0,0,0,0.05859375,,
0.05730000000074506,1000,,,,-0.0625,0.05078125,-0.95703125,-0.0005774444820684113,-0.025065579244626893,15.206965305986614,0.06716684191020848,0,0,1.021403834641228,0,0,0,0,0.05859375,,
0.06545000000018626,1000,,,,-0.0625,0.048828125,-0.95703125,-0.0005774444820684113,-0.025065579244626893,15.206884508605064,0.06782975859676316,0,0,1.0314793052275388,0,0,0,0,0.05859375,,
0.0746450000014156,1000,,,,-0.0625,0.046875,-0.953125,-0.0005714442862202871,-0.025065579244626893,15.206836066610572,0.06757572365203002,0,0,1.0276129516589991,0,0,0,0,0.05859375,,
0.08555000000074506,1000,,,,-0.0625,0.05078125,-0.95703125,-0.0005714442862202871,-0.025065579244626893,15.20653630817231,0.06757382228934983,0,0,1.0275637821249815,0,0,0,0,0.05859375,,
0.09349500000011175,1000,,,,-0.0625,0.05078125,-0.953125,-0.0005714442862202871,-0.025065579244626893,15.206501470654297,0.06728893286043641,0,0,1.0232292565009846,0,0,0,0,0.05859375,,
0.10112000000104308,1000,,,,-0.0625,0.05078125,-0.955078125,-0.0005714442862202871,-0.025065579244626893,15.20639011722755,0.06623730086199857,0,0,1.0072302372197228,0,0,0,0,0.05859375,,
0.10885000000055879,1000,,,,-0.0625,0.046875,-0.95703125,-0.0005714442862202871,-0.025065579244626893,15.206272161812215,0.06694408360111394,0,0,1.0179699548616485,0,0,0,0,0.05859375,,
0.1181100000012666,1000,,,,-0.0625,0.05078125,-0.95703125,-0.0005714442862202871,-0.025065579244626893,15.206356284499131,0.06802832477732697,0,0,1.034462944001654,0,0,0,0,0.05859375,,
0.12619500000122935,1000,,,,-0.0625,0.048828125,-0.95703125,-0.0005714442862202871,-0.025065579244626893,15.20629997929345,0.06895828933761054,0,0,1.0486004337266188,0,0,0,0,0.05859375,,
0.13460500000044703,1000,,,,-0.0625,0.048828125,-0.95703125,-0.0005714442862202871,-0.025065579244626893,15.206318231832364,0.06931882692637717,0,0,1.0540841416998015,0,0,0,0,0.05859375,,
0.14347000000067056,1000,,,,-0.0625,0.05078125,-0.94921875,-0.0005714442862202871,-0.025065579244626893,15.206264263347943,0.06969720281742295,0,0,1.0598340844578922,0,0,0,0,0.05859375,,
0.15182000000029802,1000,,,,-0.0625,0.048828125,-0.955078125,-0.0005714442862202871,-0.025065579244626893,15.206251373826316,0.06969787657044792,0,0,1.0598434313521505,0,0,0,0,0.05859375,,
0.17047000000067056,1000,,,,-0.0625,0.05078125,-0.95703125,-0.0005714442862202871,-0.025065579244626893,15.206449479969141,0.06808199031722574,0,0,1.0352853462546414,0,0,0,0,0.05859375,,
0.1785,1000,,,,-0.0625,0.05078125,-0.95703125,-0.0005714442862202871,-0.025065579244626893,15.206717257929624,0.06784652612305585,0,0,1.0317229396860463,0,0,0,0,0.05859375,,
0.18911500000022352,1000,,,,-0.0625,0.046875,-0.955078125,-0.0005714442862202871,-0.025065579244626893,15.206787964540252,0.06806888526822162,0,0,1.0351091052564638,0,0,0,0,0.05859375,,
0.19668500000145286,1000,,,,-0.0625,0.0546875,-0.95703125,-0.0005714442862202871,-0.027429315019553174,15.206541351127333,0.06829703429981805,0,0,1.038561676239545,0,0,0,0,0.05859375,,
0.20445000000018626,1000,,,,-0.0625,0.05078125,-0.95703125,-0.0005714442862202871,-0.027429315019553174,15.20634245208903,0.06750343546759352,0,0,1.0264803564127196,0,0,0,0,0.05859375,,
0.21270000000018627,1000,,,,-0.0625,0.048828125,-0.95703125,-0.0005714442862202871,-0.027429315019553174,15.206224053185151,0.0670669142419435,0,0,1.019834524518747,0,0,0,0,0.05859375,,
0.22158000000100583,1000,,,,-0.0625,0.046875,-0.953125,-0.0006094943044328512,-0.027429315019553174,15.206117348032215,0.06708964585564409,0,0,1.0201730277188472,0,0,0,0,0.05859375,,
0.23001000000070781,1000,,,,-0.0625,0.048828125,-0.955078125,-0.0006094943044328512,-0.027429315019553174,15.20615086521725,0.06658840411150692,0,0,1.0125533187936269,0,0,0,0,0.05859375,,
0.24014000000152738,1000,,,,-0.0625,0.05078125,-0.955078125,-0.0006094943044328512,-0.027429315019553174,15.206230968519554,0.06531431902955323,0,0,0.9931846207149584,0,0,0,0,0.05859375,,
0.24850500000081957,1000,,,,-0.0625,0.05078125,-0.95703125,-0.0006094943044328512,-0.027429315019553174,15.206547818233435,0.0649577987268761,0,0,0.9877838725074244,0,0,0,0,0.05859375,,
0.26668500000052153,1000,,,,-0.0625,0.05078125,-0.95703125,-0.0006094943044328512,-0.027429315019553174,15.206703631045317,0.06544343882196975,0,0,0.9951789787621395,0,0,0,0,0.05859375,,
0.2757150000007823,1000,,,,-0.0625,0.05078125,-0.95703125,-0.0006094943044328512,-0.027429315019553174,15.206701680865883,0.06461035090172838,0,0,0.9825103316586475,0,0,0,0,0.05859375,,
0.2832000000011176,1000,,,,-0.0625,0.044921875,-0.955078125,-0.0006094943044328512,-0.027429315019553174,15.206667122201411,0.06454083034343848,0,0,0.9814509228231452,0,0,0,0,0.05859375,,
0.2903000000007451,1000,,,,-0.0625,0.05078125,-0.95703125,-0.0006094943044328512,-0.027429315019553174,15.206838270632913,0.0633685548976329,0,0,0.9636353657720268,0,0,0,0,0.05859375,,
0.29765000000130387,1000,,,,-0.0625,0.046875,-0.95703125,-0.0006094943044328512,-0.027429315019553174,15.206802462667058,0.06336136637221347,0,0,0.9635237821869256,0,0,0,0,0.05859375,,
0.3048000000016764,1000,,,,-0.0625,0.046875,-0.958984375,-0.0006094943044328512,-0.027429315019553174,15.206665128706033,0.06367238898890104,0,0,0.9682446972989275,0,0,0,0,0.05859375,,
0.31251000000070783,1000,,,,-0.0625,0.046875,-0.95703125,-0.0006094943044328512,-0.027429315019553174,15.20672380888459,0.0625070294232034,0,0,0.9505271325524767,0,0,0,0,0.05859375,,
0.31956000000052154,1000,,,,-0.0625,0.046875,-0.95703125,-0.0006094943044328512,-0.027429315019553174,15.206603167646216,0.06176842814294002,0,0,0.9392879750589594,0,0,0,0,0.05859375,,
0.32765500000026077,1000,,,,-0.0625,0.05078125,-0.95703125,-0.0006094943044328512,-0.027429315019553174,15.206856107209491,0.06305587101994986,0,0,0.9588815573151385,0,0,0,0,0.05859375,,
0.34630000000074507,1000,,,,-0.0625,0.05078125,-0.95703125,-0.0006094943044328512,-0.02811267036920128,15.206460212192797,0.06404565233882085,0,0,0.9739076640542118,0,0,0,0,0.05859375,,
0.3550550000006333,1000,,,,-0.0625,0.05078125,-0.95703125,-0.0006094943044328512,-0.02811267036920128,15.206536519471799,0.06378886895433915,0,0,0.9700077652899591,0,0,0,0,0.05859375,,
0.3706500000013038,1000,,,,-0.0625,0.05078125,-0.955078125,-0.0006043308175389872,-0.02811267036920128,15.20661205127634,0.0654936805068112,0,0,0.9959369912773175,0,0,0,0,0.05859375,,
0.3782900000009686,1000,,,,-0.0625,0.046875,-0.95703125,-0.0006043308175389872,-0.02811267036920128,15.206865864522452,0.06599895631055895,0,0,1.0036372758131475,0,0,0,0,0.05859375,,
0.3861200000010431,1000,,,,-0.0625,0.044921875,-0.953125,-0.0006043308175389872,-0.02811267036920128,15.206728036756006,0.0662818102123879,0,0,1.0079294616836596,0,0,0,0,0.05859375,,
0.3952150000007823,1000,,,,-0.0625,0.048828125,-0.95703125,-0.0006043308175389872,-0.02811267036920128,15.206435784331308,0.06529877672099083,0,0,0.992961655003135,0,0,0,0,0.05859375,,
0.4052850000010803,1000,,,,-0.0625,0.05078125,-0.9609375,-0.0006043308175389872,-0.02811267036920128,15.206337245183716,0.06560157192981068,0,0,0.9975596265788789,0,0,0,0,0.05859375,,
0.41289000000059606,1000,,,,-0.0625,0.048828125,-0.95703125,-0.0006043308175389872,-0.02811267036920128,15.206627502557268,0.06592320759890516,0,0,1.0024696617303035,0,0,0,0,0.05859375,,
0.4219650000007823,1000,,,,-0.0625,0.05078125,-0.95703125,-0.0006043308175389872,-0.02811267036920128,15.206696051655674,0.06578716084396068,0,0,1.0004053590554935,0,0,0,0,0.05859375,,
0.43032000000122933,1000,,,,-0.0625,0.05078125,-0.955078125,-0.0006043308175389872,-0.02811267036920128,15.206543839557517,0.06564115225618547,0,0,0.9981750594627542,0,0,0,0,0.05859375,,
0.4386450000004843,1000,,,,-0.0625,0.05078125,-0.95703125,-0.0006043308175389872,-0.02811267036920128,15.206345396095076,0.06618275365583905,0,0,1.0063978113553627,0,0,0,0,0.05859375,,
0.4659150000009686,1000,,,,-0.0625,0.046875,-0.955078125,-0.0006043308175389872,-0.02811267036920128,15.206778660465217,0.06543507617686788,0,0,0.9950567200523103,0,0,0,0,0.05859375,,
0.4909850000012666,1000,,,,-0.0625,0.048828125,-0.95703125,-0.0006043308175389872,-0.02556722597034916,15.20683207044846,0.06434522050712688,0,0,0.9784869627878549,0,0,0,0,0.05859375,,
0.49847000000067054,1000,,,,-0.0625,0.05078125,-0.955078125,-0.0006043308175389872,-0.02556722597034916,15.207048692912132,0.06456993577232799,0,0,0.9819181573880006,0,0,0,0,0.05859375,,
0.5066200000010431,1000,,,,-0.0625,0.046875,-0.95703125,-0.0006043308175389872,-0.02556722597034916,15.207161539780431,0.0647167002211288,0,0,0.9841573145842496,0,0,0,0,0.05859375,,
0.5150350000010804,1000,,,,-0.0625,0.048828125,-0.955078125,-0.0006043308175389872,-0.02556722597034916,15.207202393782111,0.06559375574216364,0,0,0.99749751933939,0,0,0,0,0.05859375,,
0.5252050000000745,1000,,,,-0.0625,0.046875,-0.955078125,-0.0005629767287741845,-0.02556722597034916,15.206837757346033,0.06706340532324978,0,0,1.0198223242057958,0,0,0,0,0.05859375,,
0.5340750000011176,1000,,,,-0.0625,0.048828125,-0.95703125,-0.0005629767287741845,-0.02556722597034916,15.206828557204473,0.06661884648287592,0,0,1.0130613771438182,0,0,0,0,0.05859375,,
0.5429150000000372,1000,,,,-0.0625,0.048828125,-0.95703125,-0.0005629767287741845,-0.02556722597034916,15.206892990698984,0.06714693631195882,0,0,1.0210962751492378,0,0,0,0,0.05859375,,
0.5557150000007823,1000,,,,-0.0625,0.05078125,-0.953125,-0.0005629767287741845,-0.02556722597034916,15.20702609533857,0.06669539067576022,0,0,1.0142385464450865,0,0,0,0,0.05859375,,
0.5736100000012666,1000,,,,-0.0625,0.048828125,-0.95703125,-0.0005629767287741845,-0.02556722597034916,15.206543031663568,0.06678532538077729,0,0,1.015573924286443,0,0,0,0,0.05859375,,
0.5813650000002235,1000,,,,-0.0625,0.048828125,-0.955078125,-0.0005629767287741845,-0.02556722597034916,15.206478443060547,0.06682572936896232,0,0,1.0161840130909237,0,0,0,0,0.05859375,,
0.5884700000006705,1000,,,,-0.0625,0.0546875,-0.95703125,-0.0005629767287741845,-0.02556722597034916,15.20671868414703,0.06742328255410604,0,0,1.0252868905620487,0,0,0,0,0.05859375,,
0.5970900000007823,1000,,,,-0.0625,0.0546875,-0.955078125,-0.0005629767287741845,-0.02556722597034916,15.20678276568388,0.06721240607184789,0,0,1.0220844582935231,0,0,0,0,0.05859375,,
0.6049000000003726,1000,,,,-0.0625,0.046875,-0.953125,-0.0005629767287741845,-0.02556722597034916,15.206777087771341,0.06636995497191438,0,0,1.0092731105833233,0,0,0,0,0.05859375,,
0.6129800000013783,1000,,,,-0.0625,0.046875,-0.955078125,-0.0005629767287741845,-0.02556722597034916,15.206836158583908,0.06715967933214366,0,0,1.0212862400669425,0,0,0,0,0.05859375,,
0.6217300000013783,1000,,,,-0.0625,0.046875,-0.955078125,-0.0005629767287741845,-0.02556722597034916,15.20689996683997,0.06718058311907692,0,0,1.0216084072057805,0,0,0,0,0.05859375,,
0.6298100000005216,1000,,,,-0.0625,0.05078125,-0.95703125,-0.0005629767287741845,-0.02556722597034916,15.207019284449304,0.06741096900134741,0,0,1.0251199055869042,0,0,0,0,0.05859375,,
0.6389400000013411,1000,,,,-0.0625,0.048828125,-0.953125,-0.0005629767287741845,-0.027322281414201,15.207293836231871,0.06765733326265136,0,0,1.0288849471010035,0,0,0,0,0.05859375,,
0.6468250000011175,1000,,,,-0.0625,0.05078125,-0.955078125,-0.0005629767287741845,-0.027322281414201,15.207328519687639,0.06615977962485986,0,0,1.0061135035453805,0,0,0,0,0.05859375,,
0.6547450000010431,1000,,,,-0.0625,0.05078125,-0.95703125,-0.0005629767287741845,-0.027322281414201,15.207296180178917,0.06601491484095531,0,0,1.0039083622956961,0,0,0,0,0.05859375,,
0.6629600000008941,1000,,,,-0.0625,0.048828125,-0.955078125,-0.0005629767287741845,-0.027322281414201,15.207330559355217,0.06714919266109205,0,0,1.0211599695910563,0,0,0,0,0.05859375,,
0.6706500000003726,1000,,,,-0.0625,0.048828125,-0.95703125,-0.0005465734158544274,-0.027322281414201,15.207233270881842,0.06716827011942794,0,0,1.0214435521077432,0,0,0,0,0.05859375,,
0.6782800000002608,1000,,,,-0.0625,0.05078125,-0.95703125,-0.0005465734158544274,-0.027322281414201,15.207270493101408,0.06760766359351013,0,0,1.0281280276731128,0,0,0,0,0.05859375,,
0.6864800000004471,1000,,,,-0.0625,0.048828125,-0.955078125,-0.0005465734158544274,-0.027322281414201,15.207240634442423,0.06717396576348808,0,0,1.02153066173516,0,0,0,0,0.05859375,,
0.6945150000005961,1000,,,,-0.0625,0.05078125,-0.95703125,-0.0005465734158544274,-0.027322281414201,15.207212374934816,0.06762037691298192,0,0,1.028317432588855,0,0,0,0,0.05859375,,
0.7034900000011548,1000,,,,-0.0625,0.048828125,-0.955078125,-0.0005465734158544274,-0.027322281414201,15.207246332999622,0.06743022474937009,0,0,1.0254280380531986,0,0,0,0,0.05859375,,
0.7111850000005215,1000,,,,-0.0625,0.048828125,-0.95703125,-0.0005465734158544274,-0.027322281414201,15.20721144247757,0.06743689521666689,0,0,1.0255271245840576,0,0,0,0,0.05859375,,
0.7203150000013411,1000,,,,-0.0625,0.05078125,-0.95703125,-0.0005465734158544274,-0.027322281414201,15.207349665457892,0.06722698197036711,0,0,1.022344221776806,0,0,0,0,0.05859375,,
0.7271000000005587,1000,,,,-0.0625,0.05078125,-0.953125,-0.0005465734158544274,-0.027322281414201,15.207316901797856,0.06807638821186975,0,0,1.035259209067719,0,0,0,0,0.05859375,,
0.7343500000014901,1000,,,,-0.0625,0.048828125,-0.955078125,-0.0005465734158544274,-0.027322281414201,15.207346688141701,0.06786368795196443,0,0,1.032026630221388,0,0,0,0,0.05859375,,
0.7421400000005961,1000,,,,-0.0625,0.046875,-0.95703125,-0.0005465734158544274,-0.027322281414201,15.207313661940503,0.0672144541696964,0,0,1.0221512871746978,0,0,0,0,0.05859375,,
0.7490100000007078,1000,,,,-0.0625,0.05078125,-0.953125,-0.0005465734158544274,-0.027322281414201,15.207086200190036,0.06815684271024602,0,0,1.0364669822275052,0,0,0,0,0.05859375,,
0.7564950000010431,1000,,,,-0.0625,0.048828125,-0.955078125,-0.0005465734158544274,-0.027322281414201,15.207126195004118,0.06936397134201042,0,0,1.0548266655846015,0,0,0,0,0.05859375,,
0.7647300000013784,1000,,,,-0.0625,0.048828125,-0.955078125,-0.0005465734158544274,-0.027322281414201,15.206971314571932,0.06841395755340872,0,0,1.040369090031028,0,0,0,0,0.05859375,,
0.7730350000010804,1000,,,,-0.0625,0.048828125,-0.95703125,-0.0005465734158544274,-0.027322281414201,15.207088827867926,0.0679388583125346,0,0,1.033152253222647,0,0,0,0,0.05859375,,
0.7821950000012293,1000,,,,-0.0625,0.046875,-0.953125,-0.0005465734158544274,-0.027322281414201,15.207261455446648,0.06729117871061915,0,0,1.0233145482975707,0,0,0,0,0.05859375,,
0.7906450000004843,1000,,,,-0.0625,0.052734375,-0.95703125,-0.0005465734158544274,-0.03022241884202168,15.207064506171985,0.06756830834712041,0,0,1.027515623607579,0,0,0,0,0.05859375,,
0.7988650000011548,1000,,,,-0.0625,0.048828125,-0.95703125,-0.0005465734158544274,-0.03022241884202168,15.20711078547006,0.06735240491354652,0,0,1.02423548318814,0,0,0,0,0.05859375,,
0.8066800000006333,1000,,,,-0.0625,0.046875,-0.95703125,-0.0005465734158544274,-0.03022241884202168,15.207023685629174,0.06629798880933567,0,0,1.0081950861331455,0,0,0,0,0.05859375,,
0.8149250000007451,1000,,,,-0.0625,0.048828125,-0.95703125,-0.0005465734158544274,-0.03022241884202168,15.206873386142455,0.06571262768398423,0,0,0.9992836090610676,0,0,0,0,0.05859375,,
0.8228800000008195,1000,,,,-0.0625,0.05078125,-0.95703125,-0.0005249627111199386,-0.03022241884202168,15.206733262315293,0.06495455878787593,0,0,0.9877466496586069,0,0,0,0,0.05859375,,
0.831050000000745,1000,,,,-0.0625,0.046875,-0.95703125,-0.0005249627111199386,-0.03022241884202168,15.206860828276884,0.06444312839134972,0,0,0.979977684786034,0,0,0,0,0.05859375,,
0.8389100000010803,1000,,,,-0.0625,0.048828125,-0.955078125,-0.0005249627111199386,-0.03022241884202168,15.206818699309332,0.06374360886076767,0,0,0.9693375031853819,0,0,0,0,0.05859375,,
0.8468000000007451,1000,,,,-0.0625,0.05078125,-0.953125,-0.0005249627111199386,-0.03022241884202168,15.206876677942073,0.06307799081529829,0,0,0.9592192274206038,0,0,0,0,0.05859375,,
0.8567700000004843,1000,,,,-0.0625,0.048828125,-0.955078125,-0.0005249627111199386,-0.03022241884202168,15.206833719862427,0.06308400402929602,0,0,0.959307959656636,0,0,0,0,0.05859375,,
0.8649550000000745,1000,,,,-0.0625,0.05078125,-0.955078125,-0.0005249627111199386,-0.03022241884202168,15.206658288516058,0.06309122146219362,0,0,0.9594066457806688,0,0,0,0,0.05859375,,
0.8740000000009314,1000,,,,-0.0625,0.048828125,-0.953125,-0.0005249627111199386,-0.03022241884202168,15.206527101157388,0.06288258581673553,0,0,0.9562257454130441,0,0,0,0,0.05859375,,
0.8826400000015273,1000,,,,-0.0625,0.052734375,-0.95703125,-0.0005249627111199386,-0.03022241884202168,15.206456758153108,0.06315751640910963,0,0,0.9604020422274709,0,0,0,0,0.05859375,,
0.8916600000010804,1000,,,,-0.0625,0.048828125,-0.95703125,-0.0005249627111199386,-0.03022241884202168,15.20646808155978,0.06362509676254174,0,0,0.9675130031057435,0,0,0,0,0.05859375,,
0.8992900000009686,1000,,,,-0.0625,0.046875,-0.95703125,-0.0005249627111199386,-0.03022241884202168,15.206611817208053,0.06338601246269342,0,0,0.9638864861608907,0,0,0,0,0.05859375,,
0.9083200000012294,1000,,,,-0.0625,0.046875,-0.95703125,-0.0005249627111199386,-0.03022241884202168,15.206875145226931,0.06592193471804694,0,0,1.0024666305891403,0,0,0,0,0.05859375,,
0.9158400000007824,1000,,,,-0.0625,0.048828125,-0.953125,-0.0005249627111199386,-0.03022241884202168,15.206797847017627,0.06709067783095023,0,0,1.0202343751946472,0,0,0,0,0.05859375,,
0.9248150000004098,1000,,,,-0.0625,0.046875,-0.95703125,-0.0005249627111199386,-0.03022241884202168,15.206497901698361,0.06759227759272311,0,0,1.0278418273847572,0,0,0,0,0.05859375,,
0.9331000000005588,1000,,,,-0.0625,0.048828125,-0.95703125,-0.0005249627111199386,-0.03022241884202168,15.206506233831888,0.06780235703324825,0,0,1.0310369648945847,0,0,0,0,0.05859375,,
0.9421150000011549,1000,,,,-0.0625,0.048828125,-0.95703125,-0.0005249627111199386,-0.03141159410469267,15.206367017793967,0.0671846492298107,0,0,1.0216344341502503,0,0,0,0,0.05859375,,
0.9500550000006333,1000,,,,-0.0625,0.048828125,-0.95703125,-0.0005249627111199386,-0.03141159410469267,15.206381495306386,0.06741048674254287,0,0,1.0250695781914003,0,0,0,0,0.05859375,,
0.9592250000005588,1000,,,,-0.0625,0.046875,-0.95703125,-0.0005249627111199386,-0.03141159410469267,15.206471283024294,0.06669507501097142,0,0,1.0141967428734882,0,0,0,0,0.05859375,,
0.9674150000009686,1000,,,,-0.0625,0.052734375,-0.95703125,-0.0005249627111199386,-0.03141159410469267,15.206350429653208,0.06631200245202176,0,0,1.0083635469774657,0,0,0,0,0.05859375,,
0.9759950000010431,1000,,,,-0.0625,0.048828125,-0.955078125,-0.0005750598944429671,-0.03141159410469267,15.206221891147113,0.06756556355562812,0,0,1.027416951627284,0,0,0,0,0.05859375,,
0.9839200000008568,1000,,,,-0.0625,0.046875,-0.95703125,-0.0005750598944429671,-0.03141159410469267,15.206374536219426,0.06650005123086153,0,0,1.0112246856942602,0,0,0,0,0.05859375,,
0.9920000000009314,1000,,,,-0.0625,0.048828125,-0.95703125,-0.0005750598944429671,-0.03141159410469267,15.20625798766293,0.06633803609863663,0,0,1.008753291310765,0,0,0,0,0.05859375,,
0.9997200000016019,1000,,,,-0.0625,0.046875,-0.953125,-0.0005750598944429671,-0.03141159410469267,15.206046017570705,0.06618229078480657,0,0,1.0063709592220142,0,0,0,0,0.05859375,,
1.0099500000011177,1000,,,,-0.0625,0.05078125,-0.9609375,-0.0005750598944429671,-0.03141159410469267,15.206075475779198,0.06624684624669552,0,0,1.007354544059592,0,0,0,0,0.05859375,,
1.0217600000007079,1000,,,,-0.0625,0.046875,-0.953125,-0.0005750598944429671,-0.03141159410469267,15.205654680950834,0.06844103395390018,0,0,1.0406907283102373,0,0,0,0,0.05859375,,
1.0414100000010804,1000,,,,-0.0625,0.048828125,-0.955078125,-0.0005750598944429671,-0.03141159410469267,15.205829489175596,0.06832093434143698,0,0,1.038876478137052,0,0,0,0,0.05859375,,
1.0500200000014157,1000,,,,-0.0625,0.0546875,-0.953125,-0.0005750598944429671,-0.03141159410469267,15.20602026402679,0.06804222476015778,0,0,1.0346514485124247,0,0,0,0,0.05859375,,
1.0580650000004097,1000,,,,-0.0625,0.048828125,-0.953125,-0.0005750598944429671,-0.03141159410469267,15.20611795598045,0.06716086297354597,0,0,1.0212560044011798,0,0,0,0,0.05859375,,
1.0656850000005216,1000,,,,-0.0625,0.044921875,-0.95703125,-0.0005750598944429671,-0.03141159410469267,15.206339589628861,0.06675650371126304,0,0,1.0151220652497852,0,0,0,0,0.05859375,,
1.074335000000894,1000,,,,-0.0625,0.044921875,-0.95703125,-0.0005750598944429671,-0.03141159410469267,15.206323028341636,0.06658242695017513,0,0,1.012473892215323,0,0,0,0,0.05859375,,
1.082245000001043,1000,,,,-0.0625,0.05078125,-0.95703125,-0.0005750598944429671,-0.03141159410469267,15.20653635853004,0.06471255386483284,0,0,0.9840538031989141,0,0,0,0,0.05859375,,
1.0903650000002236,1000,,,,-0.0625,0.048828125,-0.95703125,-0.0005750598944429671,-0.02852417795096124,15.20641096022807,0.06485244163807735,0,0,0.9861728793228106,0,0,0,0,0.05859375,,
1.0991500000003724,1000,,,,-0.0625,0.05078125,-0.953125,-0.0005750598944429671,-0.02852417795096124,15.206497463442476,0.0644083990835644,0,0,0.9794261572886127,0,0,0,0,0.05859375,,
1.1070400000009686,1000,,,,-0.0625,0.046875,-0.95703125,-0.0005750598944429671,-0.02852417795096124,15.20670359764368,0.064778003967936,0,0,0.9850599059873889,0,0,0,0,0.05859375,,
1.1155000000009314,1000,,,,-0.0625,0.05078125,-0.958984375,-0.0005750598944429671,-0.02852417795096124,15.206636420305697,0.06427492078357032,0,0,0.9774053512997041,0,0,0,0,0.05859375,,
1.1256100000003353,1000,,,,-0.0625,0.048828125,-0.955078125,-0.0005370650468977265,-0.02852417795096124,15.206964109125366,0.06341349141090302,0,0,0.9643266879199319,0,0,0,0,0.05859375,,
1.1334300000015647,1000,,,,-0.0625,0.05078125,-0.955078125,-0.0005370650468977265,-0.02852417795096124,15.207020278647873,0.06463616135841292,0,0,0.9829234165113413,0,0,0,0,0.05859375,,
1.142390000000596,1000,,,,-0.0625,0.05078125,-0.953125,-0.0005370650468977265,-0.02852417795096124,15.206870736514297,0.06488746713751947,0,0,0.986735325180078,0,0,0,0,0.05859375,,
1.1500900000007823,1000,,,,-0.0625,0.048828125,-0.955078125,-0.0005370650468977265,-0.02852417795096124,15.20686079488933,0.0639538650660831,0,0,0.9725375233550614,0,0,0,0,0.05859375,,
1.160440000001341,1000,,,,-0.0625,0.048828125,-0.953125,-0.0005370650468977265,-0.02852417795096124,15.206917047890782,0.06520162655070762,0,0,0.9915157263441639,0,0,0,0,0.05859375,,
1.1690900000007822,1000,,,,-0.0625,0.05078125,-0.955078125,-0.0005370650468977265,-0.02852417795096124,15.206988718033585,0.06528461007382017,0,0,0.992782328853805,0,0,0,0,0.05859375,,
1.1851350000007077,1000,,,,-0.0625,0.05078125,-0.95703125,-0.0005370650468977265,-0.02852417795096124,15.207225007132125,0.0648576513868207,0,0,0.9863048980735174,0,0,0,0,0.05859375,,
1.1938700000001117,1000,,,,-0.0625,0.046875,-0.955078125,-0.0005370650468977265,-0.02852417795096124,15.20755372183489,0.06546910538746678,0,0,0.995624937300371,0,0,0,0,0.05859375,,
1.202455000001006,1000,,,,-0.0625,0.046875,-0.955078125,-0.0005370650468977265,-0.02852417795096124,15.20727558210867,0.06665912540080879,0,0,1.0137036900324392,0,0,0,0,0.05859375,,
1.2102000000011175,1000,,,,-0.0625,0.046875,-0.95703125,-0.0005370650468977265,-0.02852417795096124,15.207504923664025,0.06691257423886258,0,0,1.0175733021925373,0,0,0,0,0.05859375,,
1.2183050000006332,1000,,,,-0.0625,0.05078125,-0.95703125,-0.0005370650468977265,-0.02852417795096124,15.207332380678789,0.06694351606518696,0,0,1.0180322995346085,0,0,0,0,0.05859375,,
1.2259150000000372,1000,,,,-0.0625,0.05078125,-0.955078125,-0.0005370650468977265,-0.02852417795096124,15.207365071810463,0.06612287193201974,0,0,1.0055546530667934,0,0,0,0,0.05859375,,
1.2342800000011922,1000,,,,-0.0625,0.046875,-0.95703125,-0.0005370650468977265,-0.02852417795096124,15.207330630775292,0.06576430740284556,0,0,1.0000995663790155,0,0,0,0,0.05859375,,
1.242105000000447,1000,,,,-0.0625,0.048828125,-0.95703125,-0.0005370650468977265,-0.02602173313572045,15.206972028433105,0.06436397655820358,0,0,0.9787811911593259,0,0,0,0,0.05859375,,
1.249835000000894,1000,,,,-0.0625,0.046875,-0.953125,-0.0005370650468977265,-0.02602173313572045,15.207341841766562,0.0634737404210002,0,0,0.9652668685577057,0,0,0,0,0.05859375,,
1.2592500000009312,1000,,,,-0.0625,0.046875,-0.955078125,-0.0005370650468977265,-0.02602173313572045,15.207267958692368,0.06345868268160033,0,0,0.965033191844727,0,0,0,0,0.05859375,,
1.2689100000010802,1000,,,,-0.0625,0.046875,-0.953125,-0.0005370650468977265,-0.02602173313572045,15.207364119552826,0.06416662194370772,0,0,0.9758051842196518,0,0,0,0,0.05859375,,
1.2779400000004097,1000,,,,-0.0625,0.048828125,-0.955078125,-0.000557904363570938,-0.02602173313572045,15.207240509765581,0.06384373059954952,0,0,0.97088696626803,0,0,0,0,0.05859375,,
1.287230000000447,1000,,,,-0.0625,0.05078125,-0.95703125,-0.000557904363570938,-0.02602173313572045,15.20727726716823,0.06507341466447697,0,0,0.9895894595241124,0,0,0,0,0.05859375,,
1.29425,1000,,,,-0.0625,0.05078125,-0.95703125,-0.000557904363570938,-0.02602173313572045,15.207535358348357,0.06514890228559332,0,0,0.9907542350657426,0,0,0,0,0.05859375,,
1.3021400000015273,1000,,,,-0.0625,0.052734375,-0.958984375,-0.000557904363570938,-0.02602173313572045,15.207468345002786,0.06449455038844688,0,0,0.9807988334574931,0,0,0,0,0.05859375,,
1.3115250000003724,1000,,,,-0.0625,0.048828125,-0.95703125,-0.000557904363570938,-0.02602173313572045,15.207593989531754,0.06572228046858974,0,0,0.9994777574324456,0,0,0,0,0.05859375,,
1.3203100000005215,1000,,,,-0.0625,0.046875,-0.95703125,-0.000557904363570938,-0.02602173313572045,15.207374747675194,0.0650389721267758,0,0,0.9890720223354811,0,0,0,0,0.05859375,,
1.3277950000008567,1000,,,,-0.0625,0.05078125,-0.95703125,-0.000557904363570938,-0.02602173313572045,15.207138399829637,0.06538269505984408,0,0,0.9942836927289064,0,0,0,0,0.05859375,,
1.3354350000005215,1000,,,,-0.0625,0.046875,-0.953125,-0.000557904363570938,-0.02602173313572045,15.207090846057943,0.06474736999217925,0,0,0.9846191375143959,0,0,0,0,0.05859375,,
1.3440550000006333,1000,,,,-0.0625,0.046875,-0.95703125,-0.000557904363570938,-0.02602173313572045,15.206845733191217,0.06393974085634592,0,0,0.9723217754226761,0,0,0,0,0.05859375,,
1.3536400000005961,1000,,,,-0.0625,0.048828125,-0.953125,-0.000557904363570938,-0.02602173313572045,15.206905757591674,0.06390132824605559,0,0,0.9717414764226981,0,0,0,0,0.05859375,,
1.361765000000596,1000,,,,-0.0625,0.05078125,-0.955078125,-0.000557904363570938,-0.02602173313572045,15.206798398770431,0.06404544226950892,0,0,0.9739261289525124,0,0,0,0,0.05859375,,
1.3701000000005588,1000,,,,-0.0625,0.05078125,-0.955078125,-0.000557904363570938,-0.02602173313572045,15.206657507485026,0.06367506012545261,0,0,0.9682848310962744,0,0,0,0,0.05859375,,
1.3782900000009686,1000,,,,-0.0625,0.05078125,-0.9609375,-0.000557904363570938,-0.02602173313572045,15.206787829439588,0.06449717525680664,0,0,0.9807948597284393,0,0,0,0,0.05859375,,
1.3866250000009313,1000,,,,-0.0625,0.05078125,-0.955078125,-0.000557904363570938,-0.0236421375110958,15.206847731919364,0.06421904198596355,0,0,0.9765691929702842,0,0,0,0,0.05859375,,
1.3945000000009313,1000,,,,-0.0625,0.05078125,-0.953125,-0.000557904363570938,-0.0236421375110958,15.206708179175806,0.06416909111503388,0,0,0.9758006427092633,0,0,0,0,0.05859375,,
1.4025449999999255,1000,,,,-0.0625,0.05078125,-0.95703125,-0.000557904363570938,-0.0236421375110958,15.206706208584183,0.06327288805527907,0,0,0.9621722196252643,0,0,0,0,0.05859375,,
1.4099450000012292,1000,,,,-0.0625,0.046875,-0.955078125,-0.000557904363570938,-0.0236421375110958,15.206769127822767,0.06263623450599143,0,0,0.9524947571687776,0,0,0,0,0.05859375,,
1.417335000000894,1000,,,,-0.0625,0.046875,-0.95703125,-0.000557904363570938,-0.0236421375110958,15.206647976516182,0.06304091186920874,0,0,0.958640954913638,0,0,0,0,0.05859375,,
1.425245000001043,1000,,,,-0.0625,0.048828125,-0.955078125,-0.000536777198282311,-0.0236421375110958,15.206713531114094,0.06431103050201924,0,0,0.9779594177349471,0,0,0,0,0.05859375,,
1.433640000000596,1000,,,,-0.0625,0.05078125,-0.955078125,-0.000536777198282311,-0.0236421375110958,15.206777016308045,0.06457730880969444,0,0,0.9820127353822884,0,0,0,0,0.05859375,,
1.442405000001192,1000,,,,-0.0625,0.05078125,-0.953125,-0.000536777198282311,-0.0236421375110958,15.20667912706763,0.06557732866628266,0,0,0.9972133950384142,0,0,0,0,0.05859375,,
1.450175000000745,1000,,,,-0.0625,0.05078125,-0.955078125,-0.000536777198282311,-0.0236421375110958,15.206547678206743,0.06609966048618328,0,0,1.0051476386964244,0,0,0,0,0.05859375,,
1.4589800000004471,1000,,,,-0.0625,0.05078125,-0.953125,-0.000536777198282311,-0.0236421375110958,15.20668384649508,0.06659454676168139,0,0,1.0126822185055215,0,0,0,0,0.05859375,,
1.4728300000010057,1000,,,,-0.0625,0.048828125,-0.955078125,-0.000536777198282311,-0.0236421375110958,15.206867945062596,0.06496176566909559,0,0,0.9878649920080376,0,0,0,0,0.05859375,,
1.4894450000002981,1000,,,,-0.0625,0.046875,-0.955078125,-0.000536777198282311,-0.0236421375110958,15.207026481957897,0.06310742440826246,0,0,0.9596762741846034,0,0,0,0,0.05859375,,
1.508050000000745,1000,,,,-0.0625,0.05078125,-0.95703125,-0.000536777198282311,-0.0236421375110958,15.20709979895434,0.06367050770116547,0,0,0.9682437648617143,0,0,0,0,0.05859375,,
1.5163450000006706,1000,,,,-0.0625,0.05078125,-0.95703125,-0.000536777198282311,-0.0236421375110958,15.207340745690752,0.06364741643335198,0,0,0.9679079492848607,0,0,0,0,0.05859375,,
1.5243600000012667,1000,,,,-0.0625,0.05078125,-0.95703125,-0.000536777198282311,-0.0236421375110958,15.20727577458638,0.06425769515991413,0,0,0.9771844909361186,0,0,0,0,0.05859375,,
1.532530000001192,1000,,,,-0.0625,0.048828125,-0.953125,-0.000536777198282311,-0.0236421375110958,15.20711206680849,0.0639881572924025,0,0,0.9730750788941337,0,0,0,0,0.05859375,,
1.5401300000008196,1000,,,,-0.0625,0.05078125,-0.95703125,-0.000536777198282311,-0.02401955172202436,15.20705835377168,0.06458007076283054,0,0,0.9820729045810684,0,0,0,0,0.05859375,,
1.5482700000004843,1000,,,,-0.0625,0.048828125,-0.95703125,-0.000536777198282311,-0.02401955172202436,15.206973308917556,0.06493987720875273,0,0,0.9875389793978863,0,0,0,0,0.05859375,,
1.5571150000011549,1000,,,,-0.0625,0.046875,-0.95703125,-0.000536777198282311,-0.02401955172202436,15.207029254760776,0.06484520242475487,0,0,0.9861028903041318,0,0,0,0,0.05859375,,
1.5660800000010058,1000,,,,-0.0625,0.046875,-0.95703125,-0.000536777198282311,-0.02401955172202436,15.207011532889693,0.06561598163789,0,0,0.9978229895092715,0,0,0,0,0.05859375,,
1.5739050000002608,1000,,,,-0.0625,0.048828125,-0.955078125,-0.0005605877386195573,-0.02401955172202436,15.206628056069661,0.06583996918286587,0,0,1.00120392258693,0,0,0,0,0.05859375,,
1.5815350000010804,1000,,,,-0.0625,0.048828125,-0.955078125,-0.0005605877386195573,-0.02401955172202436,15.206630008945012,0.06422050559523994,0,0,0.9765774675741967,0,0,0,0,0.05859375,,
1.5903500000005588,1000,,,,-0.0625,0.05078125,-0.95703125,-0.0005605877386195573,-0.02401955172202436,15.20683067561977,0.06503265142827692,0,0,0.9889405186564094,0,0,0,0,0.05859375,,
1.5982750000003725,1000,,,,-0.0625,0.044921875,-0.95703125,-0.0005605877386195573,-0.02401955172202436,15.206887891947945,0.06558004169682397,0,0,0.9972683420328737,0,0,0,0,0.05859375,,
1.6063750000009314,1000,,,,-0.0625,0.048828125,-0.953125,-0.0005605877386195573,-0.02401955172202436,15.20708058766459,0.06545873049092753,0,0,0.9954361897417522,0,0,0,0,0.05859375,,
1.615185000001453,1000,,,,-0.0625,0.046875,-0.95703125,-0.0005605877386195573,-0.02401955172202436,15.207129545802688,0.06429988861705975,0,0,0.9778167359803113,0,0,0,0,0.05859375,,
1.6248300000010059,1000,,,,-0.0625,0.048828125,-0.95703125,-0.0005605877386195573,-0.02401955172202436,15.207166950311088,0.06425269098876447,0,0,0.9771013988728902,0,0,0,0,0.05859375,,
1.6413850000007078,1000,,,,-0.0625,0.05078125,-0.95703125,-0.0005605877386195573,-0.02401955172202436,15.207110795446182,0.06531972837713904,0,0,0.9933243465596033,0,0,0,0,0.05859375,,
1.6505350000010803,1000,,,,-0.0625,0.046875,-0.953125,-0.0005605877386195573,-0.02401955172202436,15.207086241416901,0.06423974398369894,0,0,0.9768993268866524,0,0,0,0,0.05859375,,
1.6595250000003725,1000,,,,-0.0625,0.048828125,-0.955078125,-0.0005605877386195573,-0.02401955172202436,15.207209810610692,0.06370578258634269,0,0,0.9687872019396623,0,0,0,0,0.05859375,,
1.6684900000002236,1000,,,,-0.0625,0.05078125,-0.955078125,-0.0005605877386195573,-0.02401955172202436,15.207472724824486,0.06415465538329906,0,0,0.9756301719120349,0,0,0,0,0.05859375,,
1.676455000001006,1000,,,,-0.0625,0.048828125,-0.955078125,-0.0005605877386195573,-0.02401955172202436,15.207498939225927,0.06281378404057171,0,0,0.9552405541657607,0,0,0,0,0.05859375,,
1.6843050000015647,1000,,,,-0.0625,0.05078125,-0.9609375,-0.0005605877386195573,-0.02401955172202436,15.207329826108218,0.06283248538189053,0,0,0.9555143289965324,0,0,0,0,0.05859375,,
1.6921600000010804,1000,,,,-0.0625,0.048828125,-0.95703125,-0.0005605877386195573,-0.026596765515251485,15.207263124495324,0.06317782923576275,0,0,0.9607618728226774,0,0,0,0,0.05859375,,
1.700175000000745,1000,,,,-0.0625,0.05078125,-0.955078125,-0.0005605877386195573,-0.026596765515251485,15.20736266269444,0.06380427368300008,0,0,0.9702947293271929,0,0,0,0,0.05859375,,
1.7082900000009686,1000,,,,-0.0625,0.05078125,-0.953125,-0.0005605877386195573,-0.026596765515251485,15.207393947560051,0.06409413036434895,0,0,0.9747046901769252,0,0,0,0,0.05859375,,
1.716525000001304,1000,,,,-0.0625,0.046875,-0.94921875,-0.0005605877386195573,-0.026596765515251485,15.207291431882727,0.06275305072213352,0,0,0.9543039305712033,0,0,0,0,0.05859375,,
1.7254950000010432,1000,,,,-0.0625,0.05078125,-0.955078125,-0.0006036357083293796,-0.026596765515251485,15.207401843039769,0.06254266406765781,0,0,0.9511114248111164,0,0,0,0,0.05859375,,
1.7334050000002608,1000,,,,-0.0625,0.048828125,-0.953125,-0.0006036357083293796,-0.026596765515251485,15.207235436321078,0.0632118730811114,0,0,0.9612778363153077,0,0,0,0,0.05859375,,
1.7411250000009313,1000,,,,-0.0625,0.05078125,-0.95703125,-0.0006036357083293796,-0.026596765515251485,15.207338311559639,0.06257351569261421,0,0,0.9515766224812704,0,0,0,0,0.05859375,,
1.7487600000007077,1000,,,,-0.0625,0.046875,-0.95703125,-0.0006036357083293796,-0.026596765515251485,15.207190500187469,0.06375449993238078,0,0,0.9695268257159035,0,0,0,0,0.05859375,,
1.7561100000003353,1000,,,,-0.0625,0.046875,-0.953125,-0.0006036357083293796,-0.026596765515251485,15.207039154425003,0.06414018075686906,0,0,0.9753822401416049,0,0,0,0,0.05859375,,
1.7632550000008196,1000,,,,-0.0625,0.048828125,-0.95703125,-0.0006036357083293796,-0.026596765515251485,15.206905958956538,0.06552585869124561,0,0,0.9964455709976469,0,0,0,0,0.05859375,,
1.7714450000012294,1000,,,,-0.0625,0.046875,-0.95703125,-0.0006036357083293796,-0.026596765515251485,15.206959963861474,0.06541119303405947,0,0,0.9947053936573569,0,0,0,0,0.05859375,,
1.7819350000005216,1000,,,,-0.0625,0.048828125,-0.955078125,-0.0006036357083293796,-0.026596765515251485,15.20688025624238,0.06530284165527762,0,0,0.9930524934441638,0,0,0,0,0.05859375,,
1.7933150000004099,1000,,,,-0.0625,0.048828125,-0.955078125,-0.0006036357083293796,-0.026596765515251485,15.206738004194046,0.06465085445089389,0,0,0.9831286053820258,0,0,0,0,0.05859375,,
1.8027099999999627,1000,,,,-0.0625,0.05078125,-0.955078125,-0.0006036357083293796,-0.026596765515251485,15.206733978521196,0.0645675281005055,0,0,0.9818612234750792,0,0,0,0,0.05859375,,
1.8118600000012666,1000,,,,-0.0625,0.048828125,-0.95703125,-0.0006036357083293796,-0.026596765515251485,15.206751902828481,0.06360074986331347,0,0,0.9671608240052604,0,0,0,0,0.05859375,,
1.819160000000149,1000,,,,-0.0625,0.046875,-0.955078125,-0.0006036357083293796,-0.026596765515251485,15.206633695305145,0.06358355542749099,0,0,0.9668918364309868,0,0,0,0,0.05859375,,
1.8286300000008195,1000,,,,-0.0625,0.046875,-0.95703125,-0.0006036357083293796,-0.026596765515251485,15.206899479065632,0.06377940242243166,0,0,0.9698869614727933,0,0,0,0,0.05859375,,
1.836670000000857,1000,,,,-0.0625,0.05078125,-0.95703125,-0.0006036357083293796,-0.027625009735406242,15.206885729109597,0.06348718358461493,0,0,0.9654423460342418,0,0,0,0,0.05859375,,
1.844320000000298,1000,,,,-0.0625,0.05078125,-0.94921875,-0.0006036357083293796,-0.027625009735406242,15.206934445469692,0.06290587034254129,0,0,0.9566054465342414,0,0,0,0,0.05859375,,
1.8516500000013039,1000,,,,-0.0625,0.05078125,-0.953125,-0.0006036357083293796,-0.027625009735406242,15.20703661391487,0.06273364243025759,0,0,0.9539927973611705,0,0,0,0,0.05859375,,
1.8598950000014156,1000,,,,-0.0625,0.044921875,-0.953125,-0.0006036357083293796,-0.027625009735406242,15.207084291170226,0.06243472485425142,0,0,0.949450123554622,0,0,0,0,0.05859375,,
1.8673700000001117,1000,,,,-0.0625,0.046875,-0.955078125,-0.0006036357083293796,-0.027625009735406242,15.207194305745759,0.06310880294740057,0,0,0.9597078288241411,0,0,0,0,0.05859375,,
1.8767350000012666,1000,,,,-0.0625,0.046875,-0.953125,-0.0006302387775794179,-0.027625009735406242,15.207014684587593,0.06384625337171772,0,0,0.9709109125796115,0,0,0,0,0.05859375,,
1.8849600000008941,1000,,,,-0.0625,0.05078125,-0.95703125,-0.0006302387775794179,-0.027625009735406242,15.206804719514464,0.06339582992099885,0,0,0.9640480056401816,0,0,0,0,0.05859375,,
1.8921800000015647,1000,,,,-0.0625,0.05078125,-0.95703125,-0.0006302387775794179,-0.027625009735406242,15.206862527259265,0.06317664335896951,0,0,0.9607185304935364,0,0,0,0,0.05859375,,
1.9003850000007079,1000,,,,-0.0625,0.05078125,-0.95703125,-0.0006302387775794179,-0.027625009735406242,15.206919591039995,0.06219899139841645,0,0,0.9458550608395072,0,0,0,0,0.05859375,,
1.9088300000010059,1000,,,,-0.0625,0.046875,-0.95703125,-0.0006302387775794179,-0.027625009735406242,15.206907360138409,0.06245873625963162,0,0,0.9498042161315359,0,0,0,0,0.05859375,,
1.9257000000011175,1000,,,,-0.0625,0.046875,-0.95703125,-0.0006302387775794179,-0.027625009735406242,15.206949483913938,0.06393042657549933,0,0,0.9721867674186874,0,0,0,0,0.05859375,,
1.9355200000004842,1000,,,,-0.0625,0.05078125,-0.95703125,-0.0006302387775794179,-0.027625009735406242,15.2068046330349,0.06453394368370803,0,0,0.9813550737974246,0,0,0,0,0.05859375,,
1.944115000001155,1000,,,,-0.0625,0.046875,-0.955078125,-0.0006302387775794179,-0.027625009735406242,15.20661959647928,0.0647322887293681,0,0,0.9843592903169639,0,0,0,0,0.05859375,,
1.9526550000002607,1000,,,,-0.0625,0.046875,-0.95703125,-0.0006302387775794179,-0.027625009735406242,15.206622001466542,0.06422382806684274,0,0,0.9766274768996551,0,0,0,0,0.05859375,,
1.9615600000014528,1000,,,,-0.0625,0.048828125,-0.95703125,-0.0006302387775794179,-0.027625009735406242,15.206258652572881,0.0638104058839462,0,0,0.9703175365969443,0,0,0,0,0.05859375,,
1.9696650000009686,1000,,,,-0.0625,0.05078125,-0.95703125,-0.0006302387775794179,-0.027625009735406242,15.206409402928129,0.06399324429473574,0,0,0.9731074717673464,0,0,0,0,0.05859375,,
1.9775650000004097,1000,,,,-0.0625,0.05078125,-0.95703125,-0.0006302387775794179,-0.027625009735406242,15.206290446305102,0.06288268278423428,0,0,0.9562123384599361,0,0,0,0,0.05859375,,
1.9856050000013783,1000,,,,-0.0625,0.048828125,-0.955078125,-0.0006302387775794179,-0.02094957776251839,15.206276282111604,0.06353645210548992,0,0,0.9661528447012312,0,0,0,0,0.05859375,,
1.9934950000010432,1000,,,,-0.0625,0.05078125,-0.953125,-0.0006302387775794179,-0.02094957776251839,15.206230046200513,0.06415931401184923,0,0,0.9756212884705953,0,0,0,0,0.05859375,,
2.0015450000008568,1000,,,,-0.0625,0.048828125,-0.95703125,-0.0006302387775794179,-0.02094957776251839,15.206513579698223,0.06411223548833096,0,0,0.9749235795781152,0,0,0,0,0.05859375,,
2.014980000000447,1000,,,,-0.0625,0.048828125,-0.95703125,-0.0006302387775794179,-0.02094957776251839,15.206967790025033,0.06511492076960673,0,0,0.9902005027934416,0,0,0,0,0.05859375,,
2.0249700000006707,1000,,,,-0.0625,0.044921875,-0.958984375,-0.000682448390761079,-0.02094957776251839,15.206740820744624,0.06484263223128127,0,0,0.986045102475956,0,0,0,0,0.05859375,,
2.0320750000001864,1000,,,,-0.0625,0.046875,-0.95703125,-0.000682448390761079,-0.02094957776251839,15.206922246989633,0.06536801368366278,0,0,0.9940463015276143,0,0,0,0,0.05859375,,
2.0392750000003725,1000,,,,-0.0625,0.046875,-0.95703125,-0.000682448390761079,-0.02094957776251839,15.206795930978243,0.06555577026641746,0,0,0.9968932205395015,0,0,0,0,0.05859375,,
2.057365000001155,1000,,,,-0.0625,0.0546875,-0.95703125,-0.000682448390761079,-0.02094957776251839,15.20673440710846,0.06634721000803456,0,0,1.00892440124483,0,0,0,0,0.05859375,,
2.0645000000009315,1000,,,,-0.0625,0.05078125,-0.955078125,-0.000682448390761079,-0.02094957776251839,15.206614487642344,0.0667800268499438,0,0,1.0154981237815002,0,0,0,0,0.05859375,,
2.072800000000745,1000,,,,-0.0625,0.046875,-0.95703125,-0.000682448390761079,-0.02094957776251839,15.206550642601703,0.0672509462928147,0,0,1.0226549205645739,0,0,0,0,0.05859375,,
2.081000000000931,1000,,,,-0.0625,0.046875,-0.955078125,-0.000682448390761079,-0.02094957776251839,15.206624936657663,0.06704360521006109,0,0,1.0195069588307466,0,0,0,0,0.05859375,,
2.0912950000008568,1000,,,,-0.0625,0.046875,-0.955078125,-0.000682448390761079,-0.02094957776251839,15.206562004706491,0.06749151643606219,0,0,1.026313929476647,0,0,0,0,0.05859375,,
2.1129450000012295,1000,,,,-0.0625,0.05078125,-0.955078125,-0.000682448390761079,-0.02094957776251839,15.206515534187211,0.06611054952840976,0,0,1.005311098377416,0,0,0,0,0.05859375,,
2.1216500000003724,1000,,,,-0.0625,0.048828125,-0.95703125,-0.000682448390761079,-0.02094957776251839,15.20676475870844,0.0656753570921409,0,0,0.9987097057443606,0,0,0,0,0.05859375,,
2.1513100000005214,1000,,,,-0.0625,0.048828125,-0.95703125,-0.000682448390761079,-0.017982272760052063,15.206998705667822,0.06437330354412663,0,0,0.9789247436750954,0,0,0,0,0.05859375,,
2.1619500000011174,1000,,,,-0.0625,0.05078125,-0.955078125,-0.000682448390761079,-0.017982272760052063,15.206582427937764,0.06543782947332578,0,0,0.9950857477914637,0,0,0,0,0.05859375,,
2.1691450000014156,1000,,,,-0.0625,0.048828125,-0.953125,-0.000682448390761079,-0.017982272760052063,15.206759041163485,0.06459053840280914,0,0,0.9822127538305351,0,0,0,0,0.05859375,,
2.177260000000708,1000,,,,-0.0625,0.046875,-0.95703125,-0.0006792843352366007,-0.017982272760052063,15.206754541416057,0.06387905713185839,0,0,0.9713931421412633,0,0,0,0,0.05859375,,
2.1847850000010802,1000,,,,-0.0625,0.046875,-0.95703125,-0.0006792843352366007,-0.017982272760052063,15.206982928965084,0.0638495186881614,0,0,0.9709585407135075,0,0,0,0,0.05859375,,
2.194315000001341,1000,,,,-0.0625,0.048828125,-0.955078125,-0.0006792843352366007,-0.017982272760052063,15.206820095833798,0.06405098774202099,0,0,0.9740118475533691,0,0,0,0,0.05859375,,
2.202620000000112,1000,,,,-0.0625,0.052734375,-0.95703125,-0.0006792843352366007,-0.017982272760052063,15.206811770993301,0.06305484709783138,0,0,0.958863191065485,0,0,0,0,0.05859375,,
2.2107250000005587,1000,,,,-0.0625,0.05078125,-0.9609375,-0.0006792843352366007,-0.017982272760052063,15.206673178474608,0.06284825553413403,0,0,0.9557128817448344,0,0,0,0,0.05859375,,
2.218925000000745,1000,,,,-0.0625,0.046875,-0.953125,-0.0006792843352366007,-0.017982272760052063,15.206836682052902,0.06286556351879206,0,0,0.9559863573554939,0,0,0,0,0.05859375,,
2.2262700000004845,1000,,,,-0.0625,0.05078125,-0.955078125,-0.0006792843352366007,-0.017982272760052063,15.206700297332178,0.06382086971430127,0,0,0.9705048384604634,0,0,0,0,0.05859375,,
2.234800000000745,1000,,,,-0.0625,0.05078125,-0.953125,-0.0006792843352366007,-0.017982272760052063,15.206632704861612,0.06357551410362017,0,0,0.9667694919965011,0,0,0,0,0.05859375,,
2.246585000000894,1000,,,,-0.0625,0.05078125,-0.95703125,-0.0006792843352366007,-0.017982272760052063,15.206766170205036,0.06420061010553893,0,0,0.9762836658594329,0,0,0,0,0.05859375,,
2.2543100000005216,1000,,,,-0.0625,0.046875,-0.95703125,-0.0006792843352366007,-0.017982272760052063,15.20685521197411,0.06459821562772325,0,0,0.9823357120026707,0,0,0,0,0.05859375,,undefined,0,
2.272470000001602,1000,,,,-0.0625,0.046875,-0.95703125,-0.0006792843352366007,-0.017982272760052063,15.206564700673432,0.06390686771243308,0,0,0.9718039186864915,0,0,0,0,0.05859375,,
2.290110000000335,1200,,,,-0.0625,0.046875,-0.95703125,-0.0006792843352366007,-0.017143419204469136,15.206641541408043,0.06424347997654435,0,0,0.9769275713759351,0,0,0,0,0.05859375,,
2.298460000000894,1200,,,,-0.0625,0.05078125,-0.95703125,-0.0006792843352366007,-0.017143419204469136,15.206571493202624,0.06442031373754477,0,0,0.9796121064645177,0,0,0,0,0.05859375,,
2.3074300000015646,1200,,,,-0.0625,0.048828125,-0.95703125,-0.0006792843352366007,-0.017143419204469136,15.206442947895766,0.06468483377819809,0,0,0.9836262344422901,0,0,0,0,0.05859375,,
2.3161950000012292,1200,,,,-0.0625,0.048828125,-0.953125,-0.0006792843352366007,-0.017143419204469136,15.20674876907776,0.0653192845172694,0,0,0.9932939494300265,0,0,0,0,0.05859375,,
2.3253950000014156,1200,,,,-0.0625,0.046875,-0.95703125,-0.0007037370326785475,-0.017143419204469136,15.206825086081858,0.06413164317603219,0,0,0.9752386802609367,0,0,0,0,0.05859375,,
2.333105000001378,1200,,,,-0.0625,0.05078125,-0.953125,-0.0007037370326785475,-0.017143419204469136,15.206818153631396,0.0640905780611782,0,0,0.9746137659374546,0,0,0,0,0.05859375,,
2.341835000000894,1200,,,,-0.0625,0.05078125,-0.9609375,-0.0007037370326785475,-0.017143419204469136,15.205637919890325,0.1024298485659565,0,0,1.5575111894831317,0,0,0,0,0.05859375,,
2.3499500000011175,1200,,,,-0.0625,0.056640625,-0.998046875,-0.0007037370326785475,-0.017143419204469136,15.204400487524403,0.13319763250262553,0,0,2.025190148560016,0,0,0,0,0.05859375,,
2.358310000001453,1200,,,,-0.125,0.08203125,-0.99609375,-0.0007037370326785475,-0.017143419204469136,15.203347632166142,0.16157441506065642,0,0,2.4564720006310603,0,0,0,0,0.05859375,,
2.365230000000447,1200,,,,-0.0625,0.10546875,-0.998046875,-0.0007037370326785475,-0.017143419204469136,15.20269066140212,0.1842914468101573,0,0,2.801725857397064,0,0,0,0,0.05859375,,
2.3749800000013783,1200,,,,0.125,-0.04296875,-0.9140625,-0.0007037370326785475,-0.017143419204469136,15.202364028605073,0.19914037085878833,0,0,3.0274044105867177,0.00002638610115954862,0.000871575038580159,649.7139952889653,0.005662745005100492,0.060546875,,
2.3841000000005588,1200,,,,-0.0625,0.078125,-0.9296875,-0.0007037370326785475,-0.017143419204469136,15.201942559817692,0.2098274912816744,0,0,3.189785469934662,0.00002638610115954862,0.0008272061368468489,649.7139952889653,0.005374474040983167,0.060546875,,
2.3914500000001864,1200,,,,0,-0.03515625,-1.00390625,-0.0007037370326785475,-0.017143419204469136,15.201675484650528,0.21465221966567613,0,0,3.263073385417529,0.00002638610115954862,0.0008086272677000296,649.7139952889653,0.00525376452796986,0.0625,,
2.401400000001304,1200,,,,-0.03125,0.06640625,-0.99609375,-0.0007037370326785475,-0.017143419204469136,15.201595202627551,0.21690943719562264,0,0,3.2973694598776193,0.00002638610115954862,0.000800216702453717,649.7139952889653,0.005199119908481656,0.0625,,
2.4119650000007824,1200,,,,-0.0625,0.08203125,-1.017578125,-0.0007037370326785475,-0.017143419204469136,15.201663936742923,0.2236150033809246,0,0,3.3993201326104483,0.00002638610115954862,0.0007762170119377923,649.7139952889653,0.005043190560373655,0.064453125,,
2.4214700000006704,1200,,,,-0.03125,0.01953125,-1.01953125,-0.0007037370326785475,-0.017143419204469136,15.201087150711999,0.2456511778686072,0,0,3.7341649634557528,0.00002638610115954862,0.0007066131629902557,649.7139952889653,0.004590964612501718,0.064453125,,
2.4296150000002235,1200,,,,-0.125,0.001953125,-0.970703125,-0.0007037370326785475,-0.017143419204469136,15.200888787177748,0.25115176482073237,0,0,3.8177300457433736,0.00002638610115954862,0.0006911463315476729,649.7139952889653,0.004490474443991504,0.068359375,,
2.4381850000005216,1200,,,,-0.0625,0.00390625,-1.0546875,-0.0007037370326785475,-0.01675802499689255,15.200943314553491,0.24513065972966244,0,0,3.726217263209699,0.00002638610115954862,0.0007081203079613262,635.1080402353474,0.004497329010401685,0.0703125,,
2.445955000001006,1200,,,,0,0.0234375,-0.970703125,-0.0007037370326785475,-0.01675802499689255,15.201090460881822,0.23992057790009783,0,0,3.647054408086431,0.00002638610115954862,0.0007234907464238548,635.1080402353474,0.004594947900896631,0.0703125,,
2.454135000000708,1200,,,,-0.09375,0.111328125,-1,-0.0007037370326785475,-0.01675802499689255,15.201431602389798,0.23376710995852953,0,0,3.553594732922922,0.00002638610115954862,0.0007425185802728097,635.1080402353474,0.004715795203553966,0.072265625,,
2.4630600000005214,1200,,,,-0.0625,0.060546875,-0.970703125,-0.0007037370326785475,-0.01675802499689255,15.201499262729172,0.22751691613283745,0,0,3.4585982328517435,0.00002638610115954862,0.000762913162590507,635.1080402353474,0.004845322835626078,0.072265625,,
2.4706300000008197,1200,,,,0,0.05078125,-1.0546875,-0.0007037370326785475,-0.01675802499689255,15.201557484627301,0.22235496495046747,265,0,3.38014178168682,0.019528516903074847,0.5777425375727692,0.858130962021695,0.004957787595681757,0.072265625,,
2.4786850000005214,1200,,,,-0.0625,0.037109375,-0.919921875,-0.0005779606180972679,-0.01675802499689255,15.201773563325927,0.21714865555031718,367,0,3.3010446912565796,0.022194390519334493,0.6723444422949012,0.75505677807615,0.00507658228356594,0.072265625,,
2.4869100000010804,1200,,,,-0.0625,0.046875,-1.02734375,-0.0005779606180972679,-0.01675802499689255,15.201881959257836,0.21114027606197672,407,0,3.209729553539283,0.02464350514631994,0.7677751266970827,0.6800179153652198,0.005221008411258178,0.072265625,,
2.4948950000014154,1200,,,,-0.03125,0.0234375,-0.9609375,-0.0005779606180972679,-0.01675802499689255,15.202183705324328,0.20577137164740042,423,0,3.1281741930803473,0.025622060768126825,0.819073976916116,0.6540467274880206,0.005357126541725843,0.072265625,,
2.5030250000003726,1200,,,,-0.0625,0.0390625,-0.947265625,-0.0005779606180972679,-0.01675802499689255,15.202142308186351,0.2005111497966756,430,0,3.048199033587133,0.02600414474574746,0.8530986480612349,0.644436691179126,0.005497680700059681,0.072265625,,
2.5122400000002236,1200,,,,-0.0625,0.03515625,-0.94921875,-0.0005779606180972679,-0.01675802499689255,15.202356020054804,0.19470646427693258,432,0,2.959996989344012,0.026165621914163443,0.8839746124188528,0.6404596478488989,0.005661500689771454,0.072265625,,
2.5202750000013037,1200,,,,0,0.001953125,-0.962890625,-0.0005779606180972679,-0.01675802499689255,15.202698466892796,0.19038300258969676,433,0,2.89433538159283,0.026219709873825037,0.9058974312574526,0.6391384602474941,0.005789938893560483,0.072265625,,
2.528050000000745,1200,,,,-0.0625,0.064453125,-0.974609375,-0.0005779606180972679,-0.01675802499689255,15.20289195397951,0.18587885781568655,434,0,2.8258961919010024,0.026240961626286002,0.9285890154596762,0.6386208415512395,0.005930162985080954,0.072265625,,
2.5360450000008568,1200,,,,-0.03125,0.03125,-0.966796875,-0.0005779606180972679,-0.01675802499689255,15.20333813631365,0.18337759474907328,434,0,2.7879515795940555,0.026249407721362524,0.941530258756668,0.6384153568255327,0.006010873761061745,0.0703125,,
2.5439700000006704,1200,,,,-0.0625,0.0546875,-1.015625,-0.0005779606180972679,-0.01675802499689255,15.203240612296513,0.17942614809807766,434,0,2.727858901672623,0.026252734370705345,0.9623934124528264,0.638334459194176,0.006143288784701125,0.0703125,,
2.555175000000745,1200,,,,-0.0625,0.0625,-1.01171875,-0.0005779606180972679,-0.01675802499689255,15.203730173114957,0.1743889411717833,503,0,2.651362406751011,0.030473471206779672,1.149351410021762,0.5499217625448676,0.006320533531825962,0.072265625,,
2.5628500000005587,1200,,,,-0.03125,0.02734375,-0.958984375,-0.0005779606180972679,-0.01675802499689255,15.204047768600704,0.1690618341789622,529,0,2.5704242027041926,0.03201878246622853,1.2456614138842703,0.5233810815438689,0.006519556180362142,0.0703125,,
2.5709500000011176,1200,,,,-0.03125,0.017578125,-1.021484375,-0.0005779606180972679,-0.01675802499689255,15.203946148440853,0.1650972214278039,537,0,2.5101292638455455,0.03248302054846438,1.294077600557512,0.5159010681254143,0.006676160163647936,0.0703125,,
2.5793550000013785,1200,,,,-0.0625,0,-0.9453125,-0.0005779606180972679,-0.01675802499689255,15.20394903129655,0.16053099056726403,540,0,2.4407049985282296,0.03267246964682996,1.338648860330593,0.512909650786637,0.0068660591947809395,0.072265625,,
2.5880350000010806,1200,,,,0,0.025390625,-0.96484375,-0.0005779606180972679,-0.00729985004262975,15.20395158178401,0.1557053335609172,541,0,2.367336352485714,0.032738460943948014,1.3829239309222994,0.22297474689258995,0.0030835711346910524,0.0703125,,
2.59585000000149,1200,,,,-0.0625,0.068359375,-1.015625,-0.0005779606180972679,-0.00729985004262975,15.204085851904496,0.15199315402742025,541,0,2.310916962734641,0.03276422215727396,1.4178017940766756,0.22279943065912572,0.003158854325077703,0.0703125,,
2.6038000000016766,1200,,,,-0.0625,0.0703125,-1,-0.0005779606180972679,-0.00729985004262975,15.204081654002124,0.14957355206185008,542,0,2.2741284988275066,0.03277423057466129,1.441177602389619,0.22273139337322767,0.003209954954785273,0.0703125,,
2.611280000000261,1200,,,,0,0.01953125,-0.9609375,-0.0005779606180972679,-0.00729985004262975,15.204424497459573,0.14724349716099433,542,0,2.2387526353262412,0.03277795737322394,1.464116975498161,0.22270606918883054,0.0032606773644583485,0.0703125,,
2.6200950000006706,1200,,,,-0.0625,0.0390625,-0.96875,-0.0005779606180972679,-0.00729985004262975,15.20462151280134,0.1438094784022607,542,0,2.1865686890597527,0.032779801389821825,1.4991434549406943,0.22269354093452084,0.0033384956434955454,0.0703125,,
2.6286300000008196,1200,,,,-0.0625,0.041015625,-1.017578125,0.0019204371565750668,-0.00729985004262975,15.20436725787644,0.14152463429984158,546,0,2.151792515931448,0.10980344246321408,5.10288244104629,0.06648106724955656,0.003392450707297798,0.0703125,,
2.6370550000006334,1200,,,,-0.03125,0.013671875,-0.953125,0.0019204371565750668,-0.00729985004262975,15.204414326661569,0.13940189762016117,550,0,2.119524209339788,0.11051459961510329,5.214123015350109,0.06605326416648509,0.003444098449294705,0.0703125,,
2.644870000000112,1200,,,,-0.03125,0.03515625,-0.96875,0.0019204371565750668,-0.00729985004262975,15.204393980669131,0.13693593200394774,551,0,2.0820278602981404,0.11079829052422766,5.321652636692463,0.06588413962066979,0.0035061250532855176,0.0703125,,
2.6522950000008567,1200,,,,-0.0625,0.04296875,-1.01171875,0.0019204371565750668,-0.00729985004262975,15.204504209887284,0.1348343546142894,551,0,2.050089512370398,0.11090914840818673,5.409966137524845,0.06581828593402952,0.003560746981330275,0.0703125,,
2.6625900000007823,1200,,,,-0.09375,0.041015625,-0.998046875,0.0019204371565750668,-0.00729985004262975,15.203838457019998,0.1678288153341053,552,0,2.5516421967727774,0.11095935996378278,4.348546990801457,0.06578850170920619,0.0028608439113690506,0.0703125,,
2.6702550000008194,1200,,,,-0.03125,0.08203125,-1.021484375,0.0019204371565750668,-0.00729985004262975,15.203290413367554,0.1822571468857192,552,0,2.770908334015377,0.11097213456461556,4.0049009634253645,0.0657809284400065,0.002634461036843971,0.0703125,,
2.6790800000010058,1200,,,,-0.0625,0.0703125,-0.9921875,0.0019204371565750668,-0.00729985004262975,15.202348435449785,0.21217543380428522,552,0,3.225564874135455,0.11097840577318618,3.4405882412435314,0.06577721126710839,0.002263122996274047,0.0703125,,
2.686385000000708,1200,,,,-0.0625,0.09765625,-0.9921875,0.0019204371565750668,-0.00729985004262975,15.200908766430627,0.2444693439768734,552,0,3.7161561939815995,0.11098103240800439,2.986446925663155,0.06577565449015642,0.0019643550113560954,0.072265625,,
2.694070000001229,1200,,,,-0.03125,-0.03125,-0.994140625,0.0019204371565750668,-0.00729985004262975,15.20017470877451,0.26768989968518625,604,0,4.068933242989154,0.12149559496822455,2.985932373738588,0.06008324865225708,0.0017940451727015982,0.07421875,,
2.7023600000003354,1200,,,,-0.1875,0.03515625,-0.94140625,0.0019204371565750668,-0.00729985004262975,15.199772596483982,0.28357179794262627,628,0,4.310226843504023,0.12638702039476424,2.932259135855996,0.05775790915735645,0.0016936115679459915,0.076171875,,
2.713155000001192,1200,,,,-0.03125,-0.005859375,-0.94921875,0.0019204371565750668,-0.00729985004262975,15.19926657696023,0.29561206618877545,638,0,4.49308659736921,0.12829688195836228,2.855428649727842,0.05689810953471852,0.0016246849208078817,0.076171875,,
2.7222000000001865,1200,,,,-0.03125,0.0859375,-1.025390625,0.0019204371565750668,-0.00729985004262975,15.19873804720347,0.30309501025067953,642,0,4.606661664214529,0.1292100082402889,2.804851271019492,0.05649601096731134,0.0015846290816919437,0.076171875,,
2.7300700000012292,1200,,,,-0.03125,0.052734375,-0.98046875,0.0019204371565750668,-0.00729985004262975,15.198799521921831,0.3056789058529347,644,0,4.6459524081391725,0.12942157964381495,2.785684576042649,0.056403654342033906,0.0015712278993304483,0.076171875,,
2.738050000000745,1200,,,,-0.0625,0.03125,-0.9453125,0.0019204371565750668,0.008043045554064649,15.19872604506356,0.30625163887170154,830,0,4.65463476006273,0.16698319836645667,3.5874608207541994,0.04816679541862413,0.0017279649142559693,0.076171875,,
2.7467350000012667,1200,,,,-0.03125,0.015625,-0.9375,0.0019204371565750668,0.008043045554064649,15.198788941411694,0.3055023150080851,902,0,4.643265206920556,0.1814166504936332,3.9070921519460207,0.04433466019893758,0.0017321960292246263,0.07421875,,
2.7545300000002606,1200,,,,0,0.046875,-0.97265625,0.0019204371565750668,0.008043045554064649,15.198847721181632,0.30395992890960327,930,0,4.619840672838254,0.1870375548506547,4.048571543826553,0.04300230272196854,0.0017409789911917693,0.07421875,,
2.763010000000708,1200,,,,-0.0625,-0.03515625,-0.9453125,0.0019204371565750668,0.008043045554064649,15.198910756327496,0.2991000073879451,942,0,4.545994319506272,0.18941389779911313,4.166610965314291,0.042462805778881486,0.0017692599217629867,0.07421875,,
2.7715350000010806,1200,,,,0,0.0625,-0.994140625,0.0019204371565750668,0.008043045554064649,15.199160218689173,0.29456072309399345,946,0,4.477075624438542,0.19022337781987028,4.2488310177634245,0.04228210878307983,0.0017964953529399686,0.07421875,,
2.7805550000006334,1200,,,,-0.0625,0.04296875,-0.951171875,0.0059052962100780435,0.008043045554064649,15.199281688068398,0.2906057864891288,1025,0,4.41699920903093,0.6337215861312291,14.34733302273479,0.012691765169569465,0.0018209298153415922,0.07421875,,
2.7889300000006334,1200,,,,-0.03125,0.009765625,-0.96484375,0.0059052962100780435,0.008043045554064649,15.199465866829145,0.2855542499345411,1052,0,4.340272075008056,0.650748119591579,14.993256375301566,0.012359690811112304,0.0018531201305046572,0.07421875,,
2.797335000000894,1200,,,,-0.03125,0.013671875,-0.974609375,0.0059052962100780435,0.008043045554064649,15.199782869107105,0.2795057613018581,1062,0,4.248426882452723,0.6565561433866963,15.454100106994195,0.012250354573755746,0.001893182059289955,0.07421875,,
2.8063150000013413,1200,,,,-0.0625,0.1796875,-1.0546875,0.0059052962100780435,0.008043045554064649,15.199942008034933,0.2709240933322928,1066,0,4.118030507230294,0.6590225405874124,16.00334284630295,0.012204507522452222,0.001953129181520863,0.076171875,,
2.815295000000857,1200,,,,-0.0625,0.03125,-0.9765625,0.0059052962100780435,0.008043045554064649,15.200019315238627,0.2659021077854291,1067,0,4.041717174301186,0.6599059377181109,16.327365554276042,0.012188169698664481,0.0019900070210764546,0.076171875,,
2.8243400000007823,1200,,,,0,0.02734375,-0.955078125,0.0059052962100780435,0.008043045554064649,15.20023678919738,0.2609898984767346,1088,0,3.9671082564349502,0.6730607245728584,16.966028680490453,0.011949955272117493,0.002027432838773235,0.076171875,,
2.8323200000012294,1200,,,,-0.0625,0.08984375,-1.02734375,0.0059052962100780435,0.008043045554064649,15.20042215756092,0.2554202356267462,1096,0,3.8824954091102244,0.677556639354386,17.451576060193357,0.011870661560823188,0.0020716175311351944,0.076171875,,
2.8403500000005586,1200,,,,-0.0625,-0.05078125,-0.96484375,0.0059052962100780435,0.008043045554064649,15.200597388036538,0.25025357073778126,1099,0,3.804003773703535,0.6793195461858937,17.858014518332507,0.011839855925275694,0.002114363190085385,0.076171875,,
2.848265000000596,1200,,,,-0.03125,0.0703125,-0.921875,0.0059052962100780435,0.008043045554064649,15.200698157621593,0.24685428730754042,1100,0,3.752357510276721,0.6800126274461038,18.12227714400155,0.011827788528386,0.0021434646171205334,0.076171875,,
2.8564100000010804,1200,,,,0,-0.04296875,-0.97265625,0.0059052962100780435,0.008043045554064649,15.200762617177467,0.24292042294190783,1105,0,3.692575684004292,0.6833281345249494,18.505460496992082,0.011770400116272374,0.0021781667438546945,0.076171875,,
2.8678200000012293,1200,,,,-0.0625,0.08984375,-1.0390625,0.0059052962100780435,0.008043045554064649,15.20101242873545,0.23926657399425208,1110,0,3.637094165067576,0.6862901888133901,18.869189459125238,0.011719598626305939,0.002211393268646706,0.076171875,,
2.8760900000007825,1200,,,,-0.09375,0.009765625,-1.001953125,0.0059052962100780435,0.008043045554064649,15.201145759585069,0.23313367415294767,1112,0,3.5438989622665678,0.68745877789537,19.398374085013213,0.01169967685726283,0.002269547083509561,0.078125,,
2.8898700000001116,1200,,,,0,-0.046875,-0.9140625,0.0059052962100780435,0.07120651585072124,15.201558132250389,0.22591229268062096,1115,0,3.4342188499744237,0.6896346057333463,20.081265518022605,0.10325252714805601,0.0207344141306695,0.076171875,,
2.898495000001043,1200,,,,-0.03125,0.07421875,-1.046875,0.0059052962100780435,0.07120651585072124,15.20167761996025,0.22336657758627643,1117,0,3.3955467035404134,0.6905300331864064,20.336343260023952,0.10311863703037412,0.020970559991555053,0.078125,,
2.9078400000007822,1200,,,,-0.0625,-0.009765625,-0.99609375,0.0059052962100780435,0.07120651585072124,15.201946875992386,0.2203450697669631,1117,0,3.349674044984209,0.6909025690956248,20.62596419284975,0.10306303527562344,0.021257744752014196,0.078125,,
2.916760000000708,1200,,,,-0.03125,0.123046875,-0.9609375,0.0059052962100780435,0.07120651585072124,15.202069660065064,0.21483944137130337,1117,0,3.266004153456018,0.6910448464897981,21.158725280815975,0.10304181590010955,0.021802334750668333,0.078125,,
2.924530000000261,1200,,,,0,-0.033203125,-0.943359375,0.005532071454809943,0.07120651585072124,15.20229915041253,0.21203695080140766,1118,0,3.2234491570243033,0.6474102725101138,20.08439534711832,0.109986694487627,0.0220901625501222,0.078125,,
2.9313750000009313,1200,,,,-0.0625,0.0859375,-1.00390625,0.005532071454809943,0.07120651585072124,15.202286253035409,0.21010710140791033,1119,0,3.1941082993985916,0.6485334038534636,20.304051806119844,0.10979621932752502,0.022293081253421648,0.078125,,
2.938885000000708,1200,,,,-0.0625,0.01953125,-0.978515625,0.005532071454809943,0.07120651585072124,15.202273595526844,0.20792612175248437,1120,0,3.1609497905380928,0.6490297272818872,20.532743962737925,0.10971225639992103,0.022526936702338338,0.078125,,
2.946280000000261,1200,,,,-0.0625,0.0390625,-0.98046875,0.005532071454809943,0.07120651585072124,15.202347163143973,0.2053643822040386,1121,0,3.1220206332103806,0.6492373424836256,20.795421259468537,0.10967717226234124,0.022807829997426837,0.078125,,
2.9543850000007077,1200,,,,-0.0625,0.08984375,-0.9765625,0.005532071454809943,0.07120651585072124,15.202297702809211,0.20308492848604712,1121,0,3.087357541798607,0.6493359045444063,21.032092841638338,0.10966052447181693,0.023063903317540064,0.078125,,
2.963120000001043,1200,,,,0.03125,0.015625,-0.93359375,0.005532071454809943,0.07120651585072124,15.202170769593693,0.20075006918619623,1121,0,3.0518368337763038,0.6493774476613009,21.278249232537426,0.10965350907575833,0.02333234695336291,0.078125,,
2.971615000001155,1200,,,,-0.0625,0.0234375,-0.958984375,0.005532071454809943,0.07120651585072124,15.202260276970286,0.19890677605930226,1122,0,3.023832580506555,0.649967229272419,21.494815336751742,0.10955400925432911,0.023548431983225957,0.078125,,
2.9792200000006703,1200,,,,-0.0625,0.09765625,-1.015625,0.005532071454809943,0.07120651585072124,15.202345875877302,0.19628773861165857,1122,0,2.9840340935682295,0.6502012250989576,21.789336338361473,0.10951458271996325,0.023862500768405886,0.078125,,
2.9873750000009314,1200,,,,-0.0625,-0.037109375,-0.978515625,0.005532071454809943,0.07120651585072124,15.202625035998675,0.19421704155910552,1123,0,2.952608858424053,0.6502934533585076,22.024368432789977,0.10949905074850108,0.02411647436725755,0.078125,,
2.996120000001043,1200,,,,-0.03125,0.130859375,-0.953125,0.005532071454809943,0.07120651585072124,15.202846413501893,0.19155993331562066,1123,0,2.912256245178045,0.6503316202264587,22.330851596704182,0.10949262443355542,0.024450635471593922,0.080078125,,
3.0040600000005218,1200,,,,-0.03125,-0.01953125,-0.931640625,0.005532071454809943,0.07120651585072124,15.202902701746625,0.190697493975859,1123,0,2.8991554463818976,0.6504955628345794,22.437415822128067,0.10946502930847664,0.02456112380575726,0.078125,,
3.0123450000006704,1200,,,,-0.0625,0.1171875,-1.03125,0.005532071454809943,0.07120651585072124,15.202825393656946,0.18933301551635598,1124,0,2.8783967761497014,0.6508647198193622,22.612057003829538,0.10940294301169612,0.02473825583767187,0.080078125,,
3.023570000000298,1200,,,,-0.0625,0.087890625,-1.029296875,0.005532071454809943,0.07120651585072124,15.20278489504111,0.18857411572223703,1124,0,2.8668517180977595,0.6510093753855323,22.708163497814116,0.10937863346215597,0.0248378789182612,0.080078125,,
3.040300000000745,1200,,,,-0.03125,0.107421875,-0.935546875,0.005532071454809943,0.10336555578852474,15.202661135297486,0.18450027607076183,1124,0,2.8048951764726278,0.651093046730661,23.212740789460117,0.1587569646267228,0.036851842684016055,0.080078125,,
3.048015000000596,1200,,,,-0.03125,0.03515625,-1.021484375,0.005532071454809943,0.10336555578852474,15.202726460324747,0.1817593859122819,1124,0,2.7632382256210253,0.6510993384130531,23.562910080498813,0.158755430531478,0.03740739934404092,0.080078125,,
3.056415000000037,1200,,,,-0.125,0.18359375,-1.046875,0.005532071454809943,0.10336555578852474,15.202657593795617,0.17975949629857887,1124,0,2.732822071460465,0.6511018480136829,23.825255760823218,0.15875481862609075,0.03782374157029714,0.08203125,,
3.065495000001043,1200,,,,-0.0625,0.009765625,-1.033203125,0.005532071454809943,0.10336555578852474,15.202658126088158,0.17811703217278058,1124,0,2.7078523465562285,0.6511028872529924,24.044992264110967,0.15875456523411338,0.038172522929465554,0.08203125,,
3.0770500000016763,1200,,,,-0.09375,0.142578125,-0.96875,0.005402408171111844,0.10336555578852474,15.202610598699593,0.17639560351686048,1124,0,2.6816736715894343,0.6358424391287373,23.710656738926478,0.16256473212162642,0.03854516561191419,0.08203125,,
3.0840700000012293,1200,,,,0.03125,-0.001953125,-0.94140625,0.005402408171111844,0.10336555578852474,15.202670269012518,0.1765670075634458,1124,0,2.684289996373306,0.6361052569062415,23.69733738775138,0.1624975657193166,0.038507596395389476,0.08203125,,
3.0925350000010803,1200,,,,-0.0625,0.08984375,-1.02734375,0.005402408171111844,0.10336555578852474,15.20273530744656,0.1732523379043242,1125,0,2.6339094345557315,0.6362289459538781,24.155308364320906,0.1624659746242007,0.039244157157575045,0.08203125,,
3.100480000000447,1200,,,,-0.0625,0.08984375,-1.04296875,0.005402408171111844,0.10336555578852474,15.202731977173347,0.17211505174410224,1125,0,2.6166190009029084,0.6362778771705686,24.3167949537556,0.1624534806210389,0.03950347977785712,0.083984375,,
3.109345000001602,1200,,,,-0.0625,-0.021484375,-0.966796875,0.005402408171111844,0.10336555578852474,15.203244467209936,0.17113259409600537,1125,0,2.6017706643493774,0.6362984558240622,24.456362143785675,0.16244822668107423,0.039728926613281375,0.083984375,,
3.117210000000894,1200,,,,0,0.0703125,-0.896484375,0.005402408171111844,0.10336555578852474,15.203216399479878,0.1713715925882503,1125,0,2.6053994068426714,0.6363053301396421,24.422563713973616,0.1624464716739688,0.039673593045677136,0.083984375,,
3.1259700000006707,1200,,,,0,-0.02734375,-0.9140625,0.005402408171111844,0.10336555578852474,15.203255133188609,0.17010016531119507,1124,0,2.5860762114236575,0.6360643975927343,24.595732901567324,0.16250800418908007,0.03997003465401397,0.083984375,,
3.134390000000596,1200,,,,-0.03125,0.017578125,-1.02734375,0.005402408171111844,0.10336555578852474,15.20318669955475,0.1678202283240355,1124,0,2.551402263172218,0.635965280159117,24.926107863853915,0.16253333163512154,0.04051323355808579,0.083984375,,
3.1431650000009688,1200,,,,-0.09375,0.0859375,-1.03515625,0.005402408171111844,0.10336555578852474,15.203669079500393,0.16684529785261926,1124,0,2.536660696021901,0.6359294638879359,25.069551670242202,0.16254248569734442,0.0407486724379918,0.083984375,,
3.161460000000894,1200,,,,0,0.03125,-0.892578125,0.005402408171111844,0.10336555578852474,15.203589511318631,0.16521831273272433,1125,0,2.511911406541009,0.6362510990124426,25.32936063571537,0.16246031786658385,0.041150159802356555,0.083984375,,
3.1699650000007824,1200,,,,0,-0.0546875,-0.9921875,0.005402408171111844,0.10336555578852474,15.2036096682521,0.16297543807744258,1125,0,2.4778149460418275,0.6364082039742646,25.684250754516253,0.16242021259786385,0.04171641467965374,0.0859375,,
3.180705000001006,1200,,,,-0.0625,0.119140625,-1.021484375,0.005402408171111844,0.10336555578852474,15.203484907861615,0.1608358163749908,1125,0,2.445264906900775,0.6364736426835779,26.028821698924627,0.16240351344747328,0.042271720948031895,0.0859375,,
3.191935000001453,1200,,,,-0.09375,0.017578125,-0.962890625,0.005402408171111844,0.1254124676004485,15.203340821052771,0.16069178218657051,1125,0,2.443051931724808,0.6364993142004253,26.053450028426262,0.19703472541520722,0.05133434372469791,0.0859375,,
3.210710000000894,1200,,,,0,-0.005859375,-0.95703125,0.005402408171111844,0.1254124676004485,15.203284074928444,0.15964904845512012,1124,0,2.427189835955207,0.6359455449318073,26.200898483967755,0.1972062995014715,0.051669822336369964,0.0859375,,
3.218300000000745,1200,,,,-0.0625,0.12890625,-1.05078125,0.005402408171111844,0.1254124676004485,15.203491647057644,0.15826947592131452,1124,0,2.406248655153896,0.635886822334605,26.426480113458418,0.19722451102227148,0.052119496184166184,0.0859375,,
3.2266600000010803,1200,,,,-0.0625,0.0234375,-0.994140625,0.005340878274648418,0.1254124676004485,15.203322112103098,0.15807906732769383,1124,0,2.403326979763762,0.6286181592884916,26.156164541134657,0.19950500275461017,0.052182856788291064,0.0859375,,
3.2353400000007824,1200,,,,-0.0625,0.0390625,-1,0.005340878274648418,0.1254124676004485,15.203507601912612,0.15787212656394423,1124,0,2.400210076345036,0.6288195879495315,26.19852296041845,0.19944109567164756,0.05225062124204671,0.0859375,,
3.2440100000007077,1200,,,,-0.03125,0.0859375,-0.8984375,0.005340878274648418,0.1254124676004485,15.20333509299346,0.15801894793989396,1125,0,2.4024150165724962,0.6290872198915273,26.18561803651395,0.19935624764730273,0.05220266554084953,0.0859375,,
3.252055000000633,1200,,,,0,-0.029296875,-0.931640625,0.005340878274648418,0.1254124676004485,15.203516204691843,0.158291092579983,1125,0,2.406581191098148,0.6291980146409908,26.1448903934083,0.1993211432366115,0.05211229443010044,0.0859375,,
3.261315000001341,1200,,,,-0.0625,0.115234375,-1.052734375,0.005340878274648418,0.1254124676004485,15.203322039026556,0.1580732160045383,1125,0,2.4032380086616025,0.6292384364010533,26.182942935039762,0.19930833901016695,0.0521847886678076,0.087890625,,
3.2701100000012664,1200,,,,-0.0625,0.0234375,-1.0390625,0.005340878274648418,0.1254124676004485,15.203421297648784,0.15724636197252373,1125,0,2.390682688590857,0.6292520687567961,26.321020006536163,0.19930402111863382,0.05245885127246666,0.087890625,,
3.2780350000010805,1200,,,,-0.0625,0.009765625,-0.986328125,0.005340878274648418,0.1254124676004485,15.20316291595718,0.1570888556784019,1125,0,2.388247465160029,0.6292998762745164,26.34986053391871,0.19928888011689425,0.05251234197041009,0.087890625,,
3.285745000001043,1200,,,,0,0.16015625,-0.98828125,0.005340878274648418,0.1254124676004485,15.2031995031137,0.1581073378938483,1125,0,2.403737400906384,0.6293152802021192,26.18070010329837,0.19928400206676908,0.05217394693495174,0.087890625,,
3.2940400000009684,1200,,,,0,-0.005859375,-0.962890625,0.005340878274648418,0.1254124676004485,15.20316988389081,0.15886374683303864,1125,0,2.415232531494107,0.6293228393315067,26.056407866541782,0.19928160836124575,0.051925628677610615,0.087890625,,
3.301560000001453,1200,,,,-0.03125,0.015625,-1,0.005340878274648418,0.1254124676004485,15.203204768690176,0.15812714044600554,1125,0,2.4040392956880527,0.6293251489861246,26.1778228881241,0.19928087698782496,0.052167395027773275,0.087890625,,
3.3096450000004842,1200,,,,-0.09375,0.1171875,-1.02734375,0.005340878274648418,0.1254124676004485,15.203243721042044,0.15666634311278763,1126,0,2.381836597228107,0.6297269081063112,26.43871157405021,0.19915373789184856,0.052653682350165786,0.087890625,,
3.3186000000005587,1200,,,,-0.0625,-0.0234375,-0.9765625,0.005340878274648418,0.1254124676004485,15.203358650260508,0.1574930838816932,1127,0,2.3944238391889443,0.6303201713793459,26.324502832917513,0.19896629252083928,0.052376887311199286,0.087890625,,
3.3266800000006334,1200,,,,-0.0625,0.0546875,-0.921875,0.005340878274648418,0.1254124676004485,15.203654570763305,0.1569073916452625,1127,0,2.385565782174043,0.6305219493139753,26.43070897585395,0.19890261986422614,0.05257137260166268,0.087890625,,
3.336750000000931,1200,,,,0,0.052734375,-0.896484375,0.005340878274648418,0.1344651114812632,15.203573703093282,0.15423563351199834,1127,0,2.344932821742951,0.6306003012133171,26.892041228908298,0.21323350341340358,0.057342841651778075,0.087890625,,
3.3447350000012666,1200,,,,-0.0625,0.017578125,-0.998046875,0.005340878274648418,0.1344651114812632,15.203518250963588,0.15371138430040496,1128,0,2.3369538365920848,0.6306348862372038,26.98533776588592,0.21322180934767723,0.05753862544300402,0.087890625,,
3.3614550000010057,1200,,,,-0.09375,0.0546875,-1.00390625,0.005340878274648418,0.1344651114812632,15.203498437115943,0.15354564325564796,1128,0,2.334430947263206,0.6306492941570506,27.01511881927366,0.21321693804635788,0.057600809156040676,0.08984375,,
3.3701950000012295,1200,,,,-0.0625,0.091796875,-0.955078125,0.005340878274648418,0.1344651114812632,15.203524728899772,0.15358765664983934,1128,0,2.3350737359296,0.6306507392357387,27.007744103835535,0.21321644947917806,0.05758495306262019,0.08984375,,
3.3782550000008196,1200,,,,0.03125,0.015625,-0.916015625,0.005173887402419886,0.1344651114812632,15.203548415714192,0.15297713775642158,1128,0,2.325795320377135,0.6109329708966771,26.267701441484213,0.22009797782546645,0.057814679693937665,0.08984375,,
3.3871250000009314,1200,,,,-0.0625,-0.015625,-0.97265625,0.005173887402419886,0.1344651114812632,15.20328138745658,0.15305199095979882,1128,0,2.326892485472282,0.6109331787259065,26.255324753515946,0.2200979029518228,0.057787419195679444,0.08984375,,
3.3946000000005587,1200,,,,-0.0625,0.1171875,-1.0546875,0.005173887402419886,0.1344651114812632,15.203225323998735,0.1525386854063105,1128,0,2.319080004858696,0.6109332451805702,26.343776148326327,0.2200978790105293,0.05798209255374796,0.08984375,,
3.402620000001043,1200,,,,-0.0625,0.03515625,-1.015625,0.005173887402419886,0.1344651114812632,15.203263177729697,0.15093232457882919,1128,0,2.2946638525984606,0.6109332756187263,26.62408591685052,0.22009786804472686,0.05859904548938437,0.08984375,,
3.410635000000708,1200,,,,-0.0625,-0.013671875,-0.99609375,0.005173887402419886,0.1344651114812632,15.203201107401746,0.15110016691074693,1128,0,2.2972062249060565,0.6109332877348573,26.59462094047918,0.2200978636797092,0.058534192543711255,0.08984375,,
3.418495000000112,1200,,,,0,0.107421875,-0.96875,0.005173887402419886,0.1344651114812632,15.20324028672106,0.1512592731543133,1128,0,2.2996310753598017,0.6109332924935106,26.56657839770771,0.22009786196533312,0.05847247105069872,0.08984375,,
3.4268400000007824,1200,,,,0,-0.0234375,-0.98828125,0.005173887402419886,0.1344651114812632,15.203147640285133,0.15056520185622319,1127,0,2.2890649933094944,0.6106236248125918,26.675678785763164,0.2202094809589659,0.05874237379641004,0.08984375,,
3.435745000001043,1200,,,,-0.0625,0.04296875,-0.978515625,0.005173887402419886,0.1344651114812632,15.203194489321916,0.1502957605757185,1126,0,2.2849756789532094,0.6103279256294104,26.710477982374552,0.22031617075786578,0.05884750228189045,0.08984375,,
3.444280000001192,1200,,,,-0.0625,0.0859375,-1.05859375,0.005173887402419886,0.1344651114812632,15.203165274155864,0.1505202046626592,1126,0,2.288383548586174,0.6102215281794923,26.66605117645177,0.22035458480532538,0.05875986635384589,0.08984375,,
3.4512150000007824,1200,,,,-0.0625,0.021484375,-0.92578125,0.005173887402419886,0.1344651114812632,15.20320098043652,0.1506837802727394,1126,0,2.2908757959783927,0.61018853654458,26.635601005334266,0.2203664989229755,0.05869594140254797,0.08984375,,
3.4586450000014155,1200,,,,0,0.07421875,-0.89453125,0.005173887402419886,0.1344651114812632,15.203494349993484,0.14971829055222347,1126,0,2.276241184501412,0.6101739922788106,26.806210011197173,0.22037175163608283,0.05907331454892221,0.08984375,,
3.4684000000013038,1200,,,,0.0625,0.00390625,-0.93359375,0.005173887402419886,0.1344651114812632,15.203449427463081,0.15020511729420846,1126,0,2.2836359045286585,0.6098398285030338,26.704774929036002,0.22049250507519824,0.05888202721572497,0.08984375,,
3.4787900000009686,1200,,,,-0.041015625,0.017578125,-1,0.005173887402419886,0.1344651114812632,15.203399621457342,0.14991607753672662,1125,0,2.2792340364722388,0.6097097523446549,26.750642653983604,0.22053954519207553,0.0589957456450528,0.08984375,,
3.4895000000009313,1200,,,,-0.09375,0.048828125,-1.0390625,0.005173887402419886,0.13843536723971098,15.203356265981052,0.1488931589431502,1125,0,2.263675740980055,0.6096701254700251,26.932749882545863,0.2270660172711993,0.06115512249991051,0.08984375,,
3.498155000000261,1200,,,,-0.0625,0.076171875,-0.97265625,0.005173887402419886,0.13843536723971098,15.203526784840092,0.1488250337919861,1125,0,2.2626653875111926,0.6096563286101399,26.944166467350627,0.22707115590074842,0.06118243024523491,0.08984375,,
3.5066650000009685,1200,,,,0,0.08984375,-0.90234375,0.005173887402419886,0.13843536723971098,15.203482861334292,0.1486635950149787,1125,0,2.2602044189145705,0.6096524816675017,26.973333764221124,0.22707258873295658,0.06124904724599756,0.08984375,,
3.5149700000006705,1200,,,,0,-0.025390625,-0.939453125,0.005173887402419886,0.13843536723971098,15.203508184678162,0.1492601274395111,1125,0,2.2692775691727123,0.609651047671594,26.86542430743051,0.2270731228436815,0.06100415794008794,0.08984375,,
3.5234000000003727,1200,,,,-0.0625,0.076171875,-1.01953125,0.005173887402419886,0.13843536723971098,15.203461662414863,0.14834095745695683,1125,0,2.2552960596627574,0.6096504444304457,27.03194739415316,0.2270733475295693,0.061382347850335764,0.08984375,,
3.5319150000009687,1200,,,,-0.0625,-0.001953125,-0.986328125,0.004782261355568624,0.13843536723971098,15.203390139470255,0.1476784192735964,1125,0,2.2452126233967493,0.5635041058275451,25.098028576689007,0.24566878183861496,0.06165802106985936,0.08984375,,
3.5414000000003725,1200,,,,-0.0625,0.08984375,-0.939453125,0.004782261355568624,0.13843536723971098,15.20327218284022,0.1475629655154112,1126,0,2.2434399288378617,0.5636850426785223,25.125925389520916,0.2455899247954015,0.061706741268273115,0.08984375,,
3.549890000000596,1200,,,,0.0625,0.00390625,-0.97265625,0.004782261355568624,0.13843536723971098,15.20316961465316,0.14746246313352843,1126,0,2.241896838813571,0.5638321092528042,25.14977939623611,0.24552586659735798,0.06174921380993249,0.08984375,,
3.5578150000004096,1200,,,,-0.03125,-0.015625,-0.9921875,0.004782261355568624,0.13843536723971098,15.203210191663423,0.14695050763004502,1126,0,2.2341194552712142,0.5638843516667223,25.239668825061496,0.24550311926643367,0.061964174258043604,0.08984375,,
3.5657850000010805,1200,,,,-0.0625,0.123046875,-1.046875,0.004782261355568624,0.13843536723971098,15.20305336704718,0.14667565019862647,1126,0,2.229917737616063,0.5639050052701553,25.288152820965,0.24549412746104182,0.062080930118842866,0.091796875,,
3.5739000000003727,1200,,,,-0.0625,-0.05078125,-1.01953125,0.004782261355568624,0.13843536723971098,15.202968834595291,0.1474804924322882,1126,0,2.242141330158844,0.5639132089564695,25.150654036448234,0.24549055606604403,0.06174248044832372,0.091796875,,
3.5809500000011174,1200,,,,-0.0625,0.07421875,-0.96875,0.004782261355568624,0.13843536723971098,15.203018412136297,0.14718470273154388,1126,0,2.237651745612469,0.5637035216083124,25.191744993992383,0.24558187404034412,0.06186635945971107,0.091796875,,
3.5890550000006334,1200,,,,0,0.08203125,-0.90625,0.004782261355568624,0.13843536723971098,15.20300114752953,0.1462565185324451,1125,0,2.2235380190824365,0.5636184305082436,25.347820710564058,0.24561895024418687,0.06225905113906602,0.091796875,,
3.5972900000009687,1200,,,,0,-0.037109375,-0.931640625,0.004782261355568624,0.13843536723971098,15.203309024609283,0.1466120950388732,1125,0,2.2289889876213747,0.5635868987735325,25.284418267806437,0.24563269220943829,0.062106797300707964,0.091796875,,
3.6055250000003727,1200,,,,-0.0625,0.080078125,-1.029296875,0.004782261355568624,0.13843536723971098,15.203455966771033,0.14774489912509636,1125,0,2.2462330681634306,0.5635717009402063,25.089636018981544,0.24563931618418625,0.061630010350127544,0.091796875,,
3.6140400000009687,1200,,,,-0.0625,0.02734375,-1.03125,0.004782261355568624,0.13843536723971098,15.203482624150489,0.14764293431512038,1125,0,2.2446867864385247,0.5635187201424013,25.104559065743597,0.2456624106555472,0.06167246498535144,0.091796875,,
3.6225700000012293,1200,,,,-0.09375,0.048828125,-0.986328125,0.004782261355568624,0.13843536723971098,15.203875843487992,0.14729700833376677,1125,0,2.2394854268238062,0.5633956421597289,25.157370323180707,0.2457160774425426,0.06181570354581392,0.091796875,,
3.6306950000012295,1200,,,,0.03125,0.0703125,-0.955078125,0.004782261355568624,0.13843536723971098,15.203684988630577,0.1466822523760709,1125,0,2.2301107585485913,0.5633536566896776,25.261241152718416,0.24573439010438136,0.062075556879429596,0.091796875,,
3.6406800000006334,1200,,,,0,-0.04296875,-0.99609375,0.004782261355568624,0.13788021888591828,15.203700357770485,0.14663258491661585,1125,0,2.2293578837575634,0.5633372390525199,25.26903567869596,0.24475608805450144,0.06184750321627246,0.091796875,,
3.6525600000005216,1200,,,,-0.041015625,0.08203125,-1.02734375,0.004782261355568624,0.13788021888591828,15.204192090874766,0.14616938852011305,1125,0,2.222387460865504,0.563328997362542,25.347920076148867,0.24475966891720755,0.06204148525578035,0.091796875,,
3.6689950000001117,1200,,,,0,0.12890625,-0.93359375,0.004782261355568624,0.13788021888591828,15.204212239335064,0.14678138876081268,1125,0,2.231695387503746,0.5633268638850051,25.24210369566216,0.24476059589102875,0.06178272342093409,0.091796875,,
3.6771450000014156,1200,,,,0,0.029296875,-0.921875,0.004598546459806574,0.13788021888591828,15.203994521671435,0.14717247019488733,1125,0,2.2376094305839196,0.5416859240517806,24.20824280805895,0.2545390470082403,0.06161943054107414,0.091796875,,
3.685545000000857,1200,,,,-0.0625,0.041015625,-1.013671875,0.004598546459806574,0.13788021888591828,15.203785206761614,0.14732106617954943,1125,0,2.239837846624982,0.5416858368533879,24.184154119442503,0.2545390879829055,0.06155812533200922,0.091796875,,
3.694225000000559,1200,,,,-0.09375,0.0390625,-1.0078125,0.004598546459806574,0.13788021888591828,15.203890048357634,0.14826944049221275,1125,0,2.254272270775108,0.5417533983142883,24.03229660133343,0.2545073446976877,0.06116395994992638,0.091796875,,
3.702870000000112,1200,,,,-0.0625,-0.03515625,-0.94921875,0.004598546459806574,0.13788021888591828,15.203819756992514,0.14861876211620126,1125,0,2.2595728717220713,0.5418209469898548,23.9789100750232,0.25447561533367585,0.06102047896372409,0.091796875,,
3.7102250000014902,1200,,,,-0.03125,0.1015625,-0.955078125,0.004598546459806574,0.13788021888591828,15.203768580938299,0.14925810384853258,1125,0,2.2692856697427453,0.5418413111284178,23.877175022651205,0.2544660513218792,0.06075930444735453,0.091796875,,
3.720084999999963,1200,,,,0.03125,-0.041015625,-0.96875,0.004598546459806574,0.13788021888591828,15.203782718853349,0.14996456403107933,1125,0,2.2800286470561004,0.5418515063882536,23.765118350064366,0.25446126339108627,0.060473020399960664,0.091796875,,
3.735210000000894,1200,,,,-0.0625,0.1015625,-1.0625,0.004598546459806574,0.13788021888591828,15.20379784474046,0.1499215341389027,1125,0,2.279376697621232,0.5418183164221688,23.770459572900474,0.25447685083146226,0.06049031694928298,0.09375,,
3.7557750000013037,1200,,,,0,0.07421875,-0.96875,0.004598546459806574,0.13788021888591828,15.203656895732259,0.1482956901492742,1125,0,2.254636792145387,0.5418016162837095,24.03054976177166,0.25448469465937984,0.06115407118621494,0.091796875,,
3.770160000000149,1200,,,,0,0,-0.96875,0.004598546459806574,0.13788021888591828,15.203432335984484,0.15073406429556543,1125,0,2.291675147245564,0.5418000341437437,23.64209581776676,0.25448543779408034,0.06016569104553969,0.091796875,,
3.7775550000006333,1200,,,,-0.09375,0.099609375,-1.01953125,0.004598546459806574,0.13788021888591828,15.203533904371143,0.15151300851623467,1125,0,2.3035331619298476,0.5417997376067027,23.52037932689431,0.2544855770786784,0.05985597306114116,0.091796875,,
3.7953500000005587,1200,,,,-0.0625,0.08984375,-0.900390625,0.004598546459806574,0.1351744026548013,15.20357615449684,0.15139015844446235,1125,0,2.3016718029517262,0.5417995671247595,23.53939282003373,0.2494915294453804,0.05872879116885821,0.09375,,
3.8047050000010056,1200,,,,0.03125,-0.017578125,-0.947265625,0.004598546459806574,0.1351744026548013,15.203605807126003,0.15045971787971116,1125,0,2.2875302404945166,0.5417995421675892,23.684912775206126,0.2494915409378275,0.05909185385264214,0.09375,,
3.81231500000041,1200,,,,-0.0625,0.09375,-1.025390625,0.004598546459806574,0.1351744026548013,15.20362594954143,0.14910421199454738,1126,0,2.266924666666227,0.542187387273404,23.917309438903974,0.24931307114054665,0.05962897869631934,0.09375,,
3.819300000000745,1200,,,,-0.0625,0.10546875,-1.03125,0.004598546459806574,0.1351744026548013,15.203641882293823,0.14821937164788015,1126,0,2.2534742465529845,0.5423208859646973,24.06598996168941,0.24925169978351258,0.059984889049240354,0.09375,,
3.8266600000010804,1200,,,,-0.0625,-0.048828125,-0.947265625,0.004598546459806574,0.1351744026548013,15.20365713724466,0.14820304879468213,1126,0,2.2532283405686875,0.5423797461603295,24.071228663111853,0.249224650462599,0.05999143549769346,0.09375,,
3.8348750000009315,1200,,,,-0.0625,0.109375,-0.96875,0.004647299835729118,0.1351744026548013,15.203874798007401,0.1475324842405306,1126,0,2.243065419032027,0.5481586802933672,24.43792658218233,0.24659721265830864,0.0602632457831455,0.09375,,
3.8427900000009685,1200,,,,0,0.02734375,-0.890625,0.004647299835729118,0.1351744026548013,15.20375038839464,0.14722844790594317,1126,0,2.2384245720327236,0.5479780886826082,24.480525076839502,0.24667848121404543,0.06038818745277121,0.09375,,
3.8508300000010056,1200,,,,0,-0.02734375,-1.03125,0.004647299835729118,0.1351744026548013,15.203828085790478,0.1477903908964699,1125,0,2.2469796959217025,0.5477150269174976,24.37561086607091,0.24679695829335466,0.06015826618288746,0.09375,,
3.8588200000012294,1200,,,,-0.0625,0.076171875,-1.029296875,0.004647299835729118,0.1351744026548013,15.204032821986441,0.14811211071687105,1125,0,2.2519013926729974,0.5476112181251517,24.317726340367837,0.24684374275164753,0.06002678585066722,0.09375,,
3.8667949999999256,1200,,,,-0.0625,0.009765625,-0.990234375,0.004647299835729118,0.1351744026548013,15.203933278217706,0.14841767060403363,1125,0,2.2565323611722206,0.54757031331754,24.266007558300156,0.24686218256761605,0.059903595880442445,0.09375,,
3.875070000000298,1200,,,,-0.0625,0.0078125,-0.89453125,0.004647299835729118,0.1351744026548013,15.203871301290897,0.14828303981210722,1125,0,2.2544762534674727,0.5475541844516004,24.287423014965924,0.2468694541896057,0.059958228633767055,0.09375,,
3.8837700000004842,1200,,,,0,0.12109375,-0.931640625,0.004647299835729118,0.1351744026548013,15.20373301913066,0.14790350846746167,1126,0,2.248685455332018,0.5478172802035022,24.361667787041256,0.24675089220366864,0.06011263262021803,0.09375,,
3.8918750000009315,1200,,,,-0.03125,-0.025390625,-0.9375,0.004647299835729118,0.1351744026548013,15.203548975830573,0.14886271281024485,1126,0,2.2632415448855587,0.5480355571159113,24.214629603029085,0.24665261386719012,0.05972601685412964,0.09375,,
3.8999700000006707,1200,,,,0,0.0625,-1.03125,0.004647299835729118,0.1351744026548013,15.203636391127139,0.14976856846143835,1126,0,2.2770268577073405,0.5481210212265878,24.07178551150125,0.2466141553051685,0.059364430506060745,0.09375,,
3.9078250000011177,1200,,,,-0.09375,0.064453125,-1.009765625,0.004647299835729118,0.1351744026548013,15.203852144532878,0.14902940574636261,1126,0,2.265821050155296,0.5481549602267569,24.192332408121427,0.24659888619612835,0.05965802226329244,0.09375,,
3.9159850000012666,1200,,,,-0.0625,0.009765625,-0.97265625,0.004647299835729118,0.1351744026548013,15.203956003831243,0.14865687761121285,1126,0,2.260172626867806,0.5481681082681128,24.253373470316536,0.24659297141869946,0.05980711430972809,0.09375,,
3.9237700000004843,1200,,,,-0.0625,0.1484375,-0.9140625,0.004647299835729118,0.1351744026548013,15.203958167828006,0.14872397325221814,1127,0,2.261193067879896,0.5485252298009468,24.258221803025705,0.24643242518462544,0.05978012429586182,0.09375,,
3.933115000001155,1200,,,,0.03125,0.03125,-0.962890625,0.004647299835729118,0.13651358118563856,15.203813359654236,0.1490343432071104,1127,0,2.2658903382995597,0.5486721603885227,24.21441810817175,0.2488071949722605,0.06024721447379724,0.09375,,
3.941455000001006,1200,,,,-0.0625,0.029296875,-0.9921875,0.004647299835729118,0.13651358118563856,15.203822926846948,0.14997171058071043,1128,0,2.2801433317054602,0.5487226619349661,24.06527056018634,0.24878429606725075,0.05987061395983891,0.09375,,
3.951695000001229,1200,,,,-0.0625,0.068359375,-1.02734375,0.004647299835729118,0.13651358118563856,15.203832281930106,0.14997353210009953,1128,0,2.2801724287785743,0.5487422600360572,24.06582296629222,0.24877541083981466,0.059869849956375946,0.09375,,
3.959925000000745,1200,,,,-0.0625,-0.05078125,-0.95703125,0.004647299835729118,0.13651358118563856,15.203782214694934,0.15043297339032652,1126,0,2.2871501653355226,0.5482098780626219,23.9691248249194,0.24901700361197182,0.05968719643102759,0.09375,,
3.968020000000484,1200,,,,-0.03125,0.130859375,-0.962890625,0.004647299835729118,0.13651358118563856,15.203793445849978,0.1516393899962896,1126,0,2.3054939637582765,0.5477962336868263,23.76047139129534,0.24920503791503434,0.05921229173946844,0.09375,,
3.9761150000011547,1200,,,,0,-0.005859375,-0.947265625,0.004725903042763945,0.13651358118563856,15.203865714658605,0.15237687838136663,1125,0,2.316717596929164,0.5569097023950239,24.03873925476347,0.24512695792253866,0.058925430258132835,0.09375,,
3.984210000000894,1200,,,,-0.0625,0.05859375,-1.0234375,0.004725903042763945,0.13651358118563856,15.203873105697266,0.15177074931742754,1125,0,2.3075032137787583,0.5568423741438014,24.131813590496307,0.24515659641660942,0.05916073285206153,0.09375,,
3.9931050000013784,1200,,,,-0.0625,0.06640625,-1.0234375,0.004725903042763945,0.13651358118563856,15.203946132658842,0.15255007204183196,1125,0,2.319363077857239,0.5568192992299006,24.007422750918426,0.24516675584779715,0.05885821952109268,0.09375,,
4.001020000001415,1200,,,,-0.0625,0.01171875,-1.005859375,0.004725903042763945,0.13651358118563856,15.204046309381523,0.15263768494721391,1126,0,2.3207104304942274,0.5571638431704232,24.008331063163595,0.24501514744538488,0.05882404775358643,0.09375,,
4.00906500000041,1200,,,,-0.0625,0.078125,-0.89453125,0.004725903042763945,0.13651358118563856,15.203911879994964,0.1518621023217098,1126,0,2.3088980216100543,0.5573015177594092,24.137121368867927,0.2449546194212455,0.059124993788354535,0.09375,,
4.016395000001416,1200,,,,0,0.04296875,-0.89453125,0.004725903042763945,0.13651358118563856,15.203916079244292,0.15228871283927642,1126,0,2.3153848098244914,0.5573541275633983,24.071770929759463,0.24493149765022654,0.05895934904919171,0.09375,,
4.027920000000857,1200,,,,-0.0625,0.033203125,-0.9921875,0.004725903042763945,0.13651358118563856,15.203838321955402,0.15214658912402804,1126,0,2.3132121422787004,0.557378479478632,24.095432895729537,0.24492079657135743,0.059014726185537686,0.09375,,
4.036790000000969,1200,,,,-0.0625,0.107421875,-1.033203125,0.004725903042763945,0.13651358118563856,15.203909679786882,0.1516821964964354,1126,0,2.3061624155634903,0.5572084518529004,24.161717669687693,0.24499553215979808,0.05919512878379933,0.09375,,
4.044875000000931,1200,,,,-0.09375,0.0078125,-0.96484375,0.004725903042763945,0.13651358118563856,15.203621837542812,0.15181190056527308,1125,0,2.308090726633064,0.5570001913063518,24.132508522265844,0.24508713518655809,0.059145673785873334,0.09375,,
4.052555000000633,1200,,,,0,0.07421875,-0.908203125,0.004725903042763945,0.13651358118563856,15.203256561661801,0.15151708885987883,1125,0,2.303553175412847,0.5569181988447055,24.176485474223693,0.24512321821917127,0.05926217924670758,0.09375,,
4.061045000000857,1200,,,,0,-0.0234375,-0.9140625,0.004725903042763945,0.13651358118563856,15.203391006717402,0.15293041654779604,1125,0,2.3250609195963086,0.5568849073273493,23.951411450502512,0.24513787209785673,0.05871398036716426,0.09375,,
4.069230000000447,1200,,,,-0.03125,0.041015625,-1.041015625,0.004725903042763945,0.13651358118563856,15.203354345060282,0.15278220163565756,1125,0,2.3228019490853504,0.5568715127981095,23.974128014546775,0.24514376844256125,0.058771080866103755,0.09375,,
4.078115000001155,1200,,,,-0.0625,0.0703125,-1.01953125,0.004725903042763945,0.13651358118563856,15.203244966809866,0.15122217233510546,1126,0,2.2990677304237463,0.557201690500415,24.235984139437072,0.24499850505305829,0.05937779882651714,0.09375,,
4.086915000000968,1200,,,,-0.0625,0.009765625,-0.99609375,0.004725903042763945,0.13970846464155892,15.203176903111405,0.1513931532210291,1126,0,2.3016568903391557,0.5573222075928251,24.213956907830088,0.2506780866403744,0.060699083876473214,0.09375,,
4.096685000000521,1200,,,,-0.03125,0.099609375,-0.931640625,0.004725903042763945,0.13970846464155892,15.203282485909433,0.1511129515866795,1126,0,2.2974128902518447,0.5573632040348023,24.26047169839391,0.25065964819743536,0.06081121301023254,0.09375,,
4.1071550000011925,1200,,,,0.03125,-0.01953125,-0.953125,0.004725903042763945,0.13970846464155892,15.203655199498193,0.150242462209143,1126,0,2.284234591751448,0.557381308626962,24.401228780954025,0.2506515063910431,0.06116204751738603,0.09375,,
4.115455000001006,1200,,,,-0.0625,0.09375,-1.033203125,0.004725903042763945,0.13970846464155892,15.203493624061617,0.15088865355594389,1126,0,2.294034682281035,0.5570328669002813,24.28179796943632,0.2508082968586649,0.06090076393380511,0.09375,,
4.124085000000894,1200,,,,-0.0625,0.01171875,-1.041015625,0.004725903042763945,0.13970846464155892,15.203521287645895,0.1514327092031546,1125,0,2.3023104180160514,0.5569243321571933,24.189802026657485,0.25085717497817256,0.0606818539968857,0.09375,,
4.133030000000261,1200,,,,-0.0625,0.01953125,-0.98828125,0.005035790141557014,0.13970846464155892,15.203350628702092,0.1509430619179155,1125,0,2.2948402953079596,0.5934037869410405,25.858173579848515,0.23543574833208827,0.06087938447272669,0.09375,,
4.143615000000223,1200,,,,0,0.0625,-0.94140625,0.005035790141557014,0.13970846464155892,15.20339753796038,0.14907317137068946,1125,0,2.2664186865930858,0.5934636975267902,26.185086676058678,0.23541198092449825,0.06164283125090658,0.09375,,
4.152140000000596,1200,,,,-0.03125,0.015625,-0.99609375,0.005035790141557014,0.13970846464155892,15.203227504127893,0.14966302843049875,1126,0,2.2753610701856335,0.593678315555805,26.09160907843827,0.23532687817772674,0.06140056911062512,0.09375,,
4.1601250000009315,1200,,,,-0.125,0.1171875,-1.01171875,0.005035790141557014,0.13970846464155892,15.203265296819584,0.14989229276205837,1126,0,2.2788522928101234,0.5937605719422532,26.055246047126147,0.2352942772615532,0.061306502875304876,0.09375,,
4.168090000000782,1200,,,,-0.0625,0.01953125,-1,0.005035790141557014,0.13970846464155892,15.203204028753284,0.14947752702286832,1126,0,2.2725373410421494,0.5937929158773668,26.129071903613376,0.23528146076840742,0.06147686206004908,0.09375,,
4.177290000000968,1200,,,,-0.03125,0.103515625,-0.921875,0.005035790141557014,0.13970846464155892,15.203028055398924,0.14974514353791857,1126,0,2.276579618366715,0.5938066599443245,26.083281039401502,0.23527601501582696,0.06136770421488262,0.09375,,
4.186655000001192,1200,,,,0,0.009765625,-0.95703125,0.005035790141557014,0.13970846464155892,15.203156070057728,0.14951874386480987,1125,0,2.273156798375691,0.5933833713295882,26.103934922289422,0.2354438486008052,0.06146010901728782,0.09375,,
4.19485000000149,1200,,,,-0.0625,0.01171875,-1.015625,0.005035790141557014,0.13970846464155892,15.203129157675725,0.1495455746093267,1125,0,2.273560685744425,0.5930200312696496,26.08331657861505,0.23558810373141117,0.06144919091782,0.09375,,
4.203085000000894,1200,,,,-0.0625,0.125,-1.05859375,0.005035790141557014,0.13970846464155892,15.20297563881233,0.14914219447951121,1124,0,2.2674051493910197,0.592897352964697,26.148716876820078,0.23563685002634444,0.06161601277084595,0.09375,,
4.211290000000969,1200,,,,-0.09375,0.01171875,-0.970703125,0.005035790141557014,0.13970846464155892,15.20282947591211,0.15003763336986928,1124,0,2.280996555091543,0.5928489347931832,25.99078606540861,0.23565609456698539,0.061248871389002174,0.095703125,,
4.2188450000006705,1200,,,,0,0.12890625,-0.9921875,0.005035790141557014,0.13970846464155892,15.202821596738936,0.1504576731305932,1124,0,2.2873811624648694,0.5928300019517271,25.917412090291798,0.23566362056847304,0.06107791168963281,0.09375,,
4.226225000000559,1200,,,,0,-0.001953125,-0.8984375,0.005035790141557014,0.13970846464155892,15.202698543163493,0.14949129125940527,1125,0,2.27267103584499,0.593070252129606,26.095736812569513,0.23556815426147507,0.06147324555030229,0.09375,,
4.23422000000067,1200,,,,0,-0.0546875,-0.9609375,0.005035790141557014,0.1460268490141323,15.202664585851947,0.14972751350034919,1125,0,2.276257167019428,0.5931805167435371,26.059468382487662,0.24617607101425973,0.06415217539121139,0.09375,,
4.24206500000041,1200,,,,-0.0625,0.10546875,-1.0390625,0.005035790141557014,0.1460268490141323,15.202796649932905,0.14974129234189332,1125,0,2.2764864175719595,0.5932247167462794,26.058785686891877,0.24615772892110893,0.06414571503127203,0.095703125,,
4.2499450000012295,1200,,,,-0.0625,0.001953125,-1,0.005035790141557014,0.1460268490141323,15.202661368702673,0.14996411275234664,1125,0,2.279853623631872,0.5932418373483643,26.021049386640584,0.24615062495732612,0.06405097568567027,0.095703125,,
4.26003500000108,1200,,,,-0.0625,0.07421875,-0.96875,0.005035790141557014,0.1460268490141323,15.202992217146676,0.1497510020315936,1125,0,2.2766633183962335,0.5932487488580018,26.057816457284005,0.2461477572354473,0.06414073079413386,0.095703125,,
4.281035000000149,1200,,,,-0.03125,0.013671875,-1.017578125,0.005045084183579111,0.1460268490141323,15.203234658340246,0.1480043776111393,1125,0,2.25014528328375,0.5943476780272102,26.413746811932466,0.24569263818583797,0.06489663138596453,0.095703125,,
4.28984500000067,1200,,,,-0.0625,0.099609375,-1.046875,0.005045084183579111,0.1460268490141323,15.203274585802822,0.14833525442002088,1125,0,2.255181603702499,0.5943479374381402,26.35477056314911,0.24569253095007296,0.06475170282268584,0.095703125,,
4.298395000001416,1200,,,,-0.0625,0.009765625,-0.943359375,0.005045084183579111,0.1460268490141323,15.203314238396285,0.1481892409635788,1125,0,2.2529675971187157,0.5943480368856423,26.380673989530273,0.2456924898403073,0.06481533476153127,0.095703125,,
4.306155000000261,1200,,,,0,0.076171875,-0.9375,0.005045084183579111,0.1460268490141323,15.203351692768067,0.14781441893250716,1124,0,2.2472745962930607,0.5939493656468389,26.429763706961946,0.2458574037790278,0.06497953087486837,0.095703125,,
4.313885000000708,1200,,,,-0.03125,0.001953125,-1.005859375,0.005045084183579111,0.1460268490141323,15.203203502791613,0.14752765193522896,1124,0,2.242892914660295,0.5938209058531092,26.47566907772092,0.2459105894972554,0.06510647390236608,0.095703125,,
4.32066000000108,1200,,,,-0.0625,0.1484375,-1.05859375,0.005045084183579111,0.1460268490141323,15.203352757396495,0.1485701043258871,1124,0,2.2587637052696605,0.5937666709026956,26.2872415347142,0.2459330510958616,0.06464901515526122,0.095703125,,
4.329140000001527,1200,,,,-0.0625,0.015625,-1.0078125,0.005045084183579111,0.1460268490141323,15.20328628312704,0.1482139443469593,1124,0,2.253339027058281,0.593741222630415,26.3493959630895,0.24594359200326124,0.06480465090278464,0.095703125,,
4.337090000000782,1200,,,,-0.0625,0.046875,-0.98046875,0.005045084183579111,0.1460268490141323,15.203125740399052,0.14936122474321914,1124,0,2.2707574805111626,0.5937312276083677,26.146835701482086,0.24594773228005676,0.06430754947078746,0.095703125,,
4.346035000001081,1200,,,,-0.03125,0.12109375,-0.927734375,0.005045084183579111,0.1460268490141323,15.20310053859731,0.149396670199053,1124,0,2.2712925971678675,0.5937669726431211,26.14224928058605,0.24593292611763462,0.06429239860871157,0.095703125,,
4.35347500000149,1200,,,,0,-0.044921875,-0.962890625,0.005045084183579111,0.1460268490141323,15.203139472177547,0.1490474908928281,1124,0,2.265989792021778,0.5937782507931147,26.203924346160868,0.2459282548983277,0.06444285385939146,0.095703125,,
4.36259500000067,1200,,,,-0.0625,0.0703125,-1.015625,0.005045084183579111,0.1460268490141323,15.203113487587592,0.14933905883747647,1124,0,2.2704186596356757,0.5937838281591622,26.153054443907898,0.24592594491305372,0.06431714626480588,0.095703125,,
4.369660000001081,1200,,,,-0.0625,0.046875,-1.0234375,0.005045084183579111,0.1460268490141323,15.20306007283758,0.14864151473833198,1124,0,2.2598058778844337,0.5937856930788573,26.275960200384237,0.2459251725264106,0.06461920045576591,0.095703125,,
4.377165000000969,1200,,,,-0.09375,0.08203125,-0.974609375,0.005045084183579111,0.1460268490141323,15.203013251790326,0.14803089258873459,1125,0,2.2505156217008824,0.594107115061032,26.39871100348199,0.24579212285503615,0.06488595218182441,0.095703125,,
4.386035000001081,1200,,,,0,0.109375,-0.89453125,0.005045084183579111,0.14873904157149148,15.202848116386024,0.14718748376979868,1125,0,2.237668960385282,0.594261478618386,26.55716681684971,0.25029224831685,0.06647052991514955,0.095703125,,
4.394165000000968,1200,,,,-0.03125,-0.0234375,-0.939453125,0.005045084183579111,0.14873904157149148,15.20280662854344,0.14626254536181238,1125,0,2.2236011941341967,0.5943139074123014,26.727540396186438,0.2502701681996897,0.0668910603051758,0.095703125,,
4.402310000000521,1200,,,,-0.0625,0.126953125,-1.046875,0.005045084183579111,0.14873904157149148,15.202865451825952,0.1462331198471473,1125,0,2.2231624456369197,0.5943346603412812,26.733748651957313,0.2502614292864595,0.06690426147823798,0.095703125,,
4.413405000000261,1200,,,,-0.0625,0.015625,-0.97265625,0.005045084183579111,0.14873904157149148,15.203216410411464,0.14690876140012926,1125,0,2.2334856921516675,0.5943432238027644,26.610567772663607,0.25025782345059805,0.06659502771571424,0.095703125,,
4.421565000001341,1200,,,,-0.0625,-0.00390625,-0.962890625,0.005045084183579111,0.14873904157149148,15.20320199433547,0.14762412585328596,1125,0,2.2443594045847077,0.5943466317760728,26.481793894594603,0.2502563884765661,0.06627238100442023,0.095703125,,
4.42994000000041,1200,,,,-0.03125,0.095703125,-0.91015625,0.004827069817620525,0.14873904157149148,15.203062635047315,0.1496186493777171,1125,0,2.274661697860616,0.5686637884623554,24.999928077093834,0.2615588412507785,0.06538952219197465,0.095703125,,
4.439270000001415,1200,,,,0,-0.025390625,-0.984375,0.004827069817620525,0.14873904157149148,15.20311972990103,0.14832107250609408,1125,0,2.25494302377748,0.5686641958513969,25.21856161575075,0.2615586538709392,0.06596133028777103,0.095703125,,
4.447540000000968,1200,,,,-0.09375,0.119140625,-0.98046875,0.004827069817620525,0.14873904157149148,15.203295966246447,0.14775802632524063,1125,0,2.246409005611067,0.5686643166426263,25.314371302030036,0.2615585983126943,0.0662119147492607,0.095703125,,
4.456275000001304,1200,,,,-0.0625,0.021484375,-1.009765625,0.004827069817620525,0.14873904157149148,15.203189691799613,0.1478797906088191,1127,0,2.2482445082094835,0.5698090323887253,25.344620227384645,0.26103314113494314,0.0661578582882643,0.09765625,,
4.465075000000186,1200,,,,-0.0625,0.015625,-0.984375,0.004827069817620525,0.14873904157149148,15.203234156143148,0.148235035306648,1128,0,2.2536519519111162,0.570227430144543,25.30237331727223,0.2608416110985553,0.06599911820694385,0.095703125,,
4.4734050000011925,1200,,,,-0.0625,0.1484375,-0.953125,0.004827069817620525,0.14873904157149148,15.20327272165725,0.1485425931901942,1128,0,2.2583335550527095,0.5703709997804388,25.256277953463186,0.26077595394707614,0.0658622997646687,0.09765625,,
4.480295000000857,1200,,,,0,0.01171875,-0.958984375,0.004827069817620525,0.14873904157149148,15.203181278498977,0.14861161194732417,1128,0,2.259369276525114,0.5704245789189181,25.247071598504917,0.26075145964675156,0.06583210771116202,0.095703125,,
4.488550000000745,1200,,,,-0.0625,0.01953125,-1.03515625,0.004827069817620525,0.14873904157149148,15.203041484029896,0.14829114505120794,1128,0,2.254476429927809,0.570342880484776,25.2982409979349,0.26078881083790745,0.0659749818614224,0.095703125,,
4.497420000000857,1200,,,,-0.09375,0.111328125,-1.0234375,0.004827069817620525,0.14873904157149148,15.203242424277702,0.14886685310184816,1128,0,2.2632588566467344,0.5701871063405216,25.193190105762636,0.2608600578959129,0.0657189702957198,0.095703125,,
4.506305000001564,1200,,,,-0.0625,-0.01171875,-1.0234375,0.004827069817620525,0.14873904157149148,15.203211184438201,0.14845704172262897,1128,0,2.2570237571260816,0.5701321983642862,25.26035433008681,0.26088518066200256,0.06590052102990897,0.09765625,,
4.5141550000011925,1200,,,,-0.09375,0.076171875,-0.990234375,0.004827069817620525,0.14873904157149148,15.203353926511566,0.1487581658344976,1128,0,2.261623044640568,0.570112901265523,25.208131063951427,0.2608940110657452,0.06576650424745299,0.09765625,,
4.5219950000001115,1200,,,,0,0.07421875,-0.890625,0.004827069817620525,0.14873904157149148,15.203384179508008,0.1488166447806464,1128,0,2.2625166229055425,0.570105884515272,25.197865012065073,0.26089722209753313,0.06574052984436402,0.09765625,,
4.530475000000559,1200,,,,-0.03125,-0.015625,-0.9609375,0.004827069817620525,0.14873904157149148,15.20321754000757,0.149088993979458,1128,0,2.2666324082905787,0.5700301134859864,25.148767457881927,0.260931901758464,0.06562115719666503,0.09765625,,
4.538560000000522,1200,,,,-0.0625,0.09375,-1.0078125,0.004827069817620525,0.14890305488338546,15.203321938621782,0.14913421763018464,1128,0,2.2673355226961815,0.5699638927727644,25.138048033358423,0.2612499787644456,0.06567314514894501,0.09765625,,
4.546555000000633,1200,,,,-0.09375,0.072265625,-1.04296875,0.004827069817620525,0.14890305488338546,15.203550255622115,0.15002460439578166,1127,0,2.280906612511093,0.569938027911544,24.987346030975313,0.26126183478056253,0.06528239870349417,0.09765625,,
4.555275000001304,1200,,,,-0.0625,0.017578125,-1.0078125,0.004827069817620525,0.14890305488338546,15.20364796549515,0.15002359085157105,1127,0,2.2809058618267652,0.5699271625228215,24.986877891855208,0.2612668156124651,0.06528242018902516,0.09765625,,
4.565360000001267,1200,,,,0,0.125,-0.90234375,0.004827069817620525,0.14890305488338546,15.203729678508267,0.14981247616376356,1127,0,2.2777083900618242,0.5699234949953915,25.021793723994755,0.261268496896394,0.06537406435919733,0.09765625,,
4.573725000000559,1200,,,,0.03125,-0.0078125,-0.955078125,0.004827069817620525,0.14890305488338546,15.20383700729654,0.15069615462900338,1128,0,2.2911597726057233,0.5699637516498564,24.876647995684724,0.2612500434498868,0.06499025369760172,0.09765625,,
4.583180000000633,1200,,,,-0.0625,0.064453125,-1.00390625,0.0047678323221104395,0.14890305488338546,15.203845006463538,0.15044870089486848,1128,0,2.2873987298293725,0.5629795431354453,24.612217179006674,0.2644910577995218,0.06509711356467038,0.09765625,,
4.592670000000857,1200,,,,-0.0625,0.056640625,-1.0078125,0.0047678323221104395,0.14890305488338546,15.203687614081021,0.1501487902811624,1128,0,2.2828153030669576,0.5629841187342932,24.66183391963096,0.26448890817409,0.0652278152697393,0.09765625,,
4.601015000000596,1200,,,,-0.0625,0.005859375,-0.94921875,0.0047678323221104395,0.14890305488338546,15.203799839230914,0.15098448878570436,1128,0,2.2955379463264536,0.5629854075470867,24.52520588683936,0.2644883026935855,0.06486630078220872,0.09765625,,
4.609650000000372,1200,,,,0,0.08203125,-0.916015625,0.0047678323221104395,0.14890305488338546,15.203810785082839,0.15093088525289328,1127,0,2.294724621010039,0.5625689469905449,24.515749813279395,0.26468409904233137,0.06488929151675059,0.095703125,,
4.617000000000932,1200,,,,0.0625,-0.05859375,-0.9765625,0.0047678323221104395,0.14890305488338546,15.203690620152498,0.14899009507964872,1126,0,2.265199311058084,0.5624282811835012,24.829085830897085,0.2647502977091642,0.06573507865576393,0.095703125,,
4.624040000000969,1200,,,,-0.09375,0.06640625,-1.029296875,0.0047678323221104395,0.14890305488338546,15.203531208728553,0.14950312313064326,1126,0,2.2729753983191223,0.5623757495378781,24.74183178373853,0.2647750280941947,0.06551019205641208,0.09765625,,
4.632395000001416,1200,,,,-0.0625,0.1015625,-1.03515625,0.0047678323221104395,0.14890305488338546,15.203750426837741,0.14931492996584575,1126,0,2.270146930201475,0.5623512380638043,24.771578904537943,0.26478656897078073,0.06559181386121572,0.09765625,,
4.640380000000819,1200,,,,-0.09375,0.013671875,-0.994140625,0.0047678323221104395,0.14890305488338546,15.203762757000156,0.1489209602320211,1126,0,2.2641589489123035,0.5622220195963803,24.831384734118174,0.2648474262717122,0.06576528337593883,0.09765625,,
4.648490000001154,1200,,,,-0.0625,0.12109375,-0.953125,0.0047678323221104395,0.14890305488338546,15.20357724727993,0.14918849484995442,1125,0,2.268198805856706,0.5619321894145056,24.77437991606128,0.26498402776771357,0.06564814975605468,0.09765625,,
4.656495000001043,1200,,,,0,0.046875,-0.90234375,0.0047678323221104395,0.14890305488338546,15.203597687459704,0.14975202814430444,1125,0,2.2767695887871473,0.5618196173098361,24.676173648696782,0.2650371227626026,0.06540102064640949,0.09765625,,
4.665550000000745,1200,,,,-0.0625,0.048828125,-1.017578125,0.0047678323221104395,0.14890305488338546,15.203839802437527,0.1492886132637494,1125,0,2.269760160390096,0.5617715699658079,24.750261272946922,0.2650597909261382,0.06560299078374605,0.09765625,,
4.67441000000108,1200,,,,-0.0625,0.08203125,-1.01171875,0.0047678323221104395,0.14890305488338546,15.203848734097953,0.14956796446286222,1125,0,2.2740087071602955,0.5617543210521395,24.703261657851748,0.2650679297036772,0.06548042424574992,0.09765625,,
4.683055000000634,1200,,,,-0.0625,-0.0390625,-1.02734375,0.0047678323221104395,0.14621887564594174,15.203747974466086,0.14911858528325425,1126,0,2.2671613889555253,0.5619745937054926,24.787586646594782,0.2601876976000252,0.06449425098638627,0.09765625,,
4.690920000000856,1200,,,,-0.0625,0.064453125,-0.923828125,0.0047678323221104395,0.14621887564594174,15.203694746121373,0.14852099623555487,1126,0,2.258067890155218,0.5621576135820294,24.895514259466623,0.2601029891141119,0.06475397674420265,0.09765625,,
4.702740000001155,1200,,,,0.03125,0.009765625,-0.951171875,0.0047678323221104395,0.14621887564594174,15.203717197517278,0.14703580231299182,1126,0,2.2354907562767847,0.5622435744991228,25.15078950429394,0.2600632222008077,0.06540795359380937,0.09765625,,
4.710130000000819,1200,,,,-0.0625,0.0625,-0.990234375,0.0047678323221104395,0.14621887564594174,15.203771345422327,0.14693232053414054,1126,0,2.2339254046533745,0.5622617064197708,25.169224775749115,0.260054835633388,0.06545378612077232,0.09765625,,
4.720735000001267,1200,,,,-0.0625,0.1015625,-1.01171875,0.0047678323221104395,0.14621887564594174,15.203722716643876,0.14649421725231043,1126,0,2.2272574586959153,0.562303666902215,25.246460156943428,0.26003542970202487,0.06564974115365835,0.09765625,,
4.730500000000931,1200,,,,-0.0625,0.001953125,-0.978515625,0.004885788892299138,0.14621887564594174,15.203744119731901,0.14575895987051044,1126,0,2.216081929029511,0.5762837014620824,26.004620763928816,0.25372724454113765,0.0659808077176891,0.09765625,,
4.7471550000002605,1200,,,,0,-0.05078125,-0.9765625,0.004885788892299138,0.14621887564594174,15.20377633046041,0.1457743112166656,1126,0,2.21632002246511,0.5763042907209185,26.002756139879203,0.2537181797883747,0.06597371957291134,0.09765625,,
4.754850000000559,1200,,,,-0.03125,0.0390625,-1.037109375,0.004885788892299138,0.14621887564594174,15.203465740418025,0.1455350650179792,1126,0,2.2126373750303565,0.5762810635775906,26.04498459986848,0.2537284059590738,0.06608352425753256,0.09765625,,
4.763485000001267,1200,,,,-0.09375,0.0546875,-1.025390625,0.004885788892299138,0.14621887564594174,15.20362650976786,0.14554162505681362,1126,0,2.212760508988466,0.5762233755076731,26.04092820560531,0.253753807743599,0.06607984689350035,0.09765625,,
4.771290000000969,1200,,,,-0.0625,-0.02734375,-0.96484375,0.004885788892299138,0.14621887564594174,15.203775032579282,0.1459718569340949,1126,0,2.219323273913827,0.5762013505567102,25.962930111599565,0.2537635073306736,0.06588444205700661,0.09765625,,
4.779370000001043,1200,,,,-0.03125,0.103515625,-0.916015625,0.004885788892299138,0.14621887564594174,15.203786048437252,0.14638106681099025,1126,0,2.2255464213362948,0.5761926388531041,25.889940255981642,0.253767344089967,0.0657002137740838,0.09765625,,
4.787475000000558,1200,,,,0.03125,-0.046875,-0.96875,0.004885788892299138,0.14621887564594174,15.203796570836559,0.14581349429347343,1126,0,2.2169187045208076,0.5761891801395502,25.9905416903456,0.2537688673892284,0.06595590327591526,0.09765625,,
4.79553500000108,1200,,,,-0.0625,0.06640625,-1,0.004885788892299138,0.14621887564594174,15.20387310341291,0.14559004301103173,1126,0,2.213532539060154,0.5759416831268207,26.01911979895088,0.25387791842415536,0.06605679973786378,0.09765625,,
4.8034050000011925,1200,,,,-0.0625,0.09765625,-1.029296875,0.004885788892299138,0.14621887564594174,15.203815261077784,0.14621825333832925,1125,0,2.2230753115534276,0.5757263482596015,25.89774378166697,0.2539728745921665,0.06577324433681365,0.09765625,,
4.813440000000409,1200,,,,-0.09375,0.00390625,-0.958984375,0.004885788892299138,0.14621887564594174,15.20370446612312,0.14591966697395076,1125,0,2.2185194924670535,0.5756291081909344,25.946542734714463,0.2540157778078196,0.06590831234182325,0.09765625,,
4.821120000001043,1200,,,,0,0.115234375,-0.931640625,0.004885788892299138,0.14621887564594174,15.203653845169839,0.1465431278147578,1125,0,2.227990988684058,0.5756006083416045,25.834961239299165,0.2540283549512243,0.06562812703847808,0.09765625,,
4.829560000000521,1200,,,,0,-0.015625,-0.9140625,0.004885788892299138,0.14507097632376917,15.203803462271454,0.14563777575595568,1125,0,2.2142481192759127,0.5755892281541497,25.994793589002786,0.2520390744437584,0.06551703716528806,0.09765625,,
4.836795000000857,1200,,,,-0.0625,0.03125,-1.013671875,0.004885788892299138,0.14507097632376917,15.204005566656772,0.1466833281959235,1125,0,2.230174138426563,0.5756210737405871,25.810588681057006,0.25202513066633786,0.06504916984918493,0.09765625,,
4.846465000000783,1200,,,,-0.0625,0.0703125,-1.0234375,0.004885788892299138,0.14507097632376917,15.203939491637868,0.1466330613891518,1125,0,2.229400192834285,0.575634012370919,25.820129298504412,0.25201946585166396,0.06507175194029981,0.095703125,,
4.853580000000075,1200,,,,-0.0625,0.001953125,-1.001953125,0.004885788892299138,0.14507097632376917,15.204161897546445,0.14634243361771074,1125,0,2.2250140532046174,0.5756393580656818,25.87126841902893,0.25201712546419774,0.06520002699076351,0.095703125,,
4.86266000000108,1200,,,,-0.03125,0.083984375,-0.8984375,0.004885788892299138,0.14507097632376917,15.20415382186376,0.14674261272833114,1125,0,2.2310972561437294,0.5756411941790616,25.80081135387216,0.2520163216092605,0.06502225571937306,0.095703125,,
4.872990000001155,1200,,,,0.0625,-0.0625,-0.890625,0.004885788892299138,0.14507097632376917,15.20414623599881,0.14711665714165664,1125,0,2.236783168933046,0.5755869268880072,25.73279944531075,0.25204008212645845,0.06485696885539806,0.095703125,,
4.881500000000932,1200,,,,-0.0625,0.052734375,-1,0.005112179911194725,0.14507097632376917,15.204047981846688,0.1478852844540907,1125,0,2.248454960649041,0.6021657992667026,26.781314716345523,0.24091533677341317,0.06452029454123148,0.09765625,,
4.888905000001192,1200,,,,-0.0625,0.03515625,-0.98828125,0.005112179911194725,0.14507097632376917,15.204045586300658,0.14906212711449954,1125,0,2.2663473758397945,0.6021416069562022,26.568813473842635,0.24092501605576833,0.0640109181276825,0.09765625,,
4.896290000000969,1200,,,,-0.09375,0.04296875,-0.94140625,0.005112179911194725,0.14507097632376917,15.204215365700822,0.14845004414561974,1125,0,2.257066442237797,0.6021328347363483,26.677674323993582,0.24092852599093087,0.06427412751745877,0.09765625,,
