Time (s),ESC signal (µs),Servo 1 (µs),Servo 2 (µs),Servo 3 (µs),AccX (g),AccY (g),AccZ (g),Torque (N·m),Thrust (N),Voltage (V),Current (A),Motor Electrical Speed (RPM),Motor Optical Speed (RPM),Electrical Power (W),Mechanical Power (W),Motor Efficiency (%),Propeller Mech. Efficiency (N/W),Overall Efficiency (N/W),Vibration (g),App message,90% settling time (s),Max acceleration (RPM/s),
0,1000,,,,-0.0625,0.05078125,-0.95703125,-0.00045392735692002003,-0.023067744398702923,15.205981600195056,0.06513100810511947,0,0,0.9903809108486018,0,0,0,0,0.05859375,,
0,1000,,,,-0.0625,0.048828125,-0.955078125,-0.0004786650884558392,-0.023067744398702923,15.206046533358965,0.06508256216031735,0,0,0.989648468720013,0,0,0,0,0.05859375,,
0.007109999999403953,1000,,,,-0.0625,0.05078125,-0.955078125,-0.0004786650884558392,-0.023067744398702923,15.206079062532734,0.0652113271020774,0,0,0.9916085956868725,0,0,0,0,0.05859375,,
0.019455000000074506,1000,,,,-0.0625,0.05078125,-0.95703125,-0.0004786650884558392,-0.023067744398702923,15.206168282703391,0.06602500720373035,0,0,1.0039873704066273,0,0,0,0,0.05859375,,
0.027774999999441205,1000,,,,-0.0625,0.05078125,-0.95703125,-0.0004786650884558392,-0.023067744398702923,15.206185909986845,0.06620567346971393,0,0,1.0067357790763538,0,0,0,0,0.05859375,,
0.036264999999664725,1000,,,,-0.0625,0.048828125,-0.955078125,-0.0004786650884558392,-0.023067744398702923,15.205872978029085,0.0667124086805619,0,0,1.0144204124549892,0,0,0,0,0.05859375,,
0.04375,1000,,,,-0.0625,0.046875,-0.95703125,-0.0004786650884558392,-0.023067744398702923,15.206101960846711,0.06633740408588341,0,0,1.0087333303478323,0,0,0,0,0.05859375,,
0.052070000000298024,1000,,,,-0.0625,0.048828125,-0.95703125,-0.0004786650884558392,-0.023067744398702923,15.20619482840767,0.06618393730006922,0,0,1.00640584509597,0,0,0,0,0.05859375,,
0.06071999999973923,1000,,,,-0.0625,0.048828125,-0.955078125,-0.0004786650884558392,-0.023067744398702923,15.206147266907498,0.06482054123347684,0,0,0.9856706959168987,0,0,0,0,0.05859375,,
0.06889499999955297,1000,,,,-0.0625,0.05078125,-0.95703125,-0.0004786650884558392,-0.023067744398702923,15.206237585937865,0.06474157522933913,0,0,0.9844757746252005,0,0,0,0,0.05859375,,
0.07725,1000,,,,-0.0625,0.052734375,-0.95703125,-0.0004786650884558392,-0.023067744398702923,15.206325080919514,0.06531142968886139,0,0,0.9931468313484443,0,0,0,0,0.05859375,,
0.0854899999992922,1000,,,,-0.0625,0.048828125,-0.955078125,-0.0004786650884558392,-0.023067744398702923,15.206341934694617,0.06520771592551063,0,0,0.9915708251437463,0,0,0,0,0.05859375,,
0.0939300000006333,1000,,,,-0.0625,0.046875,-0.95703125,-0.0004786650884558392,-0.022555577724680708,15.206504905373643,0.06628086320715287,0,0,1.0079002714919696,0,0,0,0,0.05859375,,
0.10170000000018627,1000,,,,-0.0625,0.048828125,-0.95703125,-0.0004786650884558392,-0.022555577724680708,15.206480176152441,0.06549073516957657,0,0,0.9958835660778156,0,0,0,0,0.05859375,,
0.10903500000014901,1000,,,,-0.0625,0.046875,-0.95703125,-0.0004786650884558392,-0.022555577724680708,15.206372334666385,0.06576873460445032,0,0,1.0001038663751292,0,0,0,0,0.05859375,,
0.117089999999851,1000,,,,-0.0625,0.048828125,-0.955078125,-0.0004786650884558392,-0.022555577724680708,15.20664635612043,0.0659606594587599,0,0,1.0030404218058517,0,0,0,0,0.05859375,,
0.12498499999940395,1000,,,,-0.0625,0.046875,-0.95703125,-0.0004786650884558392,-0.022555577724680708,15.206647410768586,0.0662503071487923,0,0,1.007445061666806,0,0,0,0,0.05859375,,
0.1331000000005588,1000,,,,-0.0625,0.0546875,-0.95703125,-0.0004786650884558392,-0.022555577724680708,15.206516175251053,0.06642198949343363,0,0,1.010047057624254,0,0,0,0,0.05859375,,
0.14215000000037253,1000,,,,-0.0625,0.048828125,-0.955078125,-0.0004889660124269035,-0.022555577724680708,15.2065244067827,0.06530532274649749,0,0,0.9930669842374354,0,0,0,0,0.05859375,,
0.1495650000004098,1000,,,,-0.0625,0.05078125,-0.955078125,-0.0004889660124269035,-0.022555577724680708,15.206401831818654,0.06488718204718884,0,0,0.9867005639439228,0,0,0,0,0.05859375,,
0.15802500000037253,1000,,,,-0.0625,0.05078125,-0.953125,-0.0004889660124269035,-0.022555577724680708,15.206414967937132,0.06566151715307116,0,0,0.998476277253922,0,0,0,0,0.05859375,,
0.16720999999996275,1000,,,,-0.0625,0.048828125,-0.95703125,-0.0004889660124269035,-0.022555577724680708,15.206232735276922,0.06638558739543814,0,0,1.0094746922030984,0,0,0,0,0.05859375,,
0.17607499999925494,1000,,,,-0.0625,0.046875,-0.955078125,-0.0004889660124269035,-0.022555577724680708,15.20634247774175,0.06591836328519599,0,0,1.002377207686888,0,0,0,0,0.05859375,,
0.18374000000022353,1000,,,,-0.0625,0.044921875,-0.955078125,-0.0004889660124269035,-0.022555577724680708,15.206227269514093,0.0673859743068698,0,0,1.0246864400878994,0,0,0,0,0.05859375,,
0.19187999999988825,1000,,,,-0.0625,0.046875,-0.953125,-0.0004889660124269035,-0.022555577724680708,15.206313318186858,0.06865742645091717,0,0,1.0440263382330164,0,0,0,0,0.05859375,,
0.20046499999985098,1000,,,,-0.0625,0.05078125,-0.953125,-0.0004889660124269035,-0.022555577724680708,15.20645985538782,0.06902431750221842,0,0,1.0496155131430274,0,0,0,0,0.05859375,,
0.20960500000044704,1000,,,,-0.0625,0.046875,-0.95703125,-0.0004889660124269035,-0.022555577724680708,15.20647132764838,0.06798516402475889,0,0,1.0338144474479682,0,0,0,0,0.05859375,,
0.21901999999955296,1000,,,,-0.0625,0.05078125,-0.95703125,-0.0004889660124269035,-0.022555577724680708,15.20616650808359,0.06744364354965598,0,0,1.0255592737279067,0,0,0,0,0.05859375,,
0.22804000000003724,1000,,,,-0.0625,0.05078125,-0.95703125,-0.0004889660124269035,-0.022555577724680708,15.205966082866835,0.06695201890948325,0,0,1.0180701287170613,0,0,0,0,0.05859375,,
0.23628500000014901,1000,,,,-0.0625,0.05078125,-0.95703125,-0.0004889660124269035,-0.022555577724680708,15.20617046598442,0.06676199194746972,0,0,1.0151942302019037,0,0,0,0,0.05859375,,
0.24393499999959023,1000,,,,-0.0625,0.046875,-0.95703125,-0.0004889660124269035,-0.022348320456465218,15.20619416303044,0.06679907048809354,0,0,1.015759635751907,0,0,0,0,0.05859375,,
0.253160000000149,1000,,,,-0.0625,0.048828125,-0.95703125,-0.0004889660124269035,-0.022348320456465218,15.20618321256472,0.06733428207342476,0,0,1.0238974296950092,0,0,0,0,0.05859375,,
0.261035000000149,1000,,,,-0.0625,0.046875,-0.95703125,-0.0004889660124269035,-0.022348320456465218,15.20626819412221,0.06698869301082926,0,0,1.0186480318963897,0,0,0,0,0.05859375,,
0.26938999999966473,1000,,,,-0.0625,0.046875,-0.95703125,-0.0004889660124269035,-0.022348320456465218,15.206551222258184,0.06583738471149701,0,0,1.0011595629548973,0,0,0,0,0.05859375,,
0.2780849999999627,1000,,,,-0.0625,0.046875,-0.958984375,-0.0004889660124269035,-0.022348320456465218,15.206702877571585,0.06403817358438094,0,0,0.9738094785200343,0,0,0,0,0.05859375,,
0.28688499999977646,1000,,,,-0.0625,0.046875,-0.95703125,-0.0005089460067752256,-0.022348320456465218,15.2066351574804,0.06356739620666003,0,0,0.9666462020256827,0,0,0,0,0.05859375,,
0.2966349999997765,1000,,,,-0.0625,0.048828125,-0.95703125,-0.0005089460067752256,-0.022348320456465218,15.206882194865651,0.06327916476465188,0,0,0.9622788039655545,0,0,0,0,0.05859375,,
0.30540000000037254,1000,,,,-0.0625,0.046875,-0.95703125,-0.0005089460067752256,-0.022348320456465218,15.20679736393402,0.06303680237572473,0,0,0.9585878801980007,0,0,0,0,0.05859375,,
0.3131650000000373,1000,,,,-0.0625,0.05078125,-0.955078125,-0.0005089460067752256,-0.022348320456465218,15.207051470060874,0.06272686909195305,0,0,0.9538907268371005,0,0,0,0,0.05859375,,
0.324964999999851,1000,,,,-0.0625,0.05078125,-0.95703125,-0.0005089460067752256,-0.022348320456465218,15.206769579816932,0.062322174523744334,0,0,0.9477189476957171,0,0,0,0,0.05859375,,
0.3355800000000745,1000,,,,-0.0625,0.046875,-0.955078125,-0.0005089460067752256,-0.022348320456465218,15.207173620471117,0.06289263797156469,0,0,0.9564192650830187,0,0,0,0,0.05859375,,
0.3438650000002235,1000,,,,-0.0625,0.046875,-0.95703125,-0.0005089460067752256,-0.022348320456465218,15.206917014119195,0.06291157301927672,0,0,0.9566910701318412,0,0,0,0,0.05859375,,
0.352375,1000,,,,-0.0625,0.046875,-0.95703125,-0.0005089460067752256,-0.022348320456465218,15.20696397253596,0.062359610543192445,0,0,0.9483003508717011,0,0,0,0,0.05859375,,
0.36144000000040977,1000,,,,-0.0625,0.048828125,-0.955078125,-0.0005089460067752256,-0.022348320456465218,15.206700871122427,0.06214523170682311,0,0,0.9450239491322521,0,0,0,0,0.05859375,,
0.3696849999995902,1000,,,,-0.0625,0.05078125,-0.95703125,-0.0005089460067752256,-0.022348320456465218,15.206830418742879,0.06241049074656867,0,0,0.9490657491335913,0,0,0,0,0.05859375,,
0.37854999999981376,1000,,,,-0.0625,0.048828125,-0.95703125,-0.0005089460067752256,-0.022348320456465218,15.206675405508097,0.062453774703832426,0,0,0.9497142797699123,0,0,0,0,0.05859375,,
0.3873650000002235,1000,,,,-0.0625,0.05078125,-0.95703125,-0.0005089460067752256,-0.022348320456465218,15.206967961865605,0.06249477587390677,0,0,0.9503560544984718,0,0,0,0,0.05859375,,
0.3955300000002608,1000,,,,-0.0625,0.05078125,-0.953125,-0.0005089460067752256,-0.022262062522021585,15.207152825729537,0.0625300622671772,0,0,0.9509042130993476,0,0,0,0,0.05859375,,
0.403394999999553,1000,,,,-0.0625,0.048828125,-0.95703125,-0.0005089460067752256,-0.022262062522021585,15.207129565096613,0.06277041497330374,0,0,0.9545578333539104,0,0,0,0,0.05859375,,
0.4112150000007823,1000,,,,-0.0625,0.046875,-0.953125,-0.0005089460067752256,-0.022262062522021585,15.207071203454603,0.06279265019585156,0,0,0.9548923025819324,0,0,0,0,0.05859375,,
0.4194550000000745,1000,,,,-0.0625,0.046875,-0.95703125,-0.0005089460067752256,-0.022262062522021585,15.207302358010397,0.06301529490850251,0,0,0.9582926428527907,0,0,0,0,0.05859375,,
0.42962999999988827,1000,,,,-0.0625,0.048828125,-0.953125,-0.0005089460067752256,-0.022262062522021585,15.206979671317107,0.06466911917533143,0,0,0.9834219806612483,0,0,0,0,0.05859375,,
0.44045999999996277,1000,,,,-0.0625,0.05078125,-0.95703125,-0.0005592663614099781,-0.022262062522021585,15.207059140841887,0.06480824777270269,0,0,0.9855428566938244,0,0,0,0,0.05859375,,
0.44962000000011176,1000,,,,-0.0625,0.05078125,-0.95703125,-0.0005592663614099781,-0.022262062522021585,15.20717330454875,0.06472757765019294,0,0,0.9843234909101203,0,0,0,0,0.05859375,,
0.4580099999997765,1000,,,,-0.0625,0.048828125,-0.95703125,-0.0005592663614099781,-0.022262062522021585,15.206925894633248,0.06440542658570032,0,0,0.9794085493009869,0,0,0,0,0.05859375,,
0.465839999999851,1000,,,,-0.0625,0.048828125,-0.95703125,-0.0005592663614099781,-0.022262062522021585,15.206972993773848,0.0643526842264414,0,0,0.9786095311083507,0,0,0,0,0.05859375,,
0.4771550000002608,1000,,,,-0.0625,0.05078125,-0.953125,-0.0005592663614099781,-0.022262062522021585,15.207028874370907,0.06405372484514028,0,0,0.9740668432310575,0,0,0,0,0.05859375,,
0.48604999999981374,1000,,,,-0.0625,0.046875,-0.955078125,-0.0005592663614099781,-0.022262062522021585,15.207368924588458,0.06399537176469187,0,0,0.9732012278918608,0,0,0,0,0.05859375,,
0.49425499999988826,1000,,,,-0.0625,0.046875,-0.955078125,-0.0005592663614099781,-0.022262062522021585,15.207402604294819,0.06418414183585928,0,0,0.9760740857090745,0,0,0,0,0.05859375,,
0.5031349999997765,1000,,,,-0.0625,0.046875,-0.953125,-0.0005592663614099781,-0.022262062522021585,15.207082430070825,0.06436136439423547,0,0,0.9787485736549641,0,0,0,0,0.05859375,,
0.5112800000002607,1000,,,,-0.0625,0.05078125,-0.955078125,-0.0005592663614099781,-0.022262062522021585,15.207060753673836,0.06362020570804627,0,0,0.9674763333634867,0,0,0,0,0.05859375,,
0.519464999999851,1000,,,,-0.0625,0.048828125,-0.95703125,-0.0005592663614099781,-0.022262062522021585,15.206912222414564,0.06454836011275956,0,0,0.9815812463355401,0,0,0,0,0.05859375,,
0.5278250000001863,1000,,,,-0.0625,0.05078125,-0.95703125,-0.0005592663614099781,-0.022262062522021585,15.206899766494956,0.06470083060761622,0,0,0.9838990458589888,0,0,0,0,0.05859375,,
0.5362599999997765,1000,,,,-0.0625,0.05078125,-0.95703125,-0.0005592663614099781,-0.022262062522021585,15.20709892195408,0.06485094236414937,0,0,0.9861946957135621,0,0,0,0,0.05859375,,
0.5446299999998883,1000,,,,-0.0625,0.05078125,-0.955078125,-0.0005592663614099781,-0.022350261128740587,15.20704515607059,0.06413229855187082,0,0,0.9752627600409001,0,0,0,0,0.05859375,,
0.5538099999995902,1000,,,,-0.0625,0.048828125,-0.955078125,-0.0005592663614099781,-0.022350261128740587,15.206878926612369,0.06408141567384465,0,0,0.9744783295980758,0,0,0,0,0.05859375,,
0.5619449999993666,1000,,,,-0.0625,0.05078125,-0.95703125,-0.0005592663614099781,-0.022350261128740587,15.206720830047235,0.06427125440569231,0,0,0.9773550231443064,0,0,0,0,0.05859375,,
0.5700250000003725,1000,,,,-0.0625,0.05078125,-0.95703125,-0.0005592663614099781,-0.022350261128740587,15.206718219989313,0.06421842325962214,0,0,0.9765514670410814,0,0,0,0,0.05859375,,
0.5771450000004843,1000,,,,-0.0625,0.04296875,-0.95703125,-0.0005592663614099781,-0.022350261128740587,15.20694564958275,0.06473517824990675,0,0,0.9844243372623833,0,0,0,0,0.05859375,,
0.5848700000001118,1000,,,,-0.0625,0.04296875,-0.95703125,-0.0005592663614099781,-0.022350261128740587,15.20665083082653,0.06467007663626703,0,0,0.9834152746105054,0,0,0,0,0.05859375,,
0.593355000000447,1000,,,,-0.0625,0.046875,-0.955078125,-0.000511358275065532,-0.022350261128740587,15.20650211381163,0.06483110150016329,0,0,0.9858542820029694,0,0,0,0,0.05859375,,
0.6025400000000373,1000,,,,-0.0625,0.05078125,-0.95703125,-0.000511358275065532,-0.022350261128740587,15.206293263227323,0.06497875494651972,0,0,0.9880860035961619,0,0,0,0,0.05859375,,
0.6115650000004098,1000,,,,-0.0625,0.052734375,-0.95703125,-0.000511358275065532,-0.022350261128740587,15.20624023234384,0.06440047296429059,0,0,0.9792890629715674,0,0,0,0,0.05859375,,
0.6199349999995902,1000,,,,-0.0625,0.048828125,-0.95703125,-0.000511358275065532,-0.022350261128740587,15.206125178723589,0.06433879754384839,0,0,0.9783438093003124,0,0,0,0,0.05859375,,
0.6305599999995902,1000,,,,-0.0625,0.046875,-0.953125,-0.000511358275065532,-0.022350261128740587,15.206083253744847,0.06404824286621347,0,0,0.9739229132797115,0,0,0,0,0.05859375,,
0.6378650000002235,1000,,,,-0.0625,0.048828125,-0.955078125,-0.000511358275065532,-0.022350261128740587,15.206078273017093,0.06538062339791392,0,0,0.9941828769273319,0,0,0,0,0.05859375,,
0.6467949999999255,1000,,,,-0.0625,0.044921875,-0.953125,-0.000511358275065532,-0.022350261128740587,15.206172069899198,0.06495623229999362,0,0,0.9877356453660471,0,0,0,0,0.05859375,,
0.6549049999993295,1000,,,,-0.0625,0.046875,-0.953125,-0.000511358275065532,-0.022350261128740587,15.206065975882272,0.0650823700630069,0,0,0.9896468130448682,0,0,0,0,0.05859375,,
0.6642750000003725,1000,,,,-0.0625,0.048828125,-0.95703125,-0.000511358275065532,-0.022350261128740587,15.206099685429631,0.06497692552063591,0,0,0.9880456067195263,0,0,0,0,0.05859375,,
0.672445000000298,1000,,,,-0.0625,0.05078125,-0.95703125,-0.000511358275065532,-0.022350261128740587,15.206202167378493,0.06488118353836368,0,0,0.9865963937431476,0,0,0,0,0.05859375,,
0.6805649999994785,1000,,,,-0.0625,0.05078125,-0.953125,-0.000511358275065532,-0.022350261128740587,15.206093222719172,0.06522740414142116,0,0,0.9918539880504287,0,0,0,0,0.05859375,,
0.6877349999994039,1000,,,,-0.0625,0.05078125,-0.95703125,-0.000511358275065532,-0.0223863702966834,15.206120840041228,0.06492141731095595,0,0,0.9872029167371407,0,0,0,0,0.05859375,,
0.695214999999851,1000,,,,-0.0625,0.05078125,-0.95703125,-0.000511358275065532,-0.0223863702966834,15.206115552749937,0.06484531347719842,0,0,0.986045329788572,0,0,0,0,0.05859375,,
0.7038999999994412,1000,,,,-0.0625,0.048828125,-0.95703125,-0.000511358275065532,-0.0223863702966834,15.206364859629172,0.06505128030272662,0,0,0.9891935028692694,0,0,0,0,0.05859375,,
0.7125099999997765,1000,,,,-0.0625,0.046875,-0.955078125,-0.000511358275065532,-0.0223863702966834,15.206544590850802,0.06493926262487079,0,0,0.9875017928020686,0,0,0,0,0.05859375,,
0.7197799999993294,1000,,,,-0.0625,0.046875,-0.955078125,-0.000511358275065532,-0.0223863702966834,15.206288939725646,0.06485388624425069,0,0,0.9861869330941744,0,0,0,0,0.05859375,,
0.7273700000001118,1000,,,,-0.0625,0.046875,-0.953125,-0.000511358275065532,-0.0223863702966834,15.206188697361299,0.06449628615785447,0,0,0.9807426975953465,0,0,0,0,0.05859375,,
0.7359150000000373,1000,,,,-0.0625,0.046875,-0.95703125,-0.000511358275065532,-0.0223863702966834,15.20641410225542,0.06421264817330048,0,0,0.9764441187256422,0,0,0,0,0.05859375,,
0.7445499999998137,1000,,,,-0.0625,0.046875,-0.955078125,-0.0005491864572709119,-0.0223863702966834,15.206356225690989,0.06415842893370301,0,0,0.9756159252465676,0,0,0,0,0.05859375,,
0.7525900000007824,1000,,,,-0.0625,0.048828125,-0.955078125,-0.0005491864572709119,-0.0223863702966834,15.206636592007928,0.0644342206329563,0,0,0.9798277772546256,0,0,0,0,0.05859375,,
0.7603899999996647,1000,,,,-0.0625,0.05078125,-0.95703125,-0.0005491864572709119,-0.0223863702966834,15.206702488970816,0.06416501930547253,0,0,0.9757383587773895,0,0,0,0,0.05859375,,
0.769035000000149,1000,,,,-0.0625,0.05078125,-0.95703125,-0.0005491864572709119,-0.0223863702966834,15.206569893677624,0.06443733878807799,0,0,0.9798708960434922,0,0,0,0,0.05859375,,
0.777910000000149,1000,,,,-0.0625,0.05078125,-0.95703125,-0.0005491864572709119,-0.0223863702966834,15.206429527541259,0.06413277840177682,0,0,0.9752305751720394,0,0,0,0,0.05859375,,
0.7881550000002607,1000,,,,-0.0625,0.046875,-0.95703125,-0.0005491864572709119,-0.0223863702966834,15.20637532755202,0.06387199517991063,0,0,0.9712615316253146,0,0,0,0,0.05859375,,
0.7964850000003353,1000,,,,-0.0625,0.044921875,-0.95703125,-0.0005491864572709119,-0.0223863702966834,15.206661858970481,0.06295796566888184,0,0,0.9573804952553585,0,0,0,0,0.05859375,,
0.8041900000004097,1000,,,,-0.0625,0.046875,-0.953125,-0.0005491864572709119,-0.0223863702966834,15.206855321386389,0.06401777463117818,0,0,0.9735090368134465,0,0,0,0,0.05859375,,
0.8126200000001118,1000,,,,-0.0625,0.05078125,-0.95703125,-0.0005491864572709119,-0.0223863702966834,15.206779198795415,0.06441115734840201,0,0,0.9794862477360181,0,0,0,0,0.05859375,,
0.8209599999999627,1000,,,,-0.0625,0.048828125,-0.95703125,-0.0005491864572709119,-0.0223863702966834,15.20663811476716,0.06434972621582447,0,0,0.9785429993483878,0,0,0,0,0.05859375,,
0.8283499999996274,1000,,,,-0.0625,0.05078125,-0.95703125,-0.0005491864572709119,-0.0223863702966834,15.206639517661035,0.06368189144007909,0,0,0.9683875669321067,0,0,0,0,0.05859375,,
0.8364150000000372,1000,,,,-0.0625,0.048828125,-0.95703125,-0.0005491864572709119,-0.0223863702966834,15.206510406521554,0.06365834146531096,0,0,0.9680212319541537,0,0,0,0,0.05859375,,
0.8446100000003353,1000,,,,-0.0625,0.05078125,-0.95703125,-0.0005491864572709119,-0.02240253465131915,15.206584047552987,0.06427934360259036,0,0,0.9774692410143276,0,0,0,0,0.05859375,,
0.8526650000000372,1000,,,,-0.0625,0.048828125,-0.958984375,-0.0005491864572709119,-0.02240253465131915,15.2067192598723,0.06273266060784756,0,0,0.9539579582883878,0,0,0,0,0.05859375,,
0.8605849999999627,1000,,,,-0.0625,0.046875,-0.94921875,-0.0005491864572709119,-0.02240253465131915,15.206521383945166,0.06233184879275282,0,0,0.9478505915678324,0,0,0,0,0.05859375,,
0.8732350000003353,1000,,,,-0.0625,0.044921875,-0.95703125,-0.0005491864572709119,-0.02240253465131915,15.20632026814927,0.061362362243441076,0,0,0.9330957326839555,0,0,0,0,0.05859375,,
0.8898199999993667,1000,,,,-0.0625,0.048828125,-0.955078125,-0.0006591033355854797,-0.02240253465131915,15.206404370910777,0.0624687077116996,0,0,0.9499244299923365,0,0,0,0,0.05859375,,
0.904359999999404,1000,,,,-0.0625,0.048828125,-0.95703125,-0.0006591033355854797,-0.02240253465131915,15.206377049598386,0.0633027102489202,0,0,0.9626048803065567,0,0,0,0,0.05859375,,
0.9121399999996648,1000,,,,-0.0625,0.0546875,-0.95703125,-0.0006591033355854797,-0.02240253465131915,15.206458686704796,0.06296992598762155,0,0,0.9575495780356258,0,0,0,0,0.05859375,,
0.9196900000004098,1000,,,,-0.0625,0.046875,-0.9609375,-0.0006591033355854797,-0.02240253465131915,15.206657008737869,0.06318535225897466,0,0,0.9608379797785082,0,0,0,0,0.05859375,,
0.9274599999999628,1000,,,,-0.0625,0.046875,-0.958984375,-0.0006591033355854797,-0.02240253465131915,15.206625810061244,0.06318607382878287,0,0,0.9608469811212049,0,0,0,0,0.05859375,,
0.9368100000005215,1000,,,,-0.0625,0.046875,-0.953125,-0.0006591033355854797,-0.02240253465131915,15.206751194938573,0.06298582276471175,0,0,0.9578097355914695,0,0,0,0,0.05859375,,
0.9442000000001862,1000,,,,-0.0625,0.046875,-0.955078125,-0.0006591033355854797,-0.02240253465131915,15.206447066879244,0.06446092530432217,0,0,0.9802216485222318,0,0,0,0,0.05859375,,
0.9545800000000745,1000,,,,-0.0625,0.048828125,-0.95703125,-0.0006591033355854797,-0.02240253465131915,15.206301006458425,0.06399701174871103,0,0,0.9731578241647562,0,0,0,0,0.05859375,,
0.9626299999998882,1000,,,,-0.0625,0.048828125,-0.953125,-0.0006591033355854797,-0.02240253465131915,15.206338054016452,0.06378261233133761,0,0,0.9698999650785982,0,0,0,0,0.05859375,,
0.971910000000149,1000,,,,-0.0625,0.05078125,-0.95703125,-0.0006591033355854797,-0.02240253465131915,15.206656529496428,0.06301718150389983,0,0,0.9582806345867398,0,0,0,0,0.05859375,,
0.9979950000001118,1000,,,,-0.0625,0.048828125,-0.955078125,-0.0006591033355854797,-0.02318571191619172,15.206200153222406,0.06416738915008614,0,0,0.9757421627259216,0,0,0,0,0.05859375,,
1.0215200000004843,1000,,,,-0.0625,0.048828125,-0.953125,-0.0006591033355854797,-0.02318571191619172,15.205921297955388,0.0631727014163854,0,0,0.9605991259167912,0,0,0,0,0.05859375,,
1.0294900000002236,1000,,,,-0.0625,0.046875,-0.95703125,-0.0006591033355854797,-0.02318571191619172,15.206021078855107,0.06400784345545805,0,0,0.9733046167957531,0,0,0,0,0.05859375,,
1.0378399999998509,1000,,,,-0.0625,0.048828125,-0.955078125,-0.0006591033355854797,-0.02318571191619172,15.205922042870743,0.06428736986530334,0,0,0.9775487345130004,0,0,0,0,0.05859375,,
1.046964999999851,1000,,,,-0.0625,0.046875,-0.958984375,-0.000708104116414114,-0.02318571191619172,15.206036330065398,0.06422763128242455,0,0,0.9766476946745926,0,0,0,0,0.05859375,,
1.0558549999995157,1000,,,,-0.0625,0.0546875,-0.953125,-0.000708104116414114,-0.02318571191619172,15.20603436509264,0.06452707099654235,0,0,0.9812008590521956,0,0,0,0,0.05859375,,
1.064714999999851,1000,,,,-0.0625,0.0546875,-0.955078125,-0.000708104116414114,-0.02318571191619172,15.205811811533627,0.06517227911815233,0,0,0.990997411599367,0,0,0,0,0.05859375,,
1.0729150000000371,1000,,,,-0.0625,0.05078125,-0.95703125,-0.000708104116414114,-0.02318571191619172,15.205853822134117,0.06486271915438753,0,0,0.9862930259677554,0,0,0,0,0.05859375,,
1.082339999999851,1000,,,,-0.0625,0.048828125,-0.95703125,-0.000708104116414114,-0.02318571191619172,15.20604492508034,0.06477140606008537,0,0,0.9849169104102791,0,0,0,0,0.05859375,,
1.0929449999993668,1000,,,,-0.0625,0.046875,-0.955078125,-0.000708104116414114,-0.02318571191619172,15.206153667047579,0.06613096353241424,0,0,1.0055975936238104,0,0,0,0,0.05859375,,
1.1041299999998881,1000,,,,-0.0625,0.046875,-0.953125,-0.000708104116414114,-0.02318571191619172,15.206288892267741,0.06718817937177807,0,0,1.0216828656727615,0,0,0,0,0.05859375,,
1.113,1000,,,,-0.0625,0.046875,-0.95703125,-0.000708104116414114,-0.02318571191619172,15.206452482293594,0.0677763628551927,0,0,1.0306380411801763,0,0,0,0,0.05859375,,
1.1207199999997393,1000,,,,-0.0625,0.05078125,-0.95703125,-0.000708104116414114,-0.02318571191619172,15.206256406811113,0.06728841891585122,0,0,1.0232049512433525,0,0,0,0,0.05859375,,
1.1286899999994784,1000,,,,-0.0625,0.05078125,-0.95703125,-0.000708104116414114,-0.02318571191619172,15.2061473403691,0.06688086710382449,0,0,1.0170003194324,0,0,0,0,0.05859375,,
1.136855000000447,1000,,,,-0.0625,0.048828125,-0.95703125,-0.000708104116414114,-0.02318571191619172,15.206140094405022,0.0666982855765668,0,0,1.0142234745339087,0,0,0,0,0.05859375,,
1.144679999999702,1000,,,,-0.0625,0.046875,-0.95703125,-0.000708104116414114,-0.022051383222078325,15.206133294922314,0.06716475599737723,0,0,1.021316232417051,0,0,0,0,0.05859375,,
1.1527250000005589,1000,,,,-0.0625,0.048828125,-0.95703125,-0.000708104116414114,-0.022051383222078325,15.206224731942719,0.06697081267526557,0,0,1.0183732280209261,0,0,0,0,0.05859375,,
1.1607749999994412,1000,,,,-0.0625,0.046875,-0.95703125,-0.000708104116414114,-0.022051383222078325,15.206115734003877,0.06721148003948467,0,0,1.0220255441340953,0,0,0,0,0.05859375,,
1.1689349999995902,1000,,,,-0.0625,0.048828125,-0.955078125,-0.000708104116414114,-0.022051383222078325,15.206208265321722,0.06957195858517569,0,0,1.057925691672519,0,0,0,0,0.05859375,,
1.176835000000894,1000,,,,-0.0625,0.046875,-0.95703125,-0.000708104116414114,-0.022051383222078325,15.206295450469884,0.06926195878495991,0,0,1.0532178087623687,0,0,0,0,0.05859375,,
1.1840999999996276,1000,,,,-0.0625,0.046875,-0.955078125,-0.000708104116414114,-0.022051383222078325,15.206574066965684,0.06928388471880248,0,0,1.0535705246235818,0,0,0,0,0.05859375,,
1.1929850000003352,1000,,,,-0.0625,0.05078125,-0.953125,-0.0005847225187545495,-0.022051383222078325,15.206379666406368,0.0691972028684008,0,0,1.0522389386702462,0,0,0,0,0.05859375,,
1.2016450000004844,1000,,,,-0.0625,0.048828125,-0.95703125,-0.0005847225187545495,-0.022051383222078325,15.206249264661357,0.06886848351211544,0,0,1.0472313267644482,0,0,0,0,0.05859375,,
1.2097549999998882,1000,,,,-0.0625,0.048828125,-0.95703125,-0.0005847225187545495,-0.022051383222078325,15.206138306162616,0.0679463529724866,0,0,1.0332016406989748,0,0,0,0,0.05859375,,
1.2201049999995157,1000,,,,-0.0625,0.05078125,-0.953125,-0.0005847225187545495,-0.022051383222078325,15.206164832068232,0.06705646969087173,0,0,1.019671731175983,0,0,0,0,0.05859375,,
1.2291349999997765,1000,,,,-0.0625,0.048828125,-0.95703125,-0.0005847225187545495,-0.022051383222078325,15.20602422185804,0.06736976877615623,0,0,1.0244263358312071,0,0,0,0,0.05859375,,
1.236925000000745,1000,,,,-0.0625,0.05078125,-0.955078125,-0.0005847225187545495,-0.022051383222078325,15.20605619312563,0.06716268442624375,0,0,1.0212795534666261,0,0,0,0,0.05859375,,
1.2470250000003724,1000,,,,-0.0625,0.05078125,-0.95703125,-0.0005847225187545495,-0.022051383222078325,15.205891000931699,0.06718110464141115,0,0,1.0215485544994847,0,0,0,0,0.05859375,,
1.256964999999851,1000,,,,-0.0625,0.05078125,-0.953125,-0.0005847225187545495,-0.022051383222078325,15.205851359956386,0.06689735929815689,0,0,1.01723130186137,0,0,0,0,0.05859375,,
1.2639150000000372,1000,,,,-0.0625,0.05078125,-0.958984375,-0.0005847225187545495,-0.022051383222078325,15.205891746656823,0.06714385830324777,0,0,1.0209822408120506,0,0,0,0,0.05859375,,
1.271679999999702,1000,,,,-0.0625,0.046875,-0.95703125,-0.0005847225187545495,-0.022051383222078325,15.205631049714862,0.06754557012860266,0,0,1.0270730184181731,0,0,0,0,0.05859375,,
1.2788650000002235,1000,,,,-0.0625,0.048828125,-0.95703125,-0.0005847225187545495,-0.022051383222078325,15.205733402436243,0.06792038695239097,0,0,1.0327792965883662,0,0,0,0,0.05859375,,
1.287660000000149,1000,,,,-0.0625,0.05078125,-0.955078125,-0.0005847225187545495,-0.022051383222078325,15.205642217915884,0.06801460403992296,0,0,1.0342057346242848,0,0,0,0,0.05859375,,
1.2957450000001118,1000,,,,-0.0625,0.05078125,-0.953125,-0.0005847225187545495,-0.02440412440486255,15.205763252103578,0.06865800841791846,0,0,1.0439974213638026,0,0,0,0,0.05859375,,
1.3039400000004098,1000,,,,-0.0625,0.05078125,-0.95703125,-0.0005847225187545495,-0.02440412440486255,15.205676274138591,0.0690311948442984,0,0,1.0496660016193864,0,0,0,0,0.05859375,,
1.3123600000003353,1000,,,,-0.0625,0.05078125,-0.95703125,-0.0005847225187545495,-0.02440412440486255,15.205853929908184,0.0695911714433573,0,0,1.0581931877788888,0,0,0,0,0.05859375,,
1.3209849999994039,1000,,,,-0.0625,0.048828125,-0.955078125,-0.0005847225187545495,-0.02440412440486255,15.205898790725845,0.070674792550261,0,0,1.0746737425748139,0,0,0,0,0.05859375,,
1.3292099999999627,1000,,,,-0.0625,0.046875,-0.95703125,-0.0005847225187545495,-0.02440412440486255,15.20580473795248,0.07051959638174904,0,0,1.072307212780096,0,0,0,0,0.05859375,,
1.3379800000004471,1000,,,,-0.0625,0.046875,-0.95703125,-0.0005326807845788411,-0.02440412440486255,15.205706102800738,0.07106828253402143,0,0,1.0806434174431367,0,0,0,0,0.05859375,,
1.3457600000007077,1000,,,,-0.0625,0.048828125,-0.955078125,-0.0005326807845788411,-0.02440412440486255,15.205720579223582,0.0725981627879476,0,0,1.1039073779185185,0,0,0,0,0.05859375,,
1.3552300000004471,1000,,,,-0.0625,0.046875,-0.95703125,-0.0005326807845788411,-0.02440412440486255,15.205766925418018,0.07277542222275576,0,0,1.1066061082181111,0,0,0,0,0.05859375,,
1.3629550000000745,1000,,,,-0.0625,0.048828125,-0.95703125,-0.0005326807845788411,-0.02440412440486255,15.205520692180222,0.07296687316942316,0,0,1.1094992998213538,0,0,0,0,0.05859375,,
1.3710599999995903,1000,,,,-0.0625,0.046875,-0.95703125,-0.0005326807845788411,-0.02440412440486255,15.205445909344231,0.07248673726033106,0,0,1.1021931625568109,0,0,0,0,0.05859375,,
1.379070000000298,1000,,,,-0.0625,0.046875,-0.95703125,-0.0005326807845788411,-0.02440412440486255,15.205505547369018,0.0718213038034637,0,0,1.0920792334028429,0,0,0,0,0.05859375,,
1.386929999999702,1000,,,,-0.0625,0.05078125,-0.95703125,-0.0005326807845788411,-0.02440412440486255,15.205529755988948,0.07203617567298577,0,0,1.0953482127032323,0,0,0,0,0.05859375,,
1.3974150000000372,1000,,,,-0.0625,0.05078125,-0.958984375,-0.0005326807845788411,-0.02440412440486255,15.205322528212106,0.07224292846128377,0,0,1.0984770276363738,0,0,0,0,0.05859375,,
1.4057549999998882,1000,,,,-0.0625,0.05078125,-0.95703125,-0.0005326807845788411,-0.02440412440486255,15.20530140512186,0.07271796827857105,0,0,1.1056986252437633,0,0,0,0,0.05859375,,
1.413820000000298,1000,,,,-0.0625,0.046875,-0.95703125,-0.0005326807845788411,-0.02440412440486255,15.205336293020945,0.07224353678255477,0,0,1.0984872717759737,0,0,0,0,0.05859375,,
1.4222000000001862,1000,,,,-0.0625,0.046875,-0.95703125,-0.0005326807845788411,-0.02440412440486255,15.20546717643165,0.07211910458507385,0,0,1.0966046775619818,0,0,0,0,0.05859375,,
1.4299950000001118,1000,,,,-0.0625,0.046875,-0.955078125,-0.0005326807845788411,-0.02440412440486255,15.205200067150914,0.07189552887167207,0,0,1.0931859004273985,0,0,0,0,0.05859375,,
1.4382100000008942,1000,,,,-0.0625,0.046875,-0.953125,-0.0005326807845788411,-0.021903249989227228,15.205271308680388,0.0723163989513812,0,0,1.099590466122521,0,0,0,0,0.05859375,,
1.4456949999993667,1000,,,,-0.0625,0.046875,-0.955078125,-0.0005326807845788411,-0.021903249989227228,15.205404244145345,0.07187286934186063,0,0,1.0928560325296315,0,0,0,0,0.05859375,,
1.454660000000149,1000,,,,-0.0625,0.05078125,-0.95703125,-0.0005326807845788411,-0.021903249989227228,15.205756447721132,0.07140932321012378,0,0,1.085832776829742,0,0,0,0,0.05859375,,
1.4632000000001864,1000,,,,-0.0625,0.048828125,-0.958984375,-0.0005326807845788411,-0.021903249989227228,15.205803457872035,0.07076245101549815,0,0,1.0759999223389622,0,0,0,0,0.05859375,,
1.472144999999553,1000,,,,-0.0625,0.052734375,-0.95703125,-0.0005326807845788411,-0.021903249989227228,15.205924449470404,0.07034613487473987,0,0,1.0696780122175495,0,0,0,0,0.05859375,,
1.4812900000000373,1000,,,,-0.0625,0.048828125,-0.95703125,-0.0005326807845788411,-0.021903249989227228,15.206038102246618,0.07066767391002132,0,0,1.0745753420729234,0,0,0,0,0.05859375,,
1.490035000000149,1000,,,,-0.0625,0.048828125,-0.953125,-0.0006576528487425841,-0.021903249989227228,15.206146059210282,0.06954033124489474,0,0,1.0574404339157337,0,0,0,0,0.05859375,,
1.4979349999995901,1000,,,,-0.0625,0.05078125,-0.953125,-0.0006576528487425841,-0.021903249989227228,15.206106459856255,0.07029003823148798,0,0,1.0688378044153726,0,0,0,0,0.05859375,,
1.5061449999995529,1000,,,,-0.0625,0.046875,-0.953125,-0.0006576528487425841,-0.021903249989227228,15.206333010562691,0.07015348510540838,0,0,1.0667772563643896,0,0,0,0,0.05859375,,
1.514475000000559,1000,,,,-0.0625,0.048828125,-0.955078125,-0.0006576528487425841,-0.021903249989227228,15.206414076476467,0.06854912857441703,0,0,1.0423864336842104,0,0,0,0,0.05859375,,
1.5215,1000,,,,-0.0625,0.05078125,-0.95703125,-0.0006576528487425841,-0.021903249989227228,15.206166346681918,0.06871164194935082,0,0,1.044840657435476,0,0,0,0,0.05859375,,
1.5282800000002608,1000,,,,-0.0625,0.05078125,-0.958984375,-0.0006576528487425841,-0.021903249989227228,15.206074858668533,0.06847884863673266,0,0,1.0412944986055885,0,0,0,0,0.05859375,,
1.5354150000000373,1000,,,,-0.0625,0.05078125,-0.953125,-0.0006576528487425841,-0.021903249989227228,15.205897494644606,0.06909889368612192,0,0,1.0507106943845153,0,0,0,0,0.05859375,,
1.542910000000149,1000,,,,-0.0625,0.05078125,-0.95703125,-0.0006576528487425841,-0.021903249989227228,15.205990230536642,0.06768926832592304,0,0,1.029282352876159,0,0,0,0,0.05859375,,
1.554535000000149,1000,,,,-0.0625,0.05078125,-0.95703125,-0.0006576528487425841,-0.021903249989227228,15.205958032870116,0.0674691275888256,0,0,1.0259327226300414,0,0,0,0,0.05859375,,
1.5742050000000745,1000,,,,-0.0625,0.052734375,-0.955078125,-0.0006576528487425841,-0.021903249989227228,15.20600884861784,0.06612871184662178,0,0,1.0055537774874301,0,0,0,0,0.05859375,,
1.5818849999997764,1000,,,,-0.0625,0.046875,-0.955078125,-0.0006576528487425841,-0.021903249989227228,15.205912165993832,0.06577897632436976,0,0,1.0002293363573542,0,0,0,0,0.05859375,,
1.5900049999998882,1000,,,,-0.0625,0.046875,-0.95703125,-0.0006576528487425841,-0.023852759231094443,15.205819096125733,0.0653362178719379,0,0,0.9934907093857447,0,0,0,0,0.05859375,,
1.5981500000003726,1000,,,,-0.0625,0.048828125,-0.953125,-0.0006576528487425841,-0.023852759231094443,15.205795280303363,0.06608427993651868,0,0,1.0048640319609619,0,0,0,0,0.05859375,,
1.607730000000447,1000,,,,-0.0625,0.046875,-0.95703125,-0.0006576528487425841,-0.023852759231094443,15.206091903993482,0.06696565044007916,0,0,1.0182858350025452,0,0,0,0,0.05859375,,
1.6151350000007079,1000,,,,-0.0625,0.05078125,-0.955078125,-0.0006576528487425841,-0.023852759231094443,15.206353927653213,0.067954140403578,0,0,1.0333347098262462,0,0,0,0,0.05859375,,
1.6242800000002608,1000,,,,-0.0625,0.052734375,-0.955078125,-0.0006576528487425841,-0.023852759231094443,15.206550384049406,0.06839947088412837,0,0,1.0401200002418185,0,0,0,0,0.05859375,,
1.6320800000000746,1000,,,,-0.0625,0.052734375,-0.955078125,-0.0006576528487425841,-0.023852759231094443,15.206752796312045,0.0689973909409009,0,0,1.0492262676287802,0,0,0,0,0.05859375,,
1.6403249999992549,1000,,,,-0.0625,0.05078125,-0.95703125,-0.0007485544379290742,-0.023852759231094443,15.206554380895595,0.06934800771442609,0,0,1.0545442505161875,0,0,0,0,0.05859375,,
1.647839999999851,1000,,,,-0.0625,0.048828125,-0.955078125,-0.0007485544379290742,-0.023852759231094443,15.20652687565443,0.0680710222896741,0,0,1.0351238299012009,0,0,0,0,0.05859375,,
1.6559699999997393,1000,,,,-0.0625,0.05078125,-0.953125,-0.0007485544379290742,-0.023852759231094443,15.206598781452653,0.06783332307540774,0,0,1.0315141280203795,0,0,0,0,0.05859375,,
1.6641749999998137,1000,,,,-0.0625,0.046875,-0.95703125,-0.0007485544379290742,-0.023852759231094443,15.206569746002346,0.0682409395793485,0,0,1.0377106072460949,0,0,0,0,0.05859375,,
1.6746900000004097,1000,,,,-0.0625,0.046875,-0.955078125,-0.0007485544379290742,-0.023852759231094443,15.20641301023497,0.06872772244396012,0,0,1.045102132735653,0,0,0,0,0.05859375,,
1.683125,1000,,,,-0.0625,0.048828125,-0.958984375,-0.0007485544379290742,-0.023852759231094443,15.206274631661536,0.06940622534359228,0,0,1.0554101237216513,0,0,0,0,0.05859375,,
1.6907400000002235,1000,,,,-0.0625,0.05078125,-0.953125,-0.0007485544379290742,-0.023852759231094443,15.206293248792267,0.06808428330005394,0,0,1.0353095774944703,0,0,0,0,0.05859375,,
1.6980899999998509,1000,,,,-0.0625,0.05078125,-0.95703125,-0.0007485544379290742,-0.023852759231094443,15.206537259059479,0.06787564060291204,0,0,1.0321534578107123,0,0,0,0,0.05859375,,
1.7081000000005588,1000,,,,-0.0625,0.05078125,-0.955078125,-0.0007485544379290742,-0.023852759231094443,15.206413255664911,0.06828369285533592,0,0,1.0383500521811315,0,0,0,0,0.05859375,,
1.717070000000298,1000,,,,-0.0625,0.048828125,-0.95703125,-0.0007485544379290742,-0.023852759231094443,15.206519702132628,0.06823386251675145,0,0,1.03759957471359,0,0,0,0,0.05859375,,
1.7334700000006706,1000,,,,-0.0625,0.046875,-0.953125,-0.0007485544379290742,-0.023852759231094443,15.206626447394406,0.06843133780572806,0,0,1.040609791307165,0,0,0,0,0.05859375,,
1.742160000000149,1000,,,,-0.0625,0.046875,-0.95703125,-0.0007485544379290742,-0.021131173799351456,15.206409415580344,0.06743083892748367,0,0,1.0253809439673691,0,0,0,0,0.05859375,,
1.7504000000003725,1000,,,,-0.0625,0.04296875,-0.953125,-0.0007485544379290742,-0.021131173799351456,15.206356706646314,0.06743623556525313,0,0,1.0254594529586676,0,0,0,0,0.05859375,,
1.7581650000000373,1000,,,,-0.0625,0.048828125,-0.955078125,-0.0007485544379290742,-0.021131173799351456,15.206175544124935,0.06786760803173789,0,0,1.0320067614904698,0,0,0,0,0.05859375,,
1.7660750000001864,1000,,,,-0.0625,0.048828125,-0.95703125,-0.0007485544379290742,-0.021131173799351456,15.20626562139879,0.06699486207661629,0,0,1.0187416680060037,0,0,0,0,0.05859375,,
1.774160000000149,1000,,,,-0.0625,0.046875,-0.95703125,-0.0007485544379290742,-0.021131173799351456,15.206416396665578,0.06744818256848113,0,0,1.0256451493346448,0,0,0,0,0.05859375,,
1.7843300000000746,1000,,,,-0.0625,0.048828125,-0.958984375,-0.0007485544379290742,-0.021131173799351456,15.206430265381277,0.06697461614584499,0,0,1.0184448299724709,0,0,0,0,0.05859375,,
1.7944200000008568,1000,,,,-0.0625,0.048828125,-0.955078125,-0.0008026760779575924,-0.021131173799351456,15.206446996782748,0.06670889037018747,0,0,1.014405205628447,0,0,0,0,0.05859375,,
1.8015949999997392,1000,,,,-0.0625,0.052734375,-0.95703125,-0.0008026760779575924,-0.021131173799351456,15.206456719496302,0.06712756700125241,0,0,1.020772442289633,0,0,0,0,0.05859375,,
1.8092700000004842,1000,,,,-0.0625,0.046875,-0.955078125,-0.0008026760779575924,-0.021131173799351456,15.206336331450586,0.06725410921955455,0,0,1.0226886044646581,0,0,0,0,0.05859375,,
1.817375,1000,,,,-0.0625,0.046875,-0.95703125,-0.0008026760779575924,-0.021131173799351456,15.206233382062198,0.06851013754208576,0,0,1.041781140502137,0,0,0,0,0.05859375,,
1.8250899999998509,1000,,,,-0.0625,0.05078125,-0.95703125,-0.0008026760779575924,-0.021131173799351456,15.20625480881504,0.06889062049025368,0,0,1.047568329112172,0,0,0,0,0.05859375,,
1.8334249999998138,1000,,,,-0.0625,0.05078125,-0.95703125,-0.0008026760779575924,-0.021131173799351456,15.206405563663713,0.06861207167298851,0,0,1.043342988422626,0,0,0,0,0.05859375,,
1.8411349999997766,1000,,,,-0.0625,0.046875,-0.95703125,-0.0008026760779575924,-0.021131173799351456,15.206580390600674,0.06898207188122307,0,0,1.048981421572013,0,0,0,0,0.05859375,,
1.849269999999553,1000,,,,-0.0625,0.05078125,-0.95703125,-0.0008026760779575924,-0.021131173799351456,15.206584687542387,0.06912442102498223,0,0,1.0511463622937278,0,0,0,0,0.05859375,,
1.859800000000745,1000,,,,-0.0625,0.05078125,-0.955078125,-0.0008026760779575924,-0.021131173799351456,15.206522823086356,0.06861674770272302,0,0,1.043422139987416,0,0,0,0,0.05859375,,
1.8672450000001117,1000,,,,-0.0625,0.048828125,-0.95703125,-0.0008026760779575924,-0.021131173799351456,15.206531732208573,0.06748399261739531,0,0,1.0261974751525509,0,0,0,0,0.05859375,,
1.8750849999999628,1000,,,,-0.0625,0.048828125,-0.955078125,-0.0008026760779575924,-0.021131173799351456,15.206505289972835,0.06727046770177032,0,0,1.022948722965917,0,0,0,0,0.05859375,,
1.8836500000003726,1000,,,,-0.0625,0.046875,-0.95703125,-0.0008026760779575924,-0.021131173799351456,15.206640232629162,0.06831782605185843,0,0,1.0388846022459512,0,0,0,0,0.05859375,,
1.8920700000002981,1000,,,,-0.0625,0.046875,-0.953125,-0.0008026760779575924,-0.023517903394714528,15.206496939309059,0.06804004519480224,0,0,1.0346507390052102,0,0,0,0,0.05859375,,
1.9010800000000745,1000,,,,-0.0625,0.046875,-0.953125,-0.0008026760779575924,-0.023517903394714528,15.206371478030825,0.06779692546575633,0,0,1.0309452337006588,0,0,0,0,0.05859375,,
1.9097350000003352,1000,,,,-0.0625,0.05078125,-0.955078125,-0.0008026760779575924,-0.023517903394714528,15.20645906635405,0.06731632998993328,0,0,1.023643016489102,0,0,0,0,0.05859375,,
1.9179550000000745,1000,,,,-0.0625,0.052734375,-0.95703125,-0.0008026760779575924,-0.023517903394714528,15.206323689908826,0.06637186835762963,0,0,1.0092721141501335,0,0,0,0,0.05859375,,
1.9263349999999628,1000,,,,-0.0625,0.046875,-0.95703125,-0.0008026760779575924,-0.023517903394714528,15.20607515698091,0.06686226466592361,0,0,1.0167126216759836,0,0,0,0,0.05859375,,
1.934714999999851,1000,,,,-0.0625,0.048828125,-0.955078125,-0.0008026760779575924,-0.023517903394714528,15.205876181537315,0.06636521554780984,0,0,1.0091412503810315,0,0,0,0,0.05859375,,
1.9424400000004098,1000,,,,-0.0625,0.046875,-0.953125,-0.0008240176488433149,-0.023517903394714528,15.206044438685675,0.06621133362485236,0,0,1.0068124814441481,0,0,0,0,0.05859375,,
1.9502299999995156,1000,,,,-0.0625,0.046875,-0.95703125,-0.0008240176488433149,-0.023517903394714528,15.205943037613444,0.06670822956264852,0,0,1.0143615388696745,0,0,0,0,0.05859375,,
1.9583500000005587,1000,,,,-0.0625,0.046875,-0.95703125,-0.0008240176488433149,-0.023517903394714528,15.205978695150769,0.06696253909200076,0,0,1.018230942806164,0,0,0,0,0.05859375,,
1.9661650000000372,1000,,,,-0.0625,0.05078125,-0.95703125,-0.0008240176488433149,-0.023517903394714528,15.206076385665874,0.06709544099964261,0,0,1.0202584009705034,0,0,0,0,0.05859375,,
1.9745299999993295,1000,,,,-0.0625,0.05078125,-0.953125,-0.0008240176488433149,-0.023517903394714528,15.20597397218958,0.06775947998592186,0,0,1.0303488890350285,0,0,0,0,0.05859375,,
1.9824400000004099,1000,,,,-0.0625,0.048828125,-0.95703125,-0.0008240176488433149,-0.023517903394714528,15.205975309082076,0.06753630422765527,0,0,1.0269553745523816,0,0,0,0,0.05859375,,
1.9903300000000745,1000,,,,-0.0625,0.05078125,-0.955078125,-0.0008240176488433149,-0.023517903394714528,15.205877702938183,0.06667938686488767,0,0,1.0139186019743847,0,0,0,0,0.05859375,,
1.9980999999996274,1000,,,,-0.0625,0.0546875,-0.953125,-0.0008240176488433149,-0.023517903394714528,15.205689527938345,0.06587807874392701,0,0,1.0017216120772285,0,0,0,0,0.05859375,,
2.006295000000857,1000,,,,-0.0625,0.052734375,-0.95703125,-0.0008240176488433149,-0.023517903394714528,15.205737685364909,0.06553264730204507,0,0,0.9964722447024337,0,0,0,0,0.05859375,,
2.0171500000003726,1000,,,,-0.0625,0.046875,-0.95703125,-0.0008240176488433149,-0.023517903394714528,15.205589027494689,0.0662602861424426,0,0,1.0075266799261835,0,0,0,0,0.05859375,,
2.026229999999516,1000,,,,-0.0625,0.046875,-0.953125,-0.0008240176488433149,-0.023517903394714528,15.205470499476998,0.06667926043658967,0,0,1.013889527495508,0,0,0,0,0.05859375,,
2.034754999999888,1000,,,,-0.0625,0.046875,-0.955078125,-0.0008240176488433149,-0.023517903394714528,15.205463970739254,0.06568398793503513,0,0,0.9987555120006486,0,0,0,0,0.05859375,,
2.043535000000149,1000,,,,-0.0625,0.05078125,-0.953125,-0.0008240176488433149,-0.022545059780590963,15.205234201963659,0.06554579042452247,0,0,0.996639094357691,0,0,0,0,0.05859375,,
2.052625000000931,1000,,,,-0.0625,0.048828125,-0.955078125,-0.0008240176488433149,-0.022545059780590963,15.20553204474584,0.06613099261067072,0,0,1.005556927292404,0,0,0,0,0.05859375,,
2.060179999999702,1000,,,,-0.0625,0.0546875,-0.953125,-0.0008240176488433149,-0.022545059780590963,15.20584388317422,0.06682664385729252,0,0,1.0161555137304734,0,0,0,0,0.05859375,,
2.067764999999665,1000,,,,-0.0625,0.052734375,-0.955078125,-0.0008240176488433149,-0.022545059780590963,15.205948263616753,0.06791056871650611,0,0,1.0326445944559823,0,0,0,0,0.05859375,,
2.0755049999998882,1000,,,,-0.0625,0.05078125,-0.955078125,-0.0008240176488433149,-0.022545059780590963,15.205852458886746,0.06767887170694613,0,0,1.0291149377597473,0,0,0,0,0.05859375,,
2.083530000000261,1000,,,,-0.0625,0.05078125,-0.953125,-0.0008240176488433149,-0.022545059780590963,15.20577094662394,0.06776824942263539,0,0,1.0304684781742737,0,0,0,0,0.05859375,,
2.0917099999999627,1000,,,,-0.0625,0.05078125,-0.953125,-0.0007089268358799926,-0.022545059780590963,15.205815176780344,0.06839949303621241,0,0,1.0400700492941202,0,0,0,0,0.05859375,,
2.099554999999702,1000,,,,-0.0625,0.04296875,-0.953125,-0.0007089268358799926,-0.022545059780590963,15.206122047678479,0.0681415725242385,0,0,1.036169068324305,0,0,0,0,0.05859375,,
2.1071000000005586,1000,,,,-0.0625,0.048828125,-0.955078125,-0.0007089268358799926,-0.022545059780590963,15.205927187816476,0.06852334072692227,0,0,1.0419609297595194,0,0,0,0,0.05859375,,
2.1153050000006335,1000,,,,-0.0625,0.046875,-0.95703125,-0.0007089268358799926,-0.022545059780590963,15.205830291298973,0.06934711774021932,0,0,1.0544805035485032,0,0,0,0,0.05859375,,
2.130945000000298,1000,,,,-0.0625,0.048828125,-0.955078125,-0.0007089268358799926,-0.022545059780590963,15.205481169888115,0.0699735932093069,0,0,1.063982153933527,0,0,0,0,0.05859375,,
2.1395849999999625,1000,,,,-0.0625,0.05078125,-0.955078125,-0.0007089268358799926,-0.022545059780590963,15.205545342181141,0.07054645494191449,0,0,1.0726973193494196,0,0,0,0,0.05859375,,
2.1486150000002233,1000,,,,-0.0625,0.046875,-0.95703125,-0.0007089268358799926,-0.022545059780590963,15.205461293051888,0.06991105533146408,0,0,1.063029845798986,0,0,0,0,0.05859375,,
2.156524999999441,1000,,,,-0.0625,0.05078125,-0.95703125,-0.0007089268358799926,-0.022545059780590963,15.205455033630892,0.07022297968348501,0,0,1.067772359904807,0,0,0,0,0.05859375,,
2.167625,1000,,,,-0.0625,0.05078125,-0.953125,-0.0007089268358799926,-0.022545059780590963,15.205376127899019,0.06984178191354183,0,0,1.0619705634380985,0,0,0,0,0.05859375,,
2.1760200000004843,1000,,,,-0.0625,0.04296875,-0.955078125,-0.0007089268358799926,-0.022545059780590963,15.205547513794293,0.06997492743547079,0,0,1.064007083894359,0,0,0,0,0.05859375,,
2.1846200000001117,1000,,,,-0.0625,0.05078125,-0.953125,-0.0007089268358799926,-0.022159157793830424,15.205331747189215,0.06940563607468331,0,0,1.055335721640243,0,0,0,0,0.05859375,,
2.192280000000261,1000,,,,-0.0625,0.048828125,-0.95703125,-0.0007089268358799926,-0.022159157793830424,15.205364223165132,0.06910484078203541,0,0,1.050764273674684,0,0,0,0,0.05859375,,
2.2005800000000746,1000,,,,-0.0625,0.05078125,-0.95703125,-0.0007089268358799926,-0.022159157793830424,15.205230345261432,0.06881175182014457,0,0,1.0462985368862607,0,0,0,0,0.05859375,,
2.209464999999851,1000,,,,-0.0625,0.05078125,-0.955078125,-0.0007089268358799926,-0.022159157793830424,15.205380946257838,0.06874264852256673,0,0,1.0452581580403357,0,0,0,0,0.05859375,,
2.2176399999996645,1000,,,,-0.0625,0.05078125,-0.95703125,-0.0007089268358799926,-0.022159157793830424,15.205445214324193,0.0673813462478854,0,0,1.0245633688396305,0,0,0,0,0.05859375,,
2.2253700000001118,1000,,,,-0.0625,0.048828125,-0.95703125,-0.0007089268358799926,-0.022159157793830424,15.205278750610988,0.06749392674316057,0,0,1.0262639701030742,0,0,0,0,0.05859375,,
2.2337000000001863,1000,,,,-0.0625,0.05078125,-0.95703125,-0.0007089268358799926,-0.022159157793830424,15.205281465650092,0.06792481105509333,0,0,1.032815870593795,0,0,0,0,0.05859375,,
2.2504000000003725,1000,,,,-0.0625,0.048828125,-0.95703125,-0.000691790611694845,-0.022159157793830424,15.20549465670116,0.06865439273528322,0,0,1.043924001895412,0,0,0,0,0.05859375,,undefined,0,
2.258264999999665,1000,,,,-0.0625,0.046875,-0.95703125,-0.000691790611694845,-0.022159157793830424,15.205813156171647,0.06870611466087635,0,0,1.0447323422197914,0,0,0,0,0.05859375,,
2.2660950000006705,1200,,,,-0.0625,0.046875,-0.95703125,-0.000691790611694845,-0.022159157793830424,15.205854462563321,0.06864980015337652,0,0,1.0438788700163004,0,0,0,0,0.05859375,,
2.274424999999814,1200,,,,-0.0625,0.046875,-0.95703125,-0.000691790611694845,-0.022159157793830424,15.205762873480337,0.06902339158687242,0,0,1.0495533251933595,0,0,0,0,0.05859375,,
2.282515000000596,1200,,,,-0.0625,0.05078125,-0.95703125,-0.000691790611694845,-0.022159157793830424,15.205741987907393,0.06852678278649989,0,0,1.042000578312891,0,0,0,0,0.05859375,,
2.291125,1200,,,,-0.0625,0.05078125,-0.95703125,-0.000691790611694845,-0.022159157793830424,15.20578786712479,0.06804809180552052,0,0,1.0347248487573777,0,0,0,0,0.05859375,,
2.299680000000633,1200,,,,-0.0625,0.052734375,-0.955078125,-0.000691790611694845,-0.022159157793830424,15.205762540632229,0.06801980284866119,0,0,1.0342929701773615,0,0,0,0,0.05859375,,
2.30905999999959,1200,,,,-0.0625,0.05078125,-0.955078125,-0.000691790611694845,-0.022159157793830424,15.205956005236926,0.06940437837301297,0,0,1.0553599241108524,0,0,0,0,0.05859375,,
2.320375000000931,1200,,,,-0.0625,0.048828125,-0.953125,-0.000691790611694845,-0.022159157793830424,15.206069030969905,0.06762147434087191,0,0,1.0282568068032585,0,0,0,0,0.05859375,,
2.3380099999997763,1200,,,,-0.15625,0.005859375,-1.140625,-0.000691790611694845,-0.021984353799763896,15.204190972512087,0.13807882848676548,0,0,2.0993768775735244,0,0,0,0,0.060546875,,
2.3464749999996273,1200,,,,-0.03125,0.06640625,-1.0234375,-0.000691790611694845,-0.021984353799763896,15.20304465451367,0.17547890402026425,0,0,2.6678136137451958,0,0,0,0,0.0625,,
2.3571800000006333,1200,,,,-0.03125,0.0390625,-0.994140625,-0.000691790611694845,-0.021984353799763896,15.20217695021769,0.20319762260683186,0,0,3.0890462147326123,0,0,0,0,0.0625,,
2.3644900000002234,1200,,,,0,0.021484375,-0.931640625,-0.000691790611694845,-0.021984353799763896,15.201818538113173,0.2141834749429923,0,0,3.255978319945879,0,0,0,0,0.064453125,,
2.372839999999851,1200,,,,-0.1875,0.296875,-0.921875,-0.000691790611694845,-0.021984353799763896,15.201465925002333,0.220542935684007,0,0,3.3525759218004136,0,0,0,0,0.06640625,,
2.381785000000149,1200,,,,-0.03125,0.013671875,-1.0234375,-0.000691790611694845,-0.021984353799763896,15.201092414370775,0.22560655815673777,0,0,3.4294661398286856,0,0,0,0,0.06640625,,
2.3898099999995903,1200,,,,-0.03125,0.0234375,-1.01171875,-0.000691790611694845,-0.021984353799763896,15.20084180741211,0.22914901423616355,0,0,3.4832579157283474,0,0,0,0,0.06640625,,
2.3983499999996276,1200,,,,0,0.015625,-1.0390625,-0.0006369456300992444,-0.021984353799763896,15.200283762134726,0.23588123553780702,0,0,3.5854617143376046,0,0,0,0,0.068359375,,
2.4068349999999628,1200,,,,-0.125,-0.04296875,-0.7734375,-0.0006369456300992444,-0.021984353799763896,15.199877027125343,0.25377562429432804,0,0,3.8573582817557486,0,0,0,0,0.068359375,,
2.414514999999665,1200,,,,0.0625,-0.0390625,-1.0703125,-0.0006369456300992444,-0.021984353799763896,15.199425073449904,0.26135623190167756,0,0,3.9724644642687457,0,0,0,0,0.0703125,,
2.4229150000000375,1200,,,,-0.15625,0.080078125,-0.9375,-0.0006369456300992444,-0.021984353799763896,15.199649054351925,0.25771127855416,0,0,3.917120991371563,0,0,0,0,0.072265625,,
2.431860000000335,1200,,,,-0.09375,0.052734375,-0.9609375,-0.0006369456300992444,-0.021984353799763896,15.19988830790737,0.2525069270438227,0,0,3.8380770880390203,0,0,0,0,0.072265625,,
2.439910000000149,1200,,,,-0.03125,0.076171875,-0.9765625,-0.0006369456300992444,-0.021984353799763896,15.200025424090262,0.24787490410770932,1,0,3.767704844431117,0.00004803455307543445,0.0012749022298397992,457.67790875953847,0.0058349458642595175,0.07421875,,
2.4477099999999625,1200,,,,-0.0625,0.0234375,-0.98828125,-0.0006369456300992444,-0.021984353799763896,15.200481405823464,0.24393138252502636,1,0,3.707874444368474,0.00006256313989872775,0.0016873047034736775,351.39466841578644,0.005929098767935298,0.07421875,,
2.4558449999997394,1200,,,,-0.03125,0.0625,-0.978515625,-0.0006369456300992444,-0.021984353799763896,15.200655986636466,0.23884417089965718,1,0,3.630588076259097,0.00006834364602148618,0.0018824401057336813,321.67370457309755,0.006055314824483266,0.072265625,,
2.466035000000149,1200,,,,0,0.078125,-0.9921875,-0.0006369456300992444,-0.021984353799763896,15.200773086985176,0.231144753540986,1,0,3.5135789488236413,0.00007078769493303996,0.0020146891805786784,310.56744848888644,0.006256968783104856,0.072265625,,
2.484179999999702,1200,,,,-0.09375,0.08203125,-0.974609375,-0.0006369456300992444,-0.020360158679985516,15.201231664785187,0.21642608167202668,1,0,3.289943005798197,0.0000719120241261981,0.002185813675174929,283.125929597748,0.006188605287113716,0.072265625,,
2.5007649999996646,1200,,,,-0.03125,0.033203125,-0.98046875,-0.0006369456300992444,-0.020360158679985516,15.201580223601772,0.2047773634033936,1,0,3.112939517754341,0.0000720310194971622,0.0023139228721387115,282.6582050638287,0.006540492856948673,0.072265625,,
2.5089749999996274,1200,,,,-0.03125,0.0234375,-0.962890625,-0.0006369456300992444,-0.020360158679985516,15.20189780688747,0.20034827599044272,1,0,3.0456740173927965,0.0000720436782083651,0.00236544284768982,282.6085395182039,0.0066849434849940124,0.072265625,,
2.5159349999995904,1200,,,,-0.0625,0.046875,-1.00390625,-0.0006369456300992444,-0.020360158679985516,15.201990121199351,0.19546812140122954,1,0,2.971504450550887,0.00007204832540210351,0.0024246413424939164,282.5903109663543,0.006851801509572347,0.072265625,,
2.523825000000186,1200,,,,-0.03125,0.013671875,-0.94140625,-0.0006369456300992444,-0.020360158679985516,15.202086011693574,0.19102239121015058,317,0,2.9039388213360877,0.021142838362134524,0.7280745106195733,0.9629813335019985,0.007011221631252517,0.072265625,,
2.5330050000008195,1200,,,,0,0.0078125,-0.97265625,-0.0006369456300992444,-0.020360158679985516,15.202081475222922,0.18665298391038337,452,0,2.837513868999121,0.030138856388196297,1.0621571481103351,0.6755451639485381,0.007175351247593082,0.072265625,,
2.5425250000003725,1200,,,,-0.0625,0.0703125,-1.0078125,0.0006572295186430893,-0.020360158679985516,15.202439358754447,0.1807628950054107,505,0,2.7480369496326533,0.0347434421228292,1.264300399143962,0.5860144371420032,0.007408982867827589,0.072265625,,
2.556285000000149,1200,,,,0,0.02734375,-0.96875,0.0006572295186430893,-0.020360158679985516,15.202813183535154,0.1733805892070455,526,0,2.635872707365964,0.036180434292476145,1.372616901846955,0.5627394772378254,0.007724257177931588,0.072265625,,
2.583464999999851,1200,,,,-0.01953125,0.01953125,-0.9375,0.0006572295186430893,-0.020360158679985516,15.203243519936755,0.16109869628434828,530,0,2.4492227103552775,0.036509191780178765,1.490644016398282,0.5576721282293426,0.00831290621057165,0.072265625,,
2.600504999999888,1200,,,,-0.03125,0.037109375,-0.95703125,0.0006572295186430893,-0.020360158679985516,15.203283859836855,0.15363459598519374,538,0,2.335750373454252,0.037039384674699576,1.5857595527181034,0.5496894416254406,0.008716752830858229,0.072265625,,
2.607234999999404,1200,,,,0,0,-0.958984375,0.0006572295186430893,-0.020360158679985516,15.203431075711542,0.15102214940656578,545,0,2.2960548394085336,0.037489239385371055,1.6327675951776626,0.5430934053020665,0.008867453133319025,0.072265625,,
2.6154150000000373,1200,,,,-0.0625,0.03125,-1.01171875,0.0006572295186430893,-0.020360158679985516,15.203554208211601,0.1480624179142196,548,0,2.251074996957718,0.03769500483651992,1.6745334956615814,0.5401288252458335,0.00904463809846489,0.072265625,,
2.6220750000001862,1200,,,,-0.0625,0.046875,-0.890625,0.0006572295186430893,-0.020360158679985516,15.203487135751699,0.14524192724248294,549,0,2.2081837724028737,0.03777304449250005,1.7105933375914928,0.5390129112846089,0.009220318949192464,0.072265625,,
2.633200000000186,1200,,,,-0.0625,0.05859375,-0.953125,0.0006572295186430893,-0.020360158679985516,15.203422333848069,0.14393596298107375,549,0,2.1883192342303857,0.037807253284105974,1.7276845486121444,0.538525201156172,0.009304016690757654,0.072265625,,
2.6408549999995157,1200,,,,-0.03125,0.033203125,-1.00390625,0.0006572295186430893,-0.007113856769134479,15.20326092153593,0.1400726695756212,550,0,2.129561343534257,0.03782548953262938,1.7762103753185876,0.18807044818277519,0.0033405268135306213,0.072265625,,
2.6483849999997764,1200,,,,-0.0625,0.068359375,-1.02734375,0.0006572295186430893,-0.007113856769134479,15.202509326472615,0.16450378036469784,550,0,2.5008702552343216,0.03783025910217288,1.512683795690486,0.18804673660630247,0.002844552512968306,0.072265625,,
2.657354999999516,1200,,,,-0.09375,0.072265625,-0.978515625,0.0006572295186430893,-0.007113856769134479,15.201798213914467,0.18027978633702352,550,0,2.740576933943046,0.03783212931260605,1.3804439803911839,0.18803744061966055,0.002595751529915751,0.07421875,,
2.664890000000596,1200,,,,-0.1875,0.0546875,-1.01953125,0.0006572295186430893,-0.007113856769134479,15.200400600300899,0.2104414196227973,550,0,3.1987938811625414,0.037832868173616675,1.1827229130458081,0.18803376832252533,0.0022239184622139772,0.07421875,,
2.6727599999997764,1200,,,,0.03125,0.05078125,-0.93359375,0.0006572295186430893,-0.007113856769134479,15.199510876161296,0.2341735383706852,583,0,3.559323243374404,0.04015645589901533,1.1282048061739156,0.1771535014699571,0.0019986543178894343,0.07421875,,
2.681040000000037,1200,,,,-0.03125,0.041015625,-0.984375,0.0006572295186430893,-0.007113856769134479,15.198343128900184,0.25769500988445015,597,0,3.916537182829198,0.04109692794549287,1.049317956833633,0.1730994778629107,0.0018163639044007816,0.076171875,,
2.6889350000005217,1200,,,,-0.125,0.0859375,-0.9609375,0.0006572295186430893,-0.007113856769134479,15.197779238029046,0.27335111669559886,602,0,4.154329926008427,0.04145867357407572,0.99796295220852,0.17158910683487963,0.001712395716237596,0.076171875,,
2.6963300000000747,1200,,,,-0.03125,0.033203125,-0.96875,0.023862517304857153,-0.007113856769134479,15.197398444809908,0.28425752780521113,604,0,4.319974910992425,1.5105548343261261,34.966750165201944,0.004709432989440627,0.0016467356676153051,0.076171875,,
2.7050250000003726,1200,,,,0,0.08203125,-0.90625,0.023862517304857153,-0.007113856769134479,15.197178398814325,0.29073140147281673,605,0,4.418296974319706,1.5127520362718117,34.23835122592078,0.00470259275714917,0.0016100902249174445,0.076171875,,
2.7136949999993667,1200,,,,-0.03125,0.00390625,-0.9296875,0.023862517304857153,-0.007113856769134479,15.197118656605465,0.2940519250766176,670,0,4.468741996592618,1.6738398364266844,37.456622863950855,0.004250022382261585,0.0015919148553572217,0.076171875,,
2.7220650000004096,1200,,,,-0.03125,-0.0078125,-0.998046875,0.023862517304857153,-0.007113856769134479,15.19699473158703,0.2947791813921284,823,0,4.479757666597712,2.0556783626064057,45.888159931821775,0.0034605884356902904,0.00158800035595169,0.076171875,,
2.729820000000298,1200,,,,-0.0625,0.03515625,-0.96484375,0.023862517304857153,-0.007113856769134479,15.196823388377936,0.2934881505792913,879,0,4.460087590935159,2.196520672702996,49.248375237456834,0.00323869329232413,0.0015950038253941324,0.076171875,,
2.73805999999959,1200,,,,-0.0625,0.05078125,-0.998046875,0.023862517304857153,-0.007113856769134479,15.196981681402033,0.29401580490199447,903,0,4.468152801138284,2.256158784489784,50.494217295232524,0.0031530833813823225,0.0015921247740950555,0.076171875,,
2.7459650000007825,1200,,,,-0.0625,0.064453125,-0.970703125,0.023862517304857153,-0.007113856769134479,15.197192968219126,0.29039453935912185,912,0,4.413181851557678,2.279084712009062,51.64266483160297,0.00312136566563314,0.0016119564088716556,0.076171875,,
2.7540449999999255,1200,,,,0,0.0390625,-1.01953125,0.023862517304857153,-0.007113856769134479,15.197430184326997,0.2868961816271379,945,0,4.360084690428426,2.3606575189557413,54.142469391432414,0.0030135064963940045,0.0016315868324189512,0.076171875,,
2.7619950000001117,1200,,,,-0.125,-0.00390625,-0.953125,0.023862517304857153,-0.007113856769134479,15.19755709696343,0.2827066362852667,1015,0,4.296450246635814,2.5375346734880257,59.06119069980977,0.002803452044797467,0.0016557521583555486,0.076171875,,
2.7701650000000373,1200,,,,0,0.021484375,-0.97265625,0.023862517304857153,-0.007113856769134479,15.197773693110715,0.27962515398575805,1043,0,4.2496798091767864,2.6063843262917556,61.33131067106543,0.002729396696171723,0.0016739747671748752,0.076171875,,
2.777959999999963,1200,,,,-0.0625,0.16015625,-0.984375,0.023862517304857153,-0.007113856769134479,15.198143827547394,0.27625241066048306,1054,0,4.198523869924709,2.6337737242512227,62.730945585845944,0.002701012886426656,0.0016943709240509928,0.076171875,,
2.7891150000002236,1200,,,,-0.0625,-0.0078125,-0.9453125,0.023862517304857153,0.0011608905431882738,15.198332054311916,0.27348194917220237,1058,0,4.156469474379585,2.644564814873781,63.62526733745643,0.0004389722409748088,0.0002792972618574455,0.078125,,
2.8048650000002233,1200,,,,-0.0625,0.083984375,-1.0078125,0.023862517304857153,0.0011608905431882738,15.19858903503322,0.26072591441004433,1090,0,3.9626660239015092,2.7247563085804174,68.76068515856689,0.0004260529793187602,0.00029295694771806676,0.078125,,
2.813910000000149,1200,,,,-0.0625,0.025390625,-1.00390625,0.023862517304857153,0.0011608905431882738,15.198801683603008,0.25631056339156305,1095,0,3.895613422400924,2.7369908432809567,70.25827633569732,0.0004241484936049918,0.00029799942071069254,0.078125,,
2.8219350000005217,1200,,,,0,0.09765625,-0.9140625,0.023862517304857153,0.0011608905431882738,15.198794984780468,0.25147035692577413,1097,0,3.8220463996644103,2.741460340268725,71.72755256214145,0.00042345698974236495,0.0003037353348955168,0.078125,,
2.8299349999995904,1200,,,,-0.03125,0.009765625,-0.978515625,0.023862517304857153,0.0011608905431882738,15.199046389893114,0.24709406865842778,1101,0,3.755594212206878,2.7510664061209975,73.25249349834321,0.0004219783792224518,0.00030910968480434063,0.078125,,
2.8379749999996275,1200,,,,-0.0625,0.1328125,-1.046875,0.023862517304857153,0.0011608905431882738,15.199300235842731,0.24211545617974659,1109,0,3.6799855102139927,2.771294994400975,75.3072257135008,0.00041889822106044123,0.00031546062884382596,0.078125,,
2.8457700000004844,1200,,,,-0.0625,0.015625,-0.966796875,0.026591791688169227,0.0011608905431882738,15.199333482254346,0.23795001111543582,1112,0,3.6166815710496376,3.096486810055373,85.61679399264081,0.000374905696164588,0.0003209822375519111,0.078125,,
2.8539550000000746,1200,,,,-0.03125,0.091796875,-0.9296875,0.026591791688169227,0.0011608905431882738,15.199365868839678,0.2338922937415162,1113,0,3.5550145464794256,3.0998619604021114,87.19688540998918,0.00037449749634583217,0.0003265501527519537,0.078125,,
2.8619300000006334,1200,,,,0.0625,-0.04296875,-0.921875,0.026591791688169227,0.0011608905431882738,15.199462438397186,0.23020623823513986,1114,0,3.4990110711397224,3.1012121880875263,88.63110533335288,0.0003743344449784904,0.0003317767562279077,0.078125,,
2.869979999999516,1200,,,,-0.0625,0.0546875,-1.01171875,0.026591791688169227,0.0011608905431882738,15.199686080420754,0.2277496255531154,1115,0,3.461722813340727,3.1052258379999396,89.701746946147,0.00037385060016633043,0.0003353505193178536,0.078125,,
2.877765000000596,1200,,,,-0.0625,0.08203125,-1.01171875,0.026591791688169227,0.0011608905431882738,15.199894660739387,0.22336334317095158,1118,0,3.3950992872690464,3.113669564090057,91.7107071291171,0.00037283678286765604,0.0003419312500053783,0.078125,,
2.8851049999995158,1200,,,,-0.0625,-0.015625,-0.974609375,0.026591791688169227,0.0011608905431882738,15.199964866735964,0.2208438740801428,1119,0,3.356819127052032,3.1170572239771057,92.8574673224802,0.0003724315788168541,0.00034583053159845735,0.078125,,
2.8920600000005217,1200,,,,0,0.09375,-0.9375,0.026591791688169227,0.0011608905431882738,15.199966404601184,0.2182739067747268,1120,0,3.3177560499768983,3.1183058683005975,93.98840123650172,0.0003722824482964949,0.00034990232123798166,0.078125,,
2.900050000000745,1200,,,,0,-0.04296875,-0.98046875,0.026591791688169227,0.0011608905431882738,15.200056730976616,0.21572438015274348,1120,0,3.2790228165764668,3.118864705632801,95.11567561732058,0.0003722157428283621,0.0003540355185452251,0.078125,,
2.9078250000001864,1200,,,,-0.0625,0.056640625,-1,0.026591791688169227,0.0011608905431882738,15.200249907914099,0.2120800894454597,1121,0,3.2236703600637626,3.120765136644029,96.80782425230046,0.0003719890771519764,0.0003601145320470397,0.078125,,
2.916875,1200,,,,-0.0625,0.09765625,-1.0390625,0.026591791688169227,0.0011608905431882738,15.200434135460162,0.2092434904452511,1122,0,3.180591894786827,3.12481849647152,98.24644593961513,0.00037150655134022257,0.00036499198312460023,0.078125,,
2.9260800000000744,1200,,,,-0.0625,-0.009765625,-0.970703125,0.026591791688169227,0.0011608905431882738,15.200326058782531,0.20588683482509473,1123,0,3.1295470205521423,3.1265952263607675,99.90567982612212,0.0003712954377338778,0.00037094523123140655,0.080078125,,
2.934889999999665,1200,,,,0,0.08203125,-0.931640625,0.026591791688169227,0.0809899085587883,15.200308265670452,0.20164322807986856,1123,0,3.0650392264988984,3.1271455027388924,102.02627998046655,0.02589898950587805,0.02642377554537879,0.078125,,
2.945764999999665,1200,,,,0,-0.046875,-0.939453125,0.026591791688169227,0.0809899085587883,15.200692385636229,0.1990661064806102,1123,0,3.0259426490180625,3.1273346677927996,103.35075811194369,0.025897422937452716,0.026765182937313784,0.078125,,
2.9541899999994783,1200,,,,-0.0625,0.0859375,-1.017578125,0.026591791688169227,0.0809899085587883,15.20091156978041,0.1950247062681182,1124,0,2.9645533139040636,3.1292482811339024,105.55547328015327,0.02588158601766208,0.027319430613353186,0.078125,,
2.9620500000007453,1200,,,,-0.0625,0,-1.01171875,0.026591791688169227,0.0809899085587883,15.200865868482131,0.19200179145314428,1124,0,2.918593478387525,3.1297580177762634,107.23514737329583,0.025877370742014353,0.027749636651533224,0.080078125,,
2.9701049999995157,1200,,,,-0.0625,0.099609375,-0.923828125,0.026591791688169227,0.0809899085587883,15.200824811319466,0.18939239935336366,1124,0,2.878920683165935,3.1299493835538836,108.7195420789396,0.025875788594008752,0.028132038868720798,0.080078125,,
2.9788899999996645,1200,,,,0.0625,-0.05078125,-0.94921875,0.026591791688169227,0.0809899085587883,15.20129607509034,0.1874504929265062,1124,0,2.8494904423974483,3.13003337664955,109.84537200328575,0.02587509422838217,0.02842259351136711,0.080078125,,
2.9874000000003726,1200,,,,-0.0625,0.0390625,-1.01171875,0.026591791688169227,0.0809899085587883,15.201429271671758,0.18549940365357356,1124,0,2.8198560645770883,3.131125135930912,111.03847374566284,0.025866072112352444,0.02872129169150869,0.080078125,,
2.9954550000000744,1200,,,,-0.0625,0.078125,-1.00390625,0.014980165053791492,0.0809899085587883,15.20149116715895,0.18350781200186825,1125,0,2.7895923832510654,1.7644271887412515,63.25035870240443,0.04590153057920559,0.029032882741241398,0.080078125,,
3.0042949999999253,1200,,,,-0.09375,0.02734375,-0.994140625,0.014980165053791492,0.0809899085587883,15.201410927825686,0.18193870502256462,1125,0,2.765725018724468,1.7646473451742566,63.80415020391648,0.045895803929476155,0.029283427676457967,0.080078125,,
3.0121050000004472,1200,,,,-0.03125,0.0859375,-0.9375,0.014980165053791492,0.0809899085587883,15.201472540802751,0.1799469181611194,1125,0,2.7354581352283365,1.7647239320633208,64.51292049900132,0.04589381210697055,0.029607438518530954,0.080078125,,
3.019745000000112,1200,,,,0,0,-0.90625,0.014980165053791492,0.0809899085587883,15.201595234437345,0.17933635929168001,1125,0,2.7261987447697464,1.7645681632253996,64.72632146173312,0.04589786342441392,0.029707998624153388,0.080078125,,
3.027879999999888,1200,,,,-0.0625,0.05078125,-1.0625,0.014980165053791492,0.0809899085587883,15.201582593871828,0.17875471892610012,1125,0,2.7173546237994546,1.7641342970668654,64.92101846465003,0.04590915141406526,0.029804688666489453,0.08203125,,
3.035745000000112,1200,,,,-0.09375,0.099609375,-1.009765625,0.014980165053791492,0.0809899085587883,15.201800354285215,0.17562866270465985,1124,0,2.6698718669263366,1.763960425732589,66.06910419874684,0.04591367662069429,0.030334754848002177,0.08203125,,
3.0443650000002234,1200,,,,-0.0625,-0.037109375,-0.978515625,0.014980165053791492,0.0809899085587883,15.201908404623257,0.17458301111770225,1124,0,2.6539949440146335,1.7638922160807355,66.46177755759169,0.045915452101003715,0.030516225639931647,0.08203125,,
3.0535650000004098,1200,,,,-0.0625,0.08203125,-0.9140625,0.014980165053791492,0.0809899085587883,15.20209911522562,0.17321464292896974,1124,0,2.6332261700146127,1.763863598385931,66.98488790942491,0.045916197053389056,0.030756913128483325,0.08203125,,
3.0611150000002234,1200,,,,0.03125,0.07421875,-0.96484375,0.014980165053791492,0.0809899085587883,15.202061843895796,0.17102419966592863,1125,0,2.59992046012423,1.7644505525882157,67.86555895267298,0.04590092277734099,0.031150917807277242,0.08203125,,
3.0691650000000372,1200,,,,0,-0.03515625,-1,0.014980165053791492,0.0809899085587883,15.20215691983589,0.16956680481466802,1125,0,2.577781175187767,1.7649829728699824,68.4690768114334,0.04588707642153239,0.03141845760158015,0.08203125,,
3.0772099999999627,1200,,,,-0.0625,0.08203125,-1,0.014980165053791492,0.0809899085587883,15.202051175709242,0.16850171005973608,1125,0,2.5615716195226286,1.7651930074320377,68.91054671198289,0.04588161646788448,0.03161727274831437,0.08203125,,
3.0847549999998884,1200,,,,-0.0625,-0.005859375,-0.982421875,0.014980165053791492,0.11705191842509392,15.202081370697712,0.16759518418512717,1125,0,2.5477956273193736,1.7652758372203763,69.28639873197702,0.06630800465121939,0.04594242849386173,0.08203125,,
3.09243499999959,1200,,,,-0.0625,0.02734375,-0.9453125,0.014980165053791492,0.11705191842509392,15.20199154554455,0.16758534149199036,1125,0,2.5476309445184335,1.7653063030199148,69.29207336008403,0.06630686030229024,0.04594539828343139,0.08203125,,
3.1027400000002237,1200,,,,0,0.0703125,-0.931640625,0.014980165053791492,0.11705191842509392,15.202090129095888,0.16565773322547978,1125,0,2.518343791075466,1.7653954997613386,70.10144945331001,0.0663035101431481,0.046479721648769234,0.08203125,,
3.1218950000004844,1200,,,,-0.0625,0.09765625,-1.04296875,0.014980165053791492,0.11705191842509392,15.202454164447177,0.1645188779363551,1125,0,2.5010907010137187,1.7655023135747885,70.58929581638968,0.06629949874610316,0.046800349294670335,0.08203125,,
3.130155000000261,1200,,,,-0.0625,0.01171875,-1.0390625,0.014980165053791492,0.11705191842509392,15.202429194779548,0.16324129710282592,1125,0,2.4816642608696826,1.765510667443104,71.14220466004507,0.06629918503670898,0.047166701906757466,0.083984375,,
3.138410000000149,1200,,,,-0.09375,0.1484375,-0.935546875,0.014980165053791492,0.11705191842509392,15.20250761385055,0.1627973657020265,1126,0,2.47492819159987,1.7661186827997284,71.36040103280955,0.06627636045361239,0.04729507660964819,0.083984375,,
3.1455200000004844,1200,,,,0.0625,0.01953125,-0.9609375,0.009420472851539964,0.11705191842509392,15.202483597754782,0.16208865221453228,1126,0,2.464150076673606,1.1109761766582817,45.08557279749801,0.10535952154903605,0.04750194378708625,0.083984375,,
3.1534500000001864,1200,,,,-0.03125,-0.03515625,-0.93359375,0.009420472851539964,0.11705191842509392,15.20246019953232,0.16171334180813157,1126,0,2.458440642571486,1.1111115708782204,45.19578596439152,0.10534668299113861,0.047612261365261054,0.083984375,,
3.1615649999994786,1200,,,,-0.0625,0.10546875,-1.01171875,0.009420472851539964,0.11705191842509392,15.202470489153077,0.16285648748364678,1126,0,2.4758209449372677,1.1111661901639118,44.88071693698619,0.10534150468331584,0.047278022534081025,0.083984375,,
3.169304999999702,1200,,,,-0.0625,0.052734375,-0.986328125,0.009420472851539964,0.11705191842509392,15.202449949576472,0.16362337442910185,1126,0,2.4874761603392317,1.1111860734569345,44.671225042228976,0.10533961972808185,0.04705649858735968,0.083984375,,
3.1771349999997764,1200,,,,-0.0625,-0.0390625,-0.96875,0.009420472851539964,0.11705191842509392,15.20239573311775,0.16380541712146723,1127,0,2.490234774308967,1.1121115538452035,44.65890386394638,0.10525195788172394,0.04700437068532042,0.083984375,,
3.185179999999702,1200,,,,-0.0625,0.0625,-0.939453125,0.009420472851539964,0.11705191842509392,15.202475583606294,0.1613924739557029,1128,0,2.453565144689388,1.1124840196161296,45.34153177159541,0.10521671894710317,0.04770687205043103,0.083984375,,
3.19319000000041,1200,,,,0.03125,0.033203125,-0.9140625,0.009420472851539964,0.11705191842509392,15.202743886045777,0.1604173223198109,1128,0,2.43878346611334,1.112627364686824,45.62222846540801,0.10520316337720223,0.04799602754878365,0.083984375,,
3.201344999999739,1200,,,,0,-0.0078125,-0.9140625,0.009420472851539964,0.11705191842509392,15.20270730091061,0.16011849799223357,1128,0,2.4342346584373704,1.1126847732265068,45.70984023129399,0.10519773546075652,0.048085716806051094,0.083984375,,
3.2089500000001863,1200,,,,-0.0625,0.041015625,-1.015625,0.009420472851539964,0.11705191842509392,15.202769555646238,0.16004951622923946,1129,0,2.43319591272579,1.1136954167711035,45.7708896742098,0.10510227182622182,0.04810624488266808,0.083984375,,
3.2173999999994414,1200,,,,-0.0625,0.078125,-1.015625,0.009420472851539964,0.11705191842509392,15.202631452496266,0.158790863142132,1131,0,2.414038970373606,1.1161190463689366,46.23450822735482,0.1048740444004591,0.048487998686690015,0.083984375,,
3.224929999999702,1200,,,,-0.0625,0.03125,-1.046875,0.009420472851539964,0.11705191842509392,15.202762122637091,0.1585759448971464,1132,0,2.410792368643724,1.1170476965363751,46.335292539722516,0.10478685806168912,0.048553297226067466,0.0859375,,
3.233445000000298,1200,,,,-0.09375,0.04296875,-1.0234375,0.009420472851539964,0.1319019338374053,15.202625049277101,0.15836598966209475,1133,0,2.40757876139052,1.1174231371102443,46.41273444632258,0.11804116941637298,0.054786134498554934,0.0859375,,
3.241214999999851,1200,,,,0,0.12890625,-0.9375,0.009420472851539964,0.1319019338374053,15.202561740748756,0.15838172519156046,1133,0,2.4078079558310006,1.1175688999185003,46.41437026620325,0.11802577348656032,0.05478091951560246,0.0859375,,
3.247679999999702,1200,,,,0,0.044921875,-0.9453125,0.009420472851539964,0.1319019338374053,15.202707132800283,0.15821114765041286,1132,0,2.4052377428734504,1.1171401342555658,46.44614186541738,0.11807107254749331,0.05483945785742862,0.0859375,,
3.2587750000003726,1200,,,,-0.0625,-0.00390625,-0.984375,0.009420472851539964,0.1319019338374053,15.202574485453173,0.15865964069625219,1131,0,2.4120350055200115,1.1158868921905052,46.26329591555537,0.11820367705769852,0.0546849169002705,0.0859375,,
3.2673450000006707,1200,,,,-0.0625,0.0859375,-1.037109375,0.009420472851539964,0.1319019338374053,15.20246462917203,0.1569940112191554,1131,0,2.386695902551047,1.1153053281895038,46.73009774715736,0.11826531309728809,0.05526549641134442,0.0859375,,
3.2751899999994785,1200,,,,-0.0625,0.04296875,-1.0625,0.009420472851539964,0.1319019338374053,15.202412266538342,0.15606656699323035,1130,0,2.372588292454413,1.115166970332381,47.00212733405822,0.11827998617829517,0.05559410971422876,0.0859375,,
3.2832000000001864,1200,,,,-0.0625,0.0546875,-0.994140625,0.009420472851539964,0.1319019338374053,15.202690697410933,0.15403603816768538,1130,0,2.341762244517906,1.1151076222923464,47.61831073597787,0.11828628125261324,0.05632592896490212,0.0859375,,
3.2915449999999256,1200,,,,0,0.13671875,-0.93359375,0.006653212873113742,0.1319019338374053,15.202689537707958,0.1538367140778543,1129,0,2.338731803626766,0.7869235188292838,33.64744591957785,0.1676172215994224,0.05639891398956462,0.0859375,,
3.2995650000004098,1200,,,,0.03125,-0.013671875,-0.98828125,0.006653212873113742,0.1319019338374053,15.202752890025168,0.15323247176645896,1129,0,2.329555402993234,0.7866827493558142,33.76965185481356,0.16766852196189,0.056621076136641864,0.0859375,,
3.308379999999888,1200,,,,-0.0625,0.09375,-1.048828125,0.006653212873113742,0.1319019338374053,15.202675331373685,0.152343295199681,1129,0,2.3160256558323695,0.7865803399658876,33.96250546642559,0.16769035168502386,0.05695184485769452,0.0859375,,
3.316620000000112,1200,,,,-0.0625,0.0234375,-1.017578125,0.006653212873113742,0.1319019338374053,15.203137135097526,0.1530872856884587,1129,0,2.3274069979614906,0.7865452902652705,33.79491816232327,0.16769782423199053,0.056673342459197924,0.087890625,,
3.3244550000000745,1200,,,,-0.0625,-0.0390625,-0.95703125,0.006653212873113742,0.1319019338374053,15.203114089912336,0.15144715636305686,1128,0,2.3024683967803465,0.7860309154749655,34.13861908263804,0.1678075648687463,0.05728718536239203,0.087890625,,
3.332015000000596,1200,,,,-0.03125,0.119140625,-0.955078125,0.006653212873113742,0.1319019338374053,15.203157454822389,0.1503142567458913,1127,0,2.2852513130123837,0.7853279553048202,34.36505870637102,0.16795777222295413,0.05771878702633112,0.087890625,,
3.339214999999851,1200,,,,0,0.0390625,-0.91796875,0.006653212873113742,0.1319019338374053,15.203365695694584,0.15086042107184267,1127,0,2.2935861505616932,0.7850697075095026,34.22891733616551,0.16801302174279698,0.05750903832633576,0.0859375,,
3.3473400000007825,1200,,,,-0.03125,0.009765625,-1.025390625,0.006653212873113742,0.1319019338374053,15.203298422355475,0.15039052539052644,1127,0,2.2864320374070015,0.7849477720555579,34.33068463061566,0.16803912124241233,0.05768898076979045,0.0859375,,
3.3555800000000744,1200,,,,-0.125,0.171875,-1.05078125,0.006653212873113742,0.1319019338374053,15.203267957352086,0.1505814586281083,1127,0,2.2893302649320577,0.7849003728529035,34.28515251276764,0.16804926892565608,0.05761594814775223,0.087890625,,
3.3647900000000375,1200,,,,-0.0625,0.033203125,-1.025390625,0.006653212873113742,0.1319019338374053,15.203150106641194,0.1508111065198612,1127,0,2.2928038901701044,0.7849069370375286,34.233496392894544,0.16804786352792642,0.05752865929916903,0.087890625,,
3.372480000000447,1200,,,,-0.09375,0.076171875,-0.95703125,0.006653212873113742,0.1319019338374053,15.203012249594142,0.15096585657220757,1127,0,2.295135766737744,0.7849321716555944,34.1998143652861,0.16804246099276982,0.05747020971438559,0.087890625,,
3.3798650000002235,1200,,,,0,0.072265625,-0.935546875,0.006653212873113742,0.1319019338374053,15.203059917935864,0.15238507621653521,1127,0,2.316719444319208,0.7849436653011678,33.881688489554314,0.16804000040792366,0.056934789476058484,0.087890625,,
3.388675000000745,1200,,,,0,-0.03125,-0.9921875,0.006653212873113742,0.13828437421493178,15.203305888697644,0.1518347625127549,1127,0,2.308390339019175,0.7849483333812909,34.00414219870683,0.176170033534882,0.05990510871471079,0.087890625,,
3.397540000000037,1200,,,,-0.0625,0.095703125,-1.017578125,0.006653212873113742,0.13828437421493178,15.203270766049782,0.15125680778344044,1127,0,2.299598203939991,0.7849502473834967,34.13423466928314,0.1761696039664681,0.06013414603386094,0.087890625,,
3.4053250000001865,1200,,,,-0.0625,0.01953125,-1.02734375,0.006653212873113742,0.13828437421493178,15.203436661198113,0.15013528245100924,1127,0,2.2825722573550076,0.7849010713556689,34.386691103710966,0.17618064143560047,0.06058269295499654,0.087890625,,
3.4170200000004844,1200,,,,-0.0625,0.03515625,-0.9765625,0.006653212873113742,0.13828437421493178,15.203398995312618,0.15055364461232668,1127,0,2.2889271292397004,0.7848815790592661,34.29036988695991,0.17618501682849402,0.06041449395589316,0.087890625,,
3.425530000000261,1200,,,,0,0.0546875,-0.953125,0.006653212873113742,0.13828437421493178,15.203633058844536,0.14989288441138104,1127,0,2.2789164127224355,0.7848724344737918,34.44059773724516,0.1761870695683724,0.06067987989508344,0.087890625,,
3.4325400000000372,1200,,,,0,-0.0625,-0.99609375,0.006653212873113742,0.13828437421493178,15.203552706852475,0.14979157656340342,1127,0,2.2773641293242317,0.7848702582608953,34.46397737430737,0.17618755808296316,0.060721240154057075,0.087890625,,
3.443475000000559,1200,,,,-0.0625,0.05078125,-1.009765625,0.00544785864560519,0.13828437421493178,15.203456936551062,0.1508755475914132,1127,0,2.2938298905846106,0.6429805825909821,28.030874705670115,0.2150677298180532,0.060285365877627624,0.087890625,,
3.451425000000745,1200,,,,-0.0625,0.02734375,-1.0078125,0.00544785864560519,0.13828437421493178,15.203686120885674,0.15039351158888492,1127,0,2.2865357448151884,0.6432086149910329,28.13026721535118,0.21499148331037143,0.06047767874545463,0.087890625,,
3.4593650000002234,1200,,,,-0.03125,0.044921875,-0.966796875,0.00544785864560519,0.13828437421493178,15.203796827143622,0.14995989913639815,1128,0,2.2799598386887476,0.6432939587876997,28.21514431401877,0.21496296106298193,0.06065210968560832,0.087890625,,
3.467285000000149,1200,,,,0,0.09375,-0.89453125,0.00544785864560519,0.13828437421493178,15.203806894793004,0.15017764200265363,1128,0,2.2832718689237006,0.6433290542819615,28.175753533249505,0.21495123420047466,0.06056412996500365,0.087890625,,
3.4756349999997767,1200,,,,0,-0.037109375,-0.939453125,0.00544785864560519,0.13828437421493178,15.203625120932038,0.15162043519799936,1127,0,2.3051802574229514,0.6431003863243512,27.898051974612066,0.2150276646625855,0.05998852964736264,0.087890625,,
3.484394999999553,1200,,,,-0.09375,0.10546875,-1.033203125,0.00544785864560519,0.13828437421493178,15.203719439417913,0.1517709938633499,1126,0,2.30748360973999,0.6424795655517374,27.843299204371498,0.21523544347465484,0.059928648520504044,0.087890625,,
3.4936149999992923,1200,,,,-0.0625,0.033203125,-1.046875,0.00544785864560519,0.13828437421493178,15.203660980707609,0.15070838305525286,1126,0,2.2913191629226835,0.6422573559007038,28.030025947213517,0.21530991111966533,0.060351423953764555,0.08984375,,
3.5013099999995903,1200,,,,-0.125,0.04296875,-0.96875,0.00544785864560519,0.13828437421493178,15.203612571051995,0.15025130293390526,1126,0,2.2843625981028635,0.642183535147149,28.112154159785096,0.21533466158275996,0.06053521202359702,0.08984375,,
3.509070000000298,1200,,,,-0.03125,0.109375,-0.93359375,0.00544785864560519,0.13828437421493178,15.203433820470345,0.15013176560900154,1126,0,2.2825183627868206,0.6421540075862135,28.133574654014232,0.21534456311302574,0.06058412342676389,0.08984375,,
3.517719999999739,1200,,,,0,0.05078125,-0.9375,0.00544785864560519,0.13828437421493178,15.203461479512777,0.15012562486322498,1126,0,2.2824291546958264,0.6425101172270267,28.15027646773345,0.21522520892238325,0.06058649133990781,0.08984375,,
3.5251299999998884,1200,,,,-0.0625,0.05078125,-1.021484375,0.00544785864560519,0.13828437421493178,15.203487575248694,0.15096090319792524,1127,0,2.295132216117977,0.6430162841330438,28.016524695934585,0.21505578883025603,0.06025115818766562,0.08984375,,
3.5326299999998882,1200,,,,-0.0625,0.083984375,-1.0390625,0.00544785864560519,0.13828437421493178,15.203509995656116,0.1511088928524315,1127,0,2.2973855629144717,0.6432067615329878,27.99733627284631,0.21499210282763742,0.060192061988717176,0.08984375,,
3.541245000000112,1200,,,,-0.0625,-0.03125,-0.9609375,0.00544785864560519,0.14087152149656287,15.203391411945784,0.152468564028144,1128,0,2.3180392569371904,0.643299276985756,27.7518715466339,0.21898286930560637,0.060771844598825064,0.08984375,,
3.549589999999851,1200,,,,-0.0625,0.06640625,-0.921875,0.00544785864560519,0.14087152149656287,15.203421391145579,0.1522406757851532,1128,0,2.314579146834457,0.6433309686705398,27.79472758796751,0.21897208180056607,0.06086269363016872,0.08984375,,
3.557964999999851,1200,,,,0.03125,0.01953125,-0.9375,0.00544785864560519,0.14087152149656287,15.203043802953998,0.15234783830748064,1126,0,2.316150859073981,0.6426342800527804,27.745786831420453,0.21920947243118263,0.06082139293503732,0.08984375,,
3.57006500000041,1200,,,,-0.0625,-0.015625,-0.97265625,0.00544785864560519,0.14087152149656287,15.203095142587099,0.15222197383786973,1126,0,2.314245151049538,0.6423602458438185,27.75679342149644,0.2193029883278517,0.06087147743733025,0.08984375,,
3.5789800000004472,1200,,,,-0.0625,0.08203125,-1.0390625,0.00544785864560519,0.14087152149656287,15.202945322357513,0.15237383961254106,1126,0,2.316531152187135,0.6422469536419712,27.724511843304967,0.21934167332009413,0.06081140819693277,0.08984375,,
3.5874249999998136,1200,,,,-0.0625,-0.017578125,-0.94140625,0.00544785864560519,0.14087152149656287,15.203321652242952,0.15223430402627908,1126,0,2.314467090616865,0.6422174627787355,27.74796260367513,0.21935174557079526,0.06086564033149288,0.08984375,,
3.5960200000004843,1200,,,,0,0.140625,-0.9921875,0.005292203416086026,0.14087152149656287,15.203219124744004,0.1516716600019431,1127,0,2.3058974820232114,0.6245120734539342,27.08325406149378,0.22557053335647634,0.06109184063680106,0.08984375,,
3.604584999999963,1200,,,,0,0.03125,-0.904296875,0.005292203416086026,0.14087152149656287,15.202959782088621,0.1514810271772336,1127,0,2.302959963924956,0.6247511014297203,27.12817900511615,0.22548423071873497,0.06116976573768752,0.08984375,,
3.612430000000633,1200,,,,-0.03125,0,-0.998046875,0.005292203416086026,0.14087152149656287,15.203107129222547,0.15225064157493784,1127,0,2.3146828143566442,0.6248431197325205,26.994762127103485,0.22545102450174434,0.06085996777736369,0.08984375,,
3.620734999999404,1200,,,,-0.125,0.1796875,-1.046875,0.005292203416086026,0.14087152149656287,15.203416062613902,0.15483080280885056,1128,0,2.353957114411484,0.6248802480676408,26.545948702377608,0.2254376289412081,0.059844557334589474,0.091796875,,
3.629504999999888,1200,,,,-0.03125,0.013671875,-1.017578125,0.005292203416086026,0.14087152149656287,15.203009206847478,0.16231087622709792,1128,0,2.467613745652051,0.6253750604690197,25.343312403366774,0.22525925704634245,0.05708815723075756,0.091796875,,
3.638415000000037,1200,,,,-0.03125,-0.01953125,-0.990234375,0.005292203416086026,0.14087152149656287,15.202771156948371,0.17007834538306715,1130,0,2.5856621636111963,0.6265111044663302,24.23019964802092,0.2248507975234676,0.05448179715010348,0.091796875,,
3.658254999999888,1200,,,,-0.03125,-0.041015625,-0.98828125,0.005292203416086026,0.14087152149656287,15.202963524426266,0.16589411710504456,1132,0,2.522082211264892,0.6270781248586801,24.86350849539451,0.22464748156907885,0.055855245664617734,0.091796875,,
3.6658049999997018,1200,,,,-0.0625,-0.0234375,-0.94921875,0.005292203416086026,0.14087152149656287,15.203179607717097,0.16372435173958788,1132,0,2.489130725654004,0.6271174418983299,25.194234896343527,0.224633397326878,0.0565946657781703,0.091796875,,
3.674839999999851,1200,,,,-0.03125,0.021484375,-0.9921875,0.005292203416086026,0.14087152149656287,15.203113126712777,0.16172710443586635,1147,0,2.458755464394168,0.6357476313149142,25.856480667611287,0.22158402887824982,0.05729383158941888,0.091796875,,
3.681820000000298,1200,,,,-0.0625,0.046875,-0.935546875,0.005292203416086026,0.14969934318127653,15.20321922322096,0.1601309117993778,1152,0,2.4345053565002006,0.6385280905630252,26.228247510654946,0.2344444126949504,0.061490660836532936,0.08984375,,
3.6892200000006707,1200,,,,0,0.07421875,-0.9765625,0.005292203416086026,0.14969934318127653,15.203252505654968,0.15905165940036967,1154,0,2.4181025393072506,0.639579308025916,26.449635515007802,0.23405907805762013,0.06190777303602812,0.08984375,,
3.7115050000008196,1200,,,,0,0.08984375,-0.923828125,0.005292203416086026,0.14969934318127653,15.203552513497698,0.1551360333450325,1153,0,2.3586188296969315,0.6387192957517234,27.080225414540383,0.23437423008348596,0.06346906982020152,0.091796875,,
3.7229000000003727,1200,,,,0.03125,-0.078125,-0.962890625,0.005292203416086026,0.14969934318127653,15.203577268903306,0.153649305169213,1150,0,2.336019083453434,0.6375928982093542,27.293993560479574,0.23478828512942854,0.06408309942398664,0.091796875,,
3.740165000000037,1200,,,,-0.0625,0.08984375,-1.0234375,0.005292203416086026,0.14969934318127653,15.203624984239736,0.15205954017202128,1149,0,2.3118562240513487,0.6370436489881779,27.55550463565629,0.23499071597220275,0.06475287763308224,0.091796875,,
3.747174999999814,1200,,,,-0.0625,0.115234375,-1.048828125,0.005229066067026651,0.14969934318127653,15.203642951184593,0.15175456939939871,1144,0,2.3072222893592214,0.6266417918880938,27.160009452844236,0.23889141311534162,0.06488293038415996,0.091796875,,
3.754120000000112,1200,,,,-0.0625,0.03125,-1.05859375,0.005229066067026651,0.14969934318127653,15.203571652763461,0.15101867027553625,1142,0,2.296023174439175,0.6255694739522178,27.245782225391473,0.23930090807581647,0.0651994042777212,0.091796875,,
3.7624550000000747,1200,,,,-0.0625,-0.01953125,-0.9765625,0.005229066067026651,0.14969934318127653,15.203494417096579,0.1505421331883099,1142,0,2.288766481466279,0.6250707868014197,27.310378400900614,0.2394918245136849,0.0654061235139082,0.091796875,,
3.770429999999702,1200,,,,-0.0625,0.13671875,-0.953125,0.005229066067026651,0.14969934318127653,15.203421469128312,0.15072790877632006,1141,0,2.291579924286718,0.6248750832511765,27.26830849880466,0.23956683054539876,0.06532582241392793,0.091796875,,
3.7784900000002235,1200,,,,0.03125,0.03125,-0.9375,0.005229066067026651,0.14969934318127653,15.203251257706816,0.15112369136042442,1140,0,2.297571450744669,0.6241911454914171,27.167431301825655,0.2398293283436764,0.06515546801939817,0.091796875,,
3.786495000000112,1200,,,,0,-0.0546875,-0.99609375,0.005229066067026651,0.14969934318127653,15.203287753514564,0.15022185627587295,1137,0,2.2838661078292044,0.622727914360511,27.266393254217896,0.24039285814737427,0.06554646205751724,0.091796875,,
3.794709999999963,1200,,,,-0.0625,0.068359375,-1,0.005229066067026651,0.14969934318127653,15.20322412921726,0.14978210253885585,1136,0,2.277170875443627,0.6221439719511035,27.3209173127994,0.24061849014112435,0.06573917873076296,0.091796875,,
3.8026849999995904,1200,,,,-0.0625,0.08203125,-1.01953125,0.005229066067026651,0.14969934318127653,15.203132155581686,0.1506382246535667,1136,0,2.2901728370903776,0.6219168559980683,27.155891726853344,0.24070636088651295,0.06536595874199032,0.091796875,,
3.812155000000261,1200,,,,-0.0625,0.0234375,-0.994140625,0.005229066067026651,0.14969934318127653,15.203106890898399,0.1546134893987647,1136,0,2.350605406104206,0.6218215917215966,26.453678278234598,0.24074323756885607,0.0636854415430712,0.091796875,,
3.820610000000335,1200,,,,-0.0625,0.0078125,-0.939453125,0.005229066067026651,0.14969934318127653,15.203045592153085,0.15531979617195377,1135,0,2.3613339425661373,0.6215042371559776,26.320048424856374,0.24086616668344102,0.06339609171017695,0.091796875,,
3.829035000000149,1200,,,,-0.125,0.12109375,-0.890625,0.005229066067026651,0.14969934318127653,15.202895356056247,0.1548431666580451,1135,0,2.3540644593026374,0.6212643288537743,26.391134975030216,0.24095917989927115,0.06359186240194252,0.091796875,,
3.8377099999999627,1200,,,,0,0.07421875,-0.90234375,0.005229066067026651,0.15169073095879618,15.202846069880488,0.15338053647603792,1134,0,2.331820686160894,0.6211647095659024,26.63861390596835,0.2442037170218579,0.06505248532147623,0.091796875,,
3.8458199999993665,1200,,,,0.0625,-0.0390625,-0.96484375,0.005229066067026651,0.15169073095879618,15.202968293687032,0.1527882445164214,1134,0,2.322834837031256,0.6211311256940375,26.740219140500155,0.24421692084630356,0.06530413981248337,0.091796875,,
3.853584999999963,1200,,,,-0.03125,-0.07421875,-0.94921875,0.005229066067026651,0.15169073095879618,15.20295351099317,0.1522253955108368,1135,0,2.3142756111438003,0.6217775734757042,26.867049476807942,0.2439630141544876,0.06554566371799815,0.091796875,,
3.861825000000186,1200,,,,-0.0625,0.10546875,-1.05078125,0.005229066067026651,0.15169073095879618,15.203004794499071,0.15105297006073648,1137,0,2.2964590280567014,0.6226908293960793,27.115259701498346,0.24360521112204978,0.06605418564212713,0.091796875,,
3.869679999999702,1200,,,,-0.09375,0.103515625,-1.01171875,0.005229066067026651,0.15169073095879618,15.203249829473927,0.15057619877537823,1138,0,2.289247568354601,0.6230516908180177,27.216439996738174,0.24346411893953487,0.06626226584476577,0.09375,,
3.879605000000447,1200,,,,-0.0625,0.017578125,-1.041015625,0.005229066067026651,0.15169073095879618,15.203090000933065,0.1494806160171554,1138,0,2.27256725870373,0.6231942766137737,27.42247888272592,0.24340841476117553,0.06674862113666129,0.09375,,
3.8878100000005213,1200,,,,-0.0625,0.0078125,-0.90625,0.005229066067026651,0.15169073095879618,15.203510736736346,0.14819144251011007,1138,0,2.2530301872949057,0.6232565048877315,27.66303391771429,0.24338411194941406,0.06732742943889412,0.09375,,
3.896385000000708,1200,,,,-0.03125,0.125,-0.943359375,0.004770450225973035,0.15169073095879618,15.203537727860652,0.14781303729852135,1136,0,2.247281089237743,0.5676827040682043,25.26086775645663,0.2672104150289054,0.06749966957193071,0.09375,,
3.904790000000037,1200,,,,0,0.029296875,-0.91796875,0.004770450225973035,0.15169073095879618,15.20362521081703,0.14813130396043275,1136,0,2.252132827404036,0.5673765273319947,25.19285365534999,0.26735461135852706,0.06735425598038344,0.09375,,
3.9123700000001116,1200,,,,-0.03125,0.00390625,-1,0.004770450225973035,0.15169073095879618,15.203543645635683,0.14844315562150381,1136,0,2.2568619953874234,0.5672530960681443,25.13459383992006,0.26741278630337084,0.06721311771336565,0.09375,,
3.9213300000000744,1200,,,,-0.125,0.171875,-1.0625,0.004770450225973035,0.15169073095879618,15.203565117369939,0.14872137403833266,1135,0,2.261095094536522,0.5672069698951689,25.08549822896479,0.2674345327364923,0.06708728497325304,0.09375,,
3.9293950000004845,1200,,,,-0.0625,0.046875,-1.01953125,0.004770450225973035,0.15169073095879618,15.203515205925864,0.1480689860294178,1135,0,2.251169080624278,0.5667743877382582,25.176891092564418,0.26763864818261407,0.06738309097454838,0.09375,,
3.9373100000005214,1200,,,,-0.0625,0.013671875,-0.939453125,0.004770450225973035,0.15169073095879618,15.203441695133753,0.1477418925373014,1133,0,2.2461852491195784,0.5658618819820397,25.192128841725612,0.26807024079351366,0.06753260044702605,0.09375,,
3.9453100000005215,1200,,,,0,0.09765625,-0.95703125,0.004770450225973035,0.15169073095879618,15.203584078853428,0.14765026746909302,1132,0,2.244813255731553,0.5655173095969289,25.19217614886343,0.2682335772655896,0.06757387527514501,0.09375,,
3.952629999999888,1200,,,,0,0.01953125,-0.900390625,0.004770450225973035,0.15169073095879618,15.203702120186774,0.14765934056996985,1132,0,2.2449686292890316,0.5653608553279159,25.18346349930789,0.26830780647311314,0.0675691985089501,0.09375,,
3.9614000000003724,1200,,,,0,-0.08984375,-1.00390625,0.004770450225973035,0.15169073095879618,15.203974304704898,0.14714350407446888,1132,0,2.2371660550524655,0.5652993874669214,25.268548402575515,0.26833698093768477,0.0678048599102487,0.09375,,
3.968964999999851,1200,,,,-0.0625,0.072265625,-1.025390625,0.004770450225973035,0.15169073095879618,15.203866991857016,0.14682717037396628,1131,0,2.2323407691565125,0.5647915454711013,25.300417986117203,0.2685782607320522,0.06795142258505289,0.09375,,
3.976770000000484,1200,,,,-0.0625,0.0390625,-1.041015625,0.004770450225973035,0.15169073095879618,15.20426419934673,0.14655850395240907,1130,0,2.2283142147534294,0.5643897896896232,25.32810615095748,0.2687694457446085,0.06807421051953451,0.09375,,
3.9853349999999628,1200,,,,-0.125,0.05078125,-0.9921875,0.004770450225973035,0.15247622127441682,15.204317481082164,0.1471627136229171,1129,0,2.237508619300407,0.5642291127830488,25.21684644770057,0.270238131673729,0.06814553470729913,0.09375,,
3.993894999999553,1200,,,,-0.03125,0.1328125,-0.974609375,0.004770450225973035,0.15247622127441682,15.204400763152789,0.1478400325196968,1129,0,2.247819103267011,0.5641667031405646,25.098403262104007,0.27026802614479484,0.06783295909034931,0.09375,,
4.001700000000186,1200,,,,-0.03125,-0.017578125,-0.94140625,0.004770450225973035,0.15247622127441682,15.204381178546097,0.14752073699080073,1129,0,2.2429615169481796,0.5641423902635803,25.15167496191215,0.2702796739014355,0.06797986506780516,0.09375,,
4.009759999999776,1200,,,,0,0,-1.03125,0.004770450225973035,0.15247622127441682,15.204428054044131,0.14742948885060814,1128,0,2.241581056273573,0.5633412826046728,25.131425920469592,0.2706640290401328,0.06802172995157929,0.09375,,
4.017705000000075,1200,,,,-0.0625,0.068359375,-1.015625,0.004770450225973035,0.15247622127441682,15.204407173614847,0.14681385735242972,1127,0,2.232217665915349,0.5630273590504737,25.222780360874765,0.27081494144718427,0.06830705786565489,0.09375,,
4.025979999999516,1200,,,,-0.0625,-0.02734375,-0.984375,0.004770450225973035,0.15247622127441682,15.20451912580708,0.1467570052197074,1127,0,2.2313696927092104,0.5629020628880342,25.226750400315268,0.2708752220450568,0.06833301616160624,0.09375,,
4.048775000000372,1200,,,,0.01953125,0.037109375,-0.97265625,0.004150066195611516,0.15247622127441682,15.20405389230038,0.14838106059029696,1128,0,2.2559936418115627,0.4900058657715521,21.720179378611963,0.3111722367533932,0.06758716799927611,0.09375,,
4.056870000000112,1200,,,,-0.09375,0.083984375,-0.986328125,0.004150066195611516,0.15247622127441682,15.203984852114456,0.14932636105973157,1128,0,2.2703557315735328,0.4902790445755647,21.594811674545966,0.310998854553157,0.06715961695074937,0.09375,,
4.064530000000261,1200,,,,-0.0625,0.05078125,-1.025390625,0.004150066195611516,0.15247622127441682,15.203985622405485,0.14829037800131833,1128,0,2.2546047750731186,0.49038482982135134,21.750367747067678,0.31093176624155433,0.0676288025999909,0.09375,,
4.0727350000003355,1200,,,,-0.0625,0.01953125,-1,0.004150066195611516,0.15247622127441682,15.203921870630449,0.1481634642905017,1128,0,2.252665735154732,0.4904259783481862,21.770916594267796,0.3109056779332431,0.06768701582968921,0.09375,,
4.080995000000112,1200,,,,-0.09375,0.08203125,-0.97265625,0.004150066195611516,0.15247622127441682,15.204121564164778,0.14846613796281175,1129,0,2.257297209748649,0.4906094401858521,21.734374989126117,0.3107894157451515,0.0675481370445654,0.09375,,
4.089945000000298,1200,,,,0.03125,0.048828125,-0.935546875,0.004150066195611516,0.15247622127441682,15.20404097964511,0.14807026396714565,1130,0,2.2512663612233514,0.49104224170562505,21.811823343675325,0.3105154879237962,0.06772908968068991,0.09375,,
4.0976300000008195,1200,,,,0,-0.03125,-0.98828125,0.004150066195611516,0.15247622127441682,15.204104378840524,0.14752662311841958,1130,0,2.2430101765503188,0.4911869088656829,21.89855908817647,0.3104240331374794,0.06797839032051144,0.09375,,
4.1062999999998135,1200,,,,-0.0625,0.07421875,-1.0078125,0.004150066195611516,0.15247622127441682,15.204099317131526,0.14722454050545933,1130,0,2.2384165357640566,0.49124384015926914,21.946042316542705,0.3103880574359601,0.06811789443039068,0.09375,,
4.115390000000596,1200,,,,-0.0625,0.083984375,-1.056640625,0.004150066195611516,0.15247622127441682,15.204011331420867,0.14739543660673946,1130,0,2.2410018883685927,0.4912690952740086,21.921851017789336,0.31037210103634183,0.06803930958996945,0.095703125,,
4.124060000000521,1200,,,,-0.0625,-0.01953125,-0.96484375,0.004150066195611516,0.15247622127441682,15.204076112886101,0.1481606494346196,1129,0,2.2526457909385913,0.4906508516054278,21.781091975449563,0.3107631848095422,0.06768761510920268,0.095703125,,
4.143344999999739,1200,,,,0.03125,0.015625,-0.953125,0.004150066195611516,0.14395643090802165,15.203921231288868,0.14560709215752982,1128,0,2.2137987598801026,0.49029458540965615,22.147206615844798,0.29361211645391033,0.06502688208020237,0.095703125,,
4.159669999999926,1200,,,,-0.0625,0.08984375,-1.044921875,0.004150066195611516,0.14395643090802165,15.20379052459963,0.14820885214617494,1128,0,2.253336341921802,0.4902328072347779,21.755864764364173,0.29364911687576906,0.06388590474924201,0.095703125,,
4.16811999999918,1200,,,,-0.0625,-0.033203125,-0.927734375,0.004150066195611516,0.14395643090802165,15.203589309284645,0.15106961148393516,1128,0,2.2968003301149413,0.49020904266293425,21.343128361462842,0.29366335252816933,0.06267694628066231,0.095703125,,
4.175770000000484,1200,,,,-0.0625,0.11328125,-0.98046875,0.004150066195611516,0.14395643090802165,15.20351462423925,0.1530587309657631,1128,0,2.3270306546054806,0.49020080906516816,21.065507155868374,0.2936682850086521,0.061862713593013534,0.095703125,,
4.182935000000522,1200,,,,0,0.103515625,-0.908203125,0.004150066195611516,0.14395643090802165,15.203418362309996,0.1527320114326987,1128,0,2.3220486671284317,0.49019756396192354,21.110563740601002,0.29367022908992585,0.06199544089919777,0.095703125,,
4.192294999999925,1200,,,,0,0.05859375,-0.9375,0.004150066195611516,0.14395643090802165,15.203182482612332,0.1519520349776878,1128,0,2.31015451637008,0.49019618602883697,21.219194757547076,0.29367105459191206,0.06231463302040021,0.095703125,,
4.208919999999925,1200,,,,-0.03125,0.072265625,-1.044921875,0.004124513468967962,0.14395643090802165,15.203272826761497,0.1505148248293244,1134,0,2.2883179463524344,0.4899876443899357,21.412568352705232,0.29379604272931437,0.06290927846695751,0.095703125,,
4.223965000000782,1200,,,,-0.03125,-0.01171875,-1.025390625,0.004124513468967962,0.14395643090802165,15.203549825991407,0.15154879867412585,1135,0,2.304079711711213,0.49031123688639106,21.28013342568963,0.29360214508275173,0.06247892821429642,0.095703125,,
4.231120000000112,1200,,,,-0.0625,0.00390625,-0.9921875,0.004124513468967962,0.14395643090802165,15.203629239835127,0.15167327207275216,1135,0,2.3059841941867636,0.49033440162539343,21.263562988050598,0.29358827451393416,0.062427327676801286,0.095703125,,
4.254269999999553,1200,,,,0,0.00390625,-0.953125,0.004124513468967962,0.14395643090802165,15.203301134112287,0.15015945974989617,1135,0,2.2829194847132848,0.49032642323258274,21.4780427656722,0.29359305166333444,0.06305804119329304,0.095703125,,
4.2751449999995526,1200,,,,-0.0625,0.048828125,-1.021484375,0.004124513468967962,0.14395643090802165,15.203254020030945,0.14818378688024936,1134,0,2.2528757535905597,0.4896696068304363,21.73531345659062,0.2939868615490182,0.0638989658788722,0.095703125,,
4.283450000000186,1200,,,,-0.0625,0.078125,-0.9921875,0.004124513468967962,0.13885772696671106,15.203291162894946,0.14849024794845836,1133,0,2.2575404744108765,0.48915357094446066,21.667543793300506,0.2838734810799883,0.06150841083057308,0.095703125,,
4.290774999999441,1200,,,,0,0.0703125,-0.96875,0.004124513468967962,0.13885772696671106,15.203379324634863,0.14780664312214947,1132,0,2.247160462086971,0.48896751201911265,21.75935008953483,0.2839814988797935,0.061792528530762704,0.095703125,,
4.298845000000671,1200,,,,-0.03125,0.05078125,-0.88671875,0.004124513468967962,0.13885772696671106,15.203213731139172,0.1478080795027552,1132,0,2.2471578238695984,0.4888804023569585,21.75549919832102,0.284032099256299,0.06179260107667849,0.095703125,,
4.306964999999851,1200,,,,-0.03125,0,-1.00390625,0.004124513468967962,0.13885772696671106,15.203252267914767,0.14706624903011623,1132,0,2.2358852841008323,0.48884605480357884,21.86364650636223,0.28405205606600403,0.06210413743232497,0.095703125,,
4.315094999999739,1200,,,,-0.0625,0.1328125,-1.0625,0.004124513468967962,0.13885772696671106,15.203158122815742,0.14614444837381196,1130,0,2.221857157398745,0.48817692520412226,21.971571105662743,0.28444139777530497,0.06249624396614214,0.095703125,,
4.3232000000001864,1200,,,,-0.0625,0.04296875,-1.0234375,0.004124513468967962,0.13885772696671106,15.20319981124013,0.1468725705009042,1130,0,2.2329330361156994,0.4879120380648751,21.850724145029577,0.28459582083163903,0.06218624773820406,0.095703125,,
4.332109999999404,1200,,,,-0.09375,0.0390625,-0.94140625,0.004124513468967962,0.13885772696671106,15.203243387738263,0.1463338055004379,1129,0,2.2247484608771098,0.4878032120806875,21.92621865612486,0.28465931246008813,0.0624150232750206,0.095703125,,
4.344620000000112,1200,,,,0,0.1640625,-0.921875,0.004124513468967962,0.13885772696671106,15.203431921750699,0.14701351569413387,1129,0,2.2351099774329923,0.48776372641148524,21.822806543581287,0.2846823563291553,0.06212567988542029,0.095703125,,
4.3524599999999625,1200,,,,0,-0.01953125,-0.9453125,0.004728843449228414,0.13885772696671106,15.20340057888348,0.14754689471375262,1129,0,2.2432145445035268,0.5588625152274447,24.913466997474973,0.24846491432727244,0.061901224431229494,0.095703125,,
4.360030000000261,1200,,,,-0.09375,0.095703125,-1.017578125,0.004728843449228414,0.13885772696671106,15.20342709032156,0.14784759161335467,1128,0,2.2477900795732753,0.5586888070727902,24.855025927459064,0.24854216731895187,0.06177522012779417,0.095703125,,
4.368649999999441,1200,,,,-0.0625,0.05859375,-1.02734375,0.004728843449228414,0.13885772696671106,15.2034575171572,0.1502679962559791,1128,0,2.2845930972661157,0.558606787274626,24.45104066641404,0.24857866057120587,0.06078006938429287,0.095703125,,
4.376980000000447,1200,,,,-0.0625,-0.037109375,-0.986328125,0.004728843449228414,0.13885772696671106,15.203087777404553,0.1521928927259499,1128,0,2.3138019072097316,0.5585775593347384,24.141114137482074,0.24859166761387538,0.06001279821493573,0.095703125,,
4.3858449999997395,1200,,,,-0.03125,0.103515625,-0.96484375,0.004728843449228414,0.13885772696671106,15.203210478094931,0.14994030075162643,1129,0,2.279573951475832,0.5591956472757859,24.530708771862997,0.2483168952461977,0.060913894404176876,0.095703125,,
4.39422000000067,1200,,,,0,0.140625,-0.9296875,0.004728843449228414,0.13885772696671106,15.203117825147569,0.15058679401082548,1132,0,2.289388772257806,0.5606050976162014,24.487107843345015,0.24769258709412437,0.06065275092170951,0.095703125,,
4.403370000000112,1200,,,,0.03125,0.015625,-0.90625,0.004728843449228414,0.13885772696671106,15.203279649048298,0.14933694967938896,1133,0,2.270411407911604,0.5611941991219743,24.717731648387836,0.24743257714346156,0.06115972042901104,0.095703125,,
4.411004999999888,1200,,,,-0.03125,-0.064453125,-0.947265625,0.004728843449228414,0.13885772696671106,15.203121683349984,0.149160086221364,1134,0,2.2676989411223722,0.5613862513666682,24.75576634916169,0.24734792957374446,0.06123287551476519,0.095703125,,
4.419299999999814,1200,,,,-0.03125,0.103515625,-1.05859375,0.004728843449228414,0.13885772696671106,15.203461528608317,0.14877281675807555,1134,0,2.2618617960840965,0.5614641755785932,24.823098234854214,0.24731360077179826,0.061390898067738654,0.09765625,,
4.427275000000373,1200,,,,-0.125,0.12109375,-1.0234375,0.004728843449228414,0.13885772696671106,15.203358696097823,0.14652379299586843,1136,0,2.2276537824289737,0.5623892537298607,25.245810554845132,0.24690679284104933,0.062333621167695245,0.09765625,,
4.436825000000186,1200,,,,-0.0625,0.015625,-1.0390625,0.004728843449228414,0.1366673058732077,15.203146557593659,0.14784058281040924,1137,0,2.2476420476267136,0.5628095005658058,25.039996967492073,0.24283048835496343,0.06080474692022904,0.09765625,,
4.444969999999739,1200,,,,-0.0625,0.044921875,-0.908203125,0.004728843449228414,0.1366673058732077,15.203124153597296,0.1471303243159403,1137,0,2.236840587334276,0.5629242090655445,25.166040541869894,0.24278100616790974,0.061098366440175814,0.09765625,,
4.453045000000857,1200,,,,0,0.10546875,-0.87890625,0.004728843449228414,0.1366673058732077,15.203167397609537,0.14770087421858294,1137,0,2.245521115518387,0.5629727063114572,25.07091571844306,0.2427600918144659,0.060862178016819736,0.09765625,,
4.461384999999776,1200,,,,0,-0.001953125,-0.94140625,0.004728843449228414,0.1366673058732077,15.203011529541312,0.1469593434566221,1135,0,2.234224592944847,0.5621798333507882,25.162189832034755,0.2431024696468082,0.061169904898894546,0.09765625,,
4.469175000000745,1200,,,,-0.03125,0.0234375,-1.04296875,0.004728843449228414,0.1366673058732077,15.203158155575586,0.1441304521899075,1133,0,2.191238059677789,0.5610595279472353,25.604681584881583,0.24358788874548892,0.06236990329261803,0.09765625,,
4.477234999999404,1200,,,,-0.0625,0.12890625,-1.0625,0.004728843449228414,0.1366673058732077,15.203134211418242,0.14356991581205608,1132,0,2.1827126988127064,0.560617857420949,25.684454840341512,0.24377979413985884,0.06261351113572955,0.09765625,,
4.486014999999664,1200,,,,-0.0625,0.04296875,-1.029296875,0.004728843449228414,0.1366673058732077,15.203181670619893,0.14463706659243714,1132,0,2.1989435997103692,0.560432423004223,25.486439173703207,0.24386045536158757,0.062151346624446685,0.09765625,,
4.496669999999925,1200,,,,-0.09375,0.037109375,-0.955078125,0.004728843449228414,0.1366673058732077,15.203025479837486,0.14415478369001772,1132,0,2.1915888494798006,0.5603694058868559,25.569093674658284,0.24388787902671857,0.062359920249478944,0.09765625,,
4.505299999999814,1200,,,,0,0.064453125,-0.89453125,0.004869340063028952,0.1366673058732077,15.202999880687386,0.14488304695646617,1131,0,2.2026569455927802,0.5766384335101175,26.17922117485854,0.23700693178095245,0.062046568870681634,0.09765625,,
4.514465000000782,1200,,,,0,-0.037109375,-0.966796875,0.004869340063028952,0.1366673058732077,15.202983269050439,0.14405515528777277,1131,0,2.190068115660472,0.5765471584123443,26.325535461186856,0.23704445313641417,0.062403221569203166,0.09765625,,
4.522070000000298,1200,,,,-0.0625,0.0859375,-1.01953125,0.004869340063028952,0.1366673058732077,15.20323055806116,0.14392071609411175,1131,0,2.188059828860044,0.5765118985300491,26.34808659827212,0.23705895094563129,0.06246049768411036,0.09765625,,
4.530530000000261,1200,,,,-0.09375,0.109375,-1.056640625,0.004869340063028952,0.1366673058732077,15.20297205162726,0.1447578812439876,1131,0,2.2007500228051216,0.5764980217228356,26.195524968711315,0.23706465716011352,0.06210033145836741,0.09765625,,
4.538240000000224,1200,,,,-0.09375,0.013671875,-0.9609375,0.004869340063028952,0.1366673058732077,15.202892888227757,0.14543183572393548,1129,0,2.210984621049326,0.5759092051771298,26.047635053372975,0.2373070349364767,0.061812870416233755,0.099609375,,
4.546209999999963,1200,,,,-0.0625,0.18359375,-0.9375,0.004869340063028952,0.1366673058732077,15.202947887217212,0.14522787686617525,1128,0,2.2078918437676602,0.5753747907292643,26.059917398282302,0.2375274483263116,0.061899456832084476,0.099609375,,
4.5540549999997015,1200,,,,0.03125,0.025390625,-0.91796875,0.004869340063028952,0.1366673058732077,15.202805992761279,0.14535352501563734,1128,0,2.2097814411767076,0.5751696715587697,26.02835107767455,0.2376121562578657,0.06184652623402992,0.099609375,,
4.561870000000112,1200,,,,-0.0625,0.0390625,-1.00390625,0.004869340063028952,0.1366673058732077,15.202766374651086,0.1445148567642619,1128,0,2.1970256050532386,0.5750866582308948,26.175692122484804,0.2376464553944431,0.06220560450404762,0.099609375,,
4.569139999999665,1200,,,,-0.0625,0.09375,-1.00390625,0.004869340063028952,0.1366673058732077,15.202939382242347,0.14456585933091531,1128,0,2.1978259961496796,0.5750558150946294,26.16475626833318,0.23765920156936093,0.06218295083988995,0.099609375,,
4.577230000000447,1200,,,,-0.125,0.046875,-0.96875,0.004869340063028952,0.1366673058732077,15.202893650909887,0.14567729378911617,1128,0,2.214716404828289,0.575078470192824,25.96623517751976,0.23764983903393755,0.061708716102549376,0.099609375,,
4.585379999999888,1200,,,,-0.0625,0.0546875,-0.96484375,0.004869340063028952,0.14304114969731985,15.202953173468298,0.14474303230050437,1128,0,2.200521542250377,0.5750879165672936,26.134164357199445,0.24872918657573978,0.06500329442402909,0.099609375,,
4.594529999999329,1200,,,,0,0.046875,-0.8828125,0.004869340063028952,0.14304114969731985,15.202805295330615,0.14500648768733515,1128,0,2.2045053988703125,0.5750912433038842,26.087087089856382,0.24872774774930004,0.0648858241719982,0.099609375,,
4.602969999999739,1200,,,,-0.03125,-0.0078125,-0.966796875,0.004869340063028952,0.14304114969731985,15.20279764136742,0.14624682400257846,1128,0,2.223360871003876,0.5750926016612079,25.865913588806936,0.24872716025929098,0.06433555234456155,0.099609375,,
4.611345000000671,1200,,,,-0.09375,0.111328125,-1.009765625,0.004869340063028952,0.14304114969731985,15.203051235418647,0.14664138852257363,1127,0,2.2293965429416187,0.5748257439948729,25.78391654076974,0.2488426295997552,0.06416137593385766,0.099609375,,
4.619345000000671,1200,,,,-0.0625,-0.01171875,-1.0078125,0.004869340063028952,0.14304114969731985,15.203098364635304,0.14702455126058564,1126,0,2.235228714831049,0.574178510635788,25.687684970492498,0.2491231333944044,0.0639939656949744,0.099609375,,
4.628469999999739,1200,,,,-0.0625,0.009765625,-0.951171875,0.004869340063028952,0.14304114969731985,15.203147495756609,0.14742373740448425,1126,0,2.2413048241360647,0.5739141042661122,25.606249452808527,0.24923790621983843,0.06382047999760881,0.099609375,,
4.636174999999814,1200,,,,0,0.068359375,-0.912109375,0.004869340063028952,0.14304114969731985,15.202993170941891,0.1473375232876581,1125,0,2.239971360365758,0.5738235804374824,25.617451659908035,0.24927722487156323,0.06385847258063296,0.09765625,,
4.648259999999777,1200,,,,-0.0625,0.02734375,-1.0078125,0.004869340063028952,0.14304114969731985,15.202830734909197,0.14630436991127493,1125,0,2.224240571538655,0.5737860025704871,25.79693985950275,0.24929355030710754,0.06431010724634376,0.09765625,,
4.6567549999998885,1200,,,,-0.0625,0.10546875,-1.052734375,0.00468371279527935,0.14304114969731985,15.202988082176592,0.14617939768579516,1125,0,2.2223636408768965,0.5519393125910403,24.83568856324778,0.259161009977389,0.06436442131535185,0.09765625,,
4.664380000000819,1200,,,,-0.0625,0.009765625,-0.984375,0.00468371279527935,0.14304114969731985,15.203205713335402,0.14766449362040754,1125,0,2.244973673066559,0.5519452075463677,24.585820946061652,0.2591582420530452,0.06371618135812275,0.09765625,,
4.6723450000006705,1200,,,,-0.0625,0.14453125,-0.92578125,0.00468371279527935,0.14304114969731985,15.203179272723624,0.1471401152496989,1125,0,2.236997550350387,0.5519479447395237,24.6736052372105,0.25915695684821166,0.0639433644774957,0.09765625,,
4.681040000000038,1200,,,,0.03125,0.01953125,-0.94921875,0.00468371279527935,0.14304114969731985,15.20322015944855,0.14749869238075064,1125,0,2.2424550934953285,0.5519490307086746,24.613604629573576,0.25915644695247,0.06378774322493154,0.09765625,,
4.690035000000149,1200,,,,-0.0625,0.025390625,-0.99609375,0.00468371279527935,0.14304114969731985,15.203190440833652,0.1478669452831938,1125,0,2.2480493290447248,0.5519494716117893,24.55237367261563,0.2591562399355408,0.06362900842487432,0.09765625,,
4.698419999999926,1200,,,,-0.0625,0.16796875,-1.0625,0.00468371279527935,0.14304114969731985,15.203234575956511,0.14987772818213752,1125,0,2.2786262592644846,0.5519496336507111,24.222912002641205,0.259156163853603,0.06277516951967892,0.099609375,,
4.7060599999995905,1200,,,,-0.0625,-0.0078125,-0.998046875,0.00468371279527935,0.14304114969731985,15.203272707345999,0.1505331976960442,1125,0,2.2885972560817884,0.5519496894884954,24.117379675332888,0.25915613763616646,0.06250166966564254,0.099609375,,
4.714794999999926,1200,,,,-0.03125,0.095703125,-0.904296875,0.00468371279527935,0.14304114969731985,15.203210472359496,0.1507196373771678,1125,0,2.291422369362783,0.5519497110205374,24.08764610140504,0.2591561275262584,0.06242461084863105,0.099609375,,
4.723395000000484,1200,,,,0,0.015625,-0.90625,0.00468371279527935,0.14304114969731985,15.202881040394361,0.15019270504197132,1125,0,2.2833618278881285,0.5519497201460942,24.172678784623027,0.2591561232415493,0.0626449772218615,0.09765625,,
4.732445000000298,1200,,,,-0.03125,-0.033203125,-0.9765625,0.00468371279527935,0.1456816354319342,15.202833457801816,0.14971347679299454,1126,0,2.2760690540723734,0.5521712103005192,24.25986194542591,0.26383417446311075,0.06400580648960481,0.099609375,,
4.740630000000819,1200,,,,-0.0625,0.107421875,-1.05859375,0.00468371279527935,0.1456816354319342,15.202891340870895,0.1490820299352966,1126,0,2.266477901982776,0.552248352702622,24.36592707211044,0.263797320026379,0.0642766626158093,0.099609375,,
4.748469999999739,1200,,,,-0.0625,-0.02734375,-1.03515625,0.00468371279527935,0.1456816354319342,15.202880497393203,0.14954675701944162,1126,0,2.273541475739269,0.5522780785244764,24.291533029759073,0.26378312139629445,0.06407696406091033,0.099609375,,
4.757890000000596,1200,,,,-0.0625,0.09765625,-0.955078125,0.00468371279527935,0.1456816354319342,15.202829606648436,0.14982435860850585,1126,0,2.2777541948505053,0.5522910367862328,24.247174608868676,0.2637769323211397,0.06395845335782409,0.099609375,,
4.773524999999442,1200,,,,-0.09375,0.052734375,-0.99609375,0.00468371279527935,0.1456816354319342,15.203002344950116,0.14936649451119285,1125,0,2.2708191663106434,0.5517342786097652,24.296706967915785,0.2640431111132267,0.06415378097614896,0.099609375,,
4.780549999999813,1200,,,,-0.0625,0.09765625,-1.0078125,0.00468371279527935,0.1456816354319342,15.203045196748606,0.14985945191389885,1125,0,2.2783200206069787,0.5516274237252097,24.21202547209535,0.2640942584908627,0.06394256913614901,0.099609375,,
4.789325000000186,1200,,,,-0.0625,0.04296875,-1.0625,0.00468371279527935,0.1456816354319342,15.202959280350285,0.15008485762291196,1125,0,2.2817339790383007,0.5515764282884115,24.17356419966575,0.26411867505650427,0.06384689747809064,0.099609375,,
4.800209999999963,1200,,,,-0.09375,0.07421875,-0.9609375,0.00468371279527935,0.1456816354319342,15.203010094707793,0.15061089199267058,1125,0,2.289738911337516,0.5515569867823825,24.088204294881766,0.2641279848194781,0.06362368858327017,0.099609375,,
4.809455000000074,1200,,,,0,0.02734375,-0.927734375,0.004564706299725166,0.1456816354319342,15.203165543611222,0.15028020331246342,1125,0,2.284734808886933,0.5378500629792151,23.541028082871577,0.27085919563713795,0.06376303930997872,0.099609375,,
4.825660000000149,1200,,,,-0.0625,0.0625,-1.046875,0.004564706299725166,0.1456816354319342,15.203127457322639,0.1498520820717251,1125,0,2.2782203034816093,0.5379633285339989,23.613314643534494,0.2708021675546742,0.0639453678861967,0.099609375,,
4.834420000000857,1200,,,,-0.0625,0.013671875,-0.974609375,0.004564706299725166,0.1456816354319342,15.203102284041423,0.15080960850766928,1125,0,2.2927739035583397,0.5379752688700704,23.463947667720024,0.2707961571131602,0.06353946859122882,0.099609375,,
4.842799999999814,1200,,,,-0.0625,0.16015625,-0.93359375,0.004564706299725166,0.1456816354319342,15.203146420967627,0.15119733203702176,1125,0,2.2986751774185015,0.5379564710573003,23.402892080709098,0.27080561954317856,0.06337634689018573,0.099609375,,
4.850265000000596,1200,,,,0.03125,0.017578125,-0.90625,0.004564706299725166,0.1456816354319342,15.203091048842499,0.1507205617528718,1125,0,2.2914184232615984,0.5379378502190403,23.476194690507075,0.27081499353989463,0.06357705513450981,0.099609375,,
4.859195000000298,1200,,,,-0.0625,-0.005859375,-0.984375,0.004564706299725166,0.1456816354319342,15.203216498479195,0.1501949686739167,1125,0,2.2834466257318566,0.5379298390597363,23.557802183676046,0.2708190266719085,0.06379901057912508,0.099609375,,
4.867375,1200,,,,-0.0625,0.091796875,-1.03515625,0.004564706299725166,0.1456816354319342,15.20315690450986,0.15007934601796571,1125,0,2.2816798456373597,0.5379271918961512,23.575927750104125,0.270820359384358,0.06384841226102858,0.099609375,,
4.876424999999814,1200,,,,-0.0625,-0.0546875,-1.04296875,0.004564706299725166,0.1456816354319342,15.203347490884306,0.1510172652056674,1125,0,2.2959679600447935,0.5379260912154633,23.42916367199517,0.27082091352505566,0.0634510750877778,0.099609375,,
4.884530000000261,1200,,,,-0.03125,0.080078125,-0.984375,0.004564706299725166,0.14682326913073476,15.20318295807601,0.15054050787723802,1127,0,2.2886948838593324,0.5385434869791714,23.53059338652637,0.27263029389567806,0.06415152590508381,0.099609375,,
4.892469999999739,1200,,,,0,0.033203125,-0.9140625,0.004564706299725166,0.14682326913073476,15.2034186799481,0.15051436254867326,1127,0,2.28833287117298,0.5387859337154277,23.54491081707228,0.27250761377204563,0.06416167463235993,0.099609375,,
