Time (s),ESC signal (µs),Servo 1 (µs),Servo 2 (µs),Servo 3 (µs),AccX (g),AccY (g),AccZ (g),Torque (N·m),Thrust (N),Voltage (V),Current (A),Motor Electrical Speed (RPM),Motor Optical Speed (RPM),Electrical Power (W),Mechanical Power (W),Motor Efficiency (%),Propeller Mech. Efficiency (N/W),Overall Efficiency (N/W),Vibration (g),App message,90% settling time (s),Max acceleration (RPM/s),
0,1000,,,,-0.0625,0.048828125,-0.95703125,-0.0004767399965134121,-0.01843217592088768,15.21052491535725,0.06554908338966374,0,0,0.9970359660773105,0,0,0,0,0.05859375,,
0,1000,,,,-0.0625,0.05078125,-0.95703125,-0.0004767399965134121,-0.01843217592088768,15.210629212770685,0.06534563527873757,0,0,0.9939482288978244,0,0,0,0,0.05859375,,
0.008815000000409782,1000,,,,-0.0625,0.048828125,-0.95703125,-0.0004767399965134121,-0.01843217592088768,15.210696809219211,0.06588128492936299,0,0,1.0021002504623233,0,0,0,0,0.05859375,,
0.01572499999962747,1000,,,,-0.0625,0.05078125,-0.955078125,-0.0004767399965134121,-0.01843217592088768,15.210825676245568,0.06553800147960871,0,0,0.9968871156758522,0,0,0,0,0.05859375,,
0.0226949999993667,1000,,,,-0.0625,0.05078125,-0.95703125,-0.0004767399965134121,-0.01843217592088768,15.210528554499309,0.06543624416924407,0,0,0.9953198604354758,0,0,0,0,0.05859375,,
0.03161500000022352,1000,,,,-0.0625,0.05078125,-0.95703125,-0.0004767399965134121,-0.01843217592088768,15.210270218436673,0.06618796842929273,0,0,1.0067368850188978,0,0,0,0,0.05859375,,
0.03961500000022352,1000,,,,-0.0625,0.046875,-0.955078125,-0.0004767399965134121,-0.01843217592088768,15.209964604331143,0.06667733850264346,0,0,1.014159958536213,0,0,0,0,0.05859375,,
0.049189999999478456,1000,,,,-0.0625,0.05078125,-0.94921875,-0.0004767399965134121,-0.01843217592088768,15.21000313033737,0.06672472266437691,0,0,1.0148832405960657,0,0,0,0,0.05859375,,
0.05768499999959022,1000,,,,-0.0625,0.05078125,-0.955078125,-0.0004767399965134121,-0.018530904549907665,15.210261988662035,0.06701074336129781,0,0,1.0192509625803348,0,0,0,0,0.05859375,,
0.06590499999932944,1000,,,,-0.0625,0.05078125,-0.95703125,-0.0004767399965134121,-0.018530904549907665,15.210249149668503,0.06618278825588918,0,0,1.0066566987918288,0,0,0,0,0.05859375,,
0.07565499999932945,1000,,,,-0.0625,0.046875,-0.95703125,-0.0004767399965134121,-0.018530904549907665,15.210333645237073,0.06666701299411804,0,0,1.0140275107718908,0,0,0,0,0.05859375,,
0.08379999999981373,1000,,,,-0.0625,0.05078125,-0.95703125,-0.0004767399965134121,-0.018530904549907665,15.21049667595923,0.06685304313704088,0,0,1.0168679904137194,0,0,0,0,0.05859375,,
0.093375,1000,,,,-0.0625,0.046875,-0.95703125,-0.0004767399965134121,-0.018530904549907665,15.210152149852227,0.0680411175434138,0,0,1.0349157502813036,0,0,0,0,0.05859375,,
0.101160000000149,1000,,,,-0.0625,0.046875,-0.953125,-0.0004767399965134121,-0.018530904549907665,15.21008631537948,0.06720582479458913,0,0,1.022206396021971,0,0,0,0,0.05859375,,
0.10975499999988825,1000,,,,-0.0625,0.0546875,-0.95703125,-0.0004767399965134121,-0.018530904549907665,15.21018089529973,0.0666860234761167,0,0,1.0143064802599395,0,0,0,0,0.05859375,,
0.1188999999994412,1000,,,,-0.0625,0.05078125,-0.955078125,-0.00047997048868331276,-0.018530904549907665,15.210423764623313,0.06696710018902496,0,0,1.0185979721630556,0,0,0,0,0.05859375,,
0.12796999999973924,1000,,,,-0.0625,0.048828125,-0.953125,-0.00047997048868331276,-0.018530904549907665,15.210733767558171,0.06711970671035357,0,0,1.0209399893277757,0,0,0,0,0.05859375,,
0.13644500000029802,1000,,,,-0.0625,0.046875,-0.953125,-0.00047997048868331276,-0.018530904549907665,15.21073016064507,0.06666939968604862,0,0,1.0140902485966807,0,0,0,0,0.05859375,,
0.14476499999966472,1000,,,,-0.0625,0.044921875,-0.95703125,-0.00047997048868331276,-0.018530904549907665,15.210925365530153,0.06671257837805471,0,0,1.0147600506506709,0,0,0,0,0.05859375,,
0.15283999999985098,1000,,,,-0.0625,0.05078125,-0.953125,-0.00047997048868331276,-0.018530904549907665,15.210651468573136,0.06696574826375805,0,0,1.0185926571722304,0,0,0,0,0.05859375,,
0.16174999999906867,1000,,,,-0.0625,0.048828125,-0.95703125,-0.00047997048868331276,-0.018530904549907665,15.210725117022532,0.06581205613260364,0,0,1.001049095219091,0,0,0,0,0.05859375,,
0.17089499999955296,1000,,,,-0.0625,0.05078125,-0.955078125,-0.00047997048868331276,-0.018530904549907665,15.211017586345614,0.06566727351827138,0,0,0.9988660523337937,0,0,0,0,0.05859375,,
0.17978499999921768,1000,,,,-0.0625,0.05078125,-0.95703125,-0.00047997048868331276,-0.018530904549907665,15.210998578298572,0.06482610614775362,0,0,0.9860698084501127,0,0,0,0,0.05859375,,
0.18788499999977648,1000,,,,-0.0625,0.046875,-0.953125,-0.00047997048868331276,-0.018530904549907665,15.21104833071577,0.06442223704579074,0,0,0.9799297612763508,0,0,0,0,0.05859375,,
0.19617499999981375,1000,,,,-0.0625,0.046875,-0.953125,-0.00047997048868331276,-0.018530904549907665,15.210952953579827,0.06580266537747399,0,0,1.0009212472769131,0,0,0,0,0.05859375,,
0.2035449999999255,1000,,,,-0.0625,0.048828125,-0.953125,-0.00047997048868331276,-0.020182793112439364,15.210827734178178,0.06652081743291033,0,0,1.0118366947087156,0,0,0,0,0.05859375,,
0.2116150000002235,1000,,,,-0.0625,0.048828125,-0.958984375,-0.00047997048868331276,-0.020182793112439364,15.210885407083657,0.0673177853502778,0,0,1.0239631188217306,0,0,0,0,0.05859375,,
0.21872499999962747,1000,,,,-0.0625,0.046875,-0.953125,-0.00047997048868331276,-0.020182793112439364,15.210932926520796,0.06788239190087732,0,0,1.0325545100960434,0,0,0,0,0.05859375,,
0.22941500000003726,1000,,,,-0.0625,0.048828125,-0.955078125,-0.00047997048868331276,-0.020182793112439364,15.210984758222294,0.06828687623757458,0,0,1.0387106336363592,0,0,0,0,0.05859375,,
0.23750999999977648,1000,,,,-0.0625,0.05078125,-0.95703125,-0.00047997048868331276,-0.020182793112439364,15.211189088770482,0.06838339900996099,0,0,1.0401928128733566,0,0,0,0,0.05859375,,
0.2553149999994785,1000,,,,-0.0625,0.05078125,-0.95703125,-0.00047997048868331276,-0.020182793112439364,15.210669544398831,0.06837592788966655,0,0,1.0400436439213616,0,0,0,0,0.05859375,,
0.26367499999981375,1000,,,,-0.0625,0.05078125,-0.955078125,-0.0004611935363500944,-0.020182793112439364,15.210892128437399,0.06832945587784253,0,0,1.0393519825526856,0,0,0,0,0.05859375,,
0.27207500000018625,1000,,,,-0.0625,0.05078125,-0.953125,-0.0004611935363500944,-0.020182793112439364,15.210750604859198,0.0680783779194777,0,0,1.0355232281165285,0,0,0,0,0.05859375,,
0.2800449999999255,1000,,,,-0.0625,0.048828125,-0.953125,-0.0004611935363500944,-0.020182793112439364,15.210925098588206,0.06851580673204273,0,0,1.0421888042704475,0,0,0,0,0.05859375,,
0.28687000000011176,1000,,,,-0.0625,0.046875,-0.95703125,-0.0004611935363500944,-0.020182793112439364,15.210971735296289,0.06884963277650884,0,0,1.0472698181490048,0,0,0,0,0.05859375,,
0.2957749999994412,1000,,,,-0.0625,0.05078125,-0.955078125,-0.0004611935363500944,-0.020182793112439364,15.211023127202534,0.06856752703273254,0,0,1.0429822394699797,0,0,0,0,0.05859375,,
0.3038349999999628,1000,,,,-0.0625,0.05078125,-0.95703125,-0.0004611935363500944,-0.020182793112439364,15.21100567039797,0.06809087473182596,0,0,1.0357306816481624,0,0,0,0,0.05859375,,
0.3116849999995902,1000,,,,-0.0625,0.05078125,-0.95703125,-0.0004611935363500944,-0.020182793112439364,15.21092380499763,0.06806391445796085,0,0,1.0353150166899192,0,0,0,0,0.05859375,,
0.3196699999999255,1000,,,,-0.0625,0.05078125,-0.953125,-0.0004611935363500944,-0.020182793112439364,15.21071521026553,0.0678256904135821,0,0,1.0316772608206342,0,0,0,0,0.05859375,,
0.32800499999988825,1000,,,,-0.0625,0.046875,-0.95703125,-0.0004611935363500944,-0.020182793112439364,15.210778069639284,0.06823643560966122,0,0,1.037929278321788,0,0,0,0,0.05859375,,
0.3364949999991804,1000,,,,-0.0625,0.05078125,-0.955078125,-0.0004611935363500944,-0.020182793112439364,15.210739681156934,0.06670209754174294,0,0,1.0145882418945897,0,0,0,0,0.05859375,,
0.35802999999932944,1000,,,,-0.0625,0.046875,-0.953125,-0.0004611935363500944,-0.0192401779250028,15.211036044587438,0.06623036927432144,0,0,1.0074325342780397,0,0,0,0,0.05859375,,
0.37354000000003723,1000,,,,-0.0625,0.046875,-0.95703125,-0.0004611935363500944,-0.0192401779250028,15.210500186069554,0.06554436944000314,0,0,0.9969626435629793,0,0,0,0,0.05859375,,
0.389554999999702,1000,,,,-0.0625,0.052734375,-0.955078125,-0.0004611935363500944,-0.0192401779250028,15.210799442803363,0.06681622864224254,0,0,1.016328253401645,0,0,0,0,0.05859375,,
0.4068799999998882,1000,,,,-0.0625,0.05078125,-0.955078125,-0.0004611935363500944,-0.0192401779250028,15.210583723519376,0.06736243532050826,0,0,1.0246219622627495,0,0,0,0,0.05859375,,
0.42182499999925493,1000,,,,-0.0625,0.046875,-0.953125,-0.0005206368721747559,-0.0192401779250028,15.210945337070358,0.0656692221482077,0,0,0.9988909484243174,0,0,0,0,0.05859375,,
0.4295699999993667,1000,,,,-0.0625,0.048828125,-0.955078125,-0.0005206368721747559,-0.0192401779250028,15.210996976239342,0.06522966515599102,0,0,0.9922082394488841,0,0,0,0,0.05859375,,
0.437429999999702,1000,,,,-0.0625,0.046875,-0.953125,-0.0005206368721747559,-0.0192401779250028,15.210918070546555,0.06554533591174627,0,0,0.9970047344600254,0,0,0,0,0.05859375,,
0.4584799999995157,1000,,,,-0.0625,0.05078125,-0.953125,-0.0005206368721747559,-0.0192401779250028,15.210961463845479,0.06538960887622414,0,0,0.9946388207521736,0,0,0,0,0.05859375,,
0.4843899999996647,1000,,,,-0.0625,0.048828125,-0.955078125,-0.0005206368721747559,-0.0192401779250028,15.210649801963326,0.0645489921588172,0,0,0.981832114797445,0,0,0,0,0.05859375,,
0.4926900000004098,1000,,,,-0.0625,0.048828125,-0.95703125,-0.0005206368721747559,-0.0192401779250028,15.210762735491205,0.06448422917912416,0,0,0.9808543102246964,0,0,0,0,0.05859375,,
0.5001150000002235,1000,,,,-0.0625,0.048828125,-0.95703125,-0.0005206368721747559,-0.020460340311414332,15.210816597039855,0.06499447710832014,0,0,0.9886190711151629,0,0,0,0,0.05859375,,
0.5080049999998882,1000,,,,-0.0625,0.05078125,-0.955078125,-0.0005206368721747559,-0.020460340311414332,15.210776816607972,0.06490692521289293,0,0,0.9872847532655792,0,0,0,0,0.05859375,,
0.515964999999851,1000,,,,-0.0625,0.046875,-0.953125,-0.0005206368721747559,-0.020460340311414332,15.210902461364238,0.06397066161389162,0,0,0.9730514941978428,0,0,0,0,0.05859375,,
0.5235499999998138,1000,,,,-0.0625,0.048828125,-0.955078125,-0.0005206368721747559,-0.020460340311414332,15.210858331456425,0.06393296101317689,0,0,0.9724752126819605,0,0,0,0,0.05859375,,
0.534160000000149,1000,,,,-0.0625,0.05078125,-0.95703125,-0.0005206368721747559,-0.020460340311414332,15.210792446724739,0.06521567895731216,0,0,0.9919821568919093,0,0,0,0,0.05859375,,
0.5443300000000745,1000,,,,-0.0625,0.05078125,-0.953125,-0.0005206368721747559,-0.020460340311414332,15.210959846276491,0.06506301485763372,0,0,0.9896709064771573,0,0,0,0,0.05859375,,
0.5522350000003353,1000,,,,-0.0625,0.052734375,-0.95703125,-0.0005206368721747559,-0.020460340311414332,15.211018484663501,0.06569188254655775,0,0,0.9992404397080336,0,0,0,0,0.05859375,,
0.5595599999995902,1000,,,,-0.0625,0.05078125,-0.9609375,-0.0005206368721747559,-0.020460340311414332,15.21088799550922,0.06671002498451203,0,0,1.0147187182170343,0,0,0,0,0.05859375,,
0.567535000000149,1000,,,,-0.0625,0.048828125,-0.955078125,-0.0005749207001114187,-0.020460340311414332,15.210942871923145,0.06621622679095655,0,0,1.007211242911547,0,0,0,0,0.05859375,,
0.5755650000004098,1000,,,,-0.0625,0.046875,-0.953125,-0.0005749207001114187,-0.020460340311414332,15.211047686647573,0.06551281088664365,0,0,0.9965184904830608,0,0,0,0,0.05859375,,
0.582875,1000,,,,-0.0625,0.048828125,-0.955078125,-0.0005749207001114187,-0.020460340311414332,15.210897591482674,0.06475808457847894,0,0,0.9850285927438166,0,0,0,0,0.05859375,,
0.5912549999998883,1000,,,,-0.0625,0.046875,-0.953125,-0.0005749207001114187,-0.020460340311414332,15.211084382638262,0.06554162688754706,0,0,0.996959217161871,0,0,0,0,0.05859375,,
0.5997999999998137,1000,,,,-0.0625,0.046875,-0.958984375,-0.0005749207001114187,-0.020460340311414332,15.21127717188996,0.06634937148350893,0,0,1.009258679816346,0,0,0,0,0.05859375,,
0.6078700000001117,1000,,,,-0.0625,0.048828125,-0.95703125,-0.0005749207001114187,-0.020460340311414332,15.211213403780324,0.06749396209774888,0,0,1.026665060935519,0,0,0,0,0.05859375,,
0.6160499999998137,1000,,,,-0.0625,0.0546875,-0.95703125,-0.0005749207001114187,-0.020460340311414332,15.21125148131702,0.0672863491114829,0,0,1.0235095775944585,0,0,0,0,0.05859375,,
0.6250300000002608,1000,,,,-0.0625,0.05078125,-0.95703125,-0.0005749207001114187,-0.020460340311414332,15.211440449591093,0.0677803797709616,0,0,1.0310372105366512,0,0,0,0,0.05859375,,
0.6341299999998883,1000,,,,-0.0625,0.052734375,-0.95703125,-0.0005749207001114187,-0.020460340311414332,15.211472497303594,0.06602830575685094,0,0,1.0043877570638906,0,0,0,0,0.05859375,,
0.642089999999851,1000,,,,-0.0625,0.05078125,-0.95703125,-0.0005749207001114187,-0.020460340311414332,15.211403629457163,0.06589596306795477,0,0,1.0023700917784624,0,0,0,0,0.05859375,,
0.6501349999997765,1000,,,,-0.0625,0.046875,-0.95703125,-0.0005749207001114187,-0.02133023994250823,15.211432865219216,0.06682636750697031,0,0,1.0165248029587457,0,0,0,0,0.05859375,,
0.6580149999996647,1000,,,,-0.0625,0.05078125,-0.95703125,-0.0005749207001114187,-0.02133023994250823,15.21105638696268,0.06763156151501434,0,0,1.0287474957432183,0,0,0,0,0.05859375,,
0.6662249999996275,1000,,,,-0.0625,0.048828125,-0.95703125,-0.0005749207001114187,-0.02133023994250823,15.211167887724454,0.06805206065314326,0,0,1.0351513197005695,0,0,0,0,0.05859375,,
0.6753349999999627,1000,,,,-0.0625,0.05078125,-0.953125,-0.0005749207001114187,-0.02133023994250823,15.21128360888798,0.06756074842017686,0,0,1.0276857050480406,0,0,0,0,0.05859375,,
0.6858999999994412,1000,,,,-0.0625,0.05078125,-0.95703125,-0.0005749207001114187,-0.02133023994250823,15.211467386381896,0.06661674187852577,0,0,1.0133383964722158,0,0,0,0,0.05859375,,
0.6954900000002235,1000,,,,-0.0625,0.048828125,-0.95703125,-0.0005749207001114187,-0.02133023994250823,15.21150475956863,0.0666054628158413,0,0,1.0131693146364413,0,0,0,0,0.05859375,,
0.7040300000002607,1000,,,,-0.0625,0.05078125,-0.955078125,-0.0005749207001114187,-0.02133023994250823,15.211460809439727,0.06642680587085775,0,0,1.0104487542008134,0,0,0,0,0.05859375,,
0.7126849999995902,1000,,,,-0.0625,0.046875,-0.955078125,-0.0005749207001114187,-0.02133023994250823,15.211487713462269,0.0662659802791571,0,0,1.0080041448369312,0,0,0,0,0.05859375,,
0.7223549999995157,1000,,,,-0.0625,0.044921875,-0.955078125,-0.0005130541398018252,-0.02133023994250823,15.21143836655707,0.0663426512544632,0,0,1.0091671506312572,0,0,0,0,0.05859375,,
0.7312800000002607,1000,,,,-0.0625,0.044921875,-0.955078125,-0.0005130541398018252,-0.02133023994250823,15.211543239877066,0.06568825617345225,0,0,0.9992197491345906,0,0,0,0,0.05859375,,
0.7393999999994412,1000,,,,-0.0625,0.05078125,-0.955078125,-0.0005130541398018252,-0.02133023994250823,15.211565627584536,0.06492998732856253,0,0,0.9876867634466613,0,0,0,0,0.05859375,,
0.7470249999994412,1000,,,,-0.0625,0.05078125,-0.95703125,-0.0005130541398018252,-0.02133023994250823,15.211586738027336,0.06442504654719154,0,0,0.9800071836540527,0,0,0,0,0.05859375,,
0.7551200000001118,1000,,,,-0.0625,0.05078125,-0.95703125,-0.0005130541398018252,-0.02133023994250823,15.21154119497493,0.06436433473832354,0,0,0.9790807293591645,0,0,0,0,0.05859375,,
0.7631549999993295,1000,,,,-0.0625,0.05078125,-0.95703125,-0.0005130541398018252,-0.02133023994250823,15.211563669000544,0.0655807021917463,0,0,0.9975850268475124,0,0,0,0,0.05859375,,
0.7713899999996647,1000,,,,-0.0625,0.05078125,-0.95703125,-0.0005130541398018252,-0.02133023994250823,15.211585187766035,0.06610413910460794,0,0,1.0055487432536796,0,0,0,0,0.05859375,,
0.779179999999702,1000,,,,-0.0625,0.048828125,-0.955078125,-0.0005130541398018252,-0.02133023994250823,15.211605684556172,0.06574693185054804,0,0,1.0001164022799238,0,0,0,0,0.05859375,,
0.7875449999999254,1000,,,,-0.0625,0.05078125,-0.95703125,-0.0005130541398018252,-0.02133023994250823,15.211624686717242,0.0653114168232235,0,0,0.9934927604726264,0,0,0,0,0.05859375,,
0.7961699999999255,1000,,,,-0.0625,0.046875,-0.95703125,-0.0005130541398018252,-0.02133023994250823,15.211571910406818,0.06543435287059128,0,0,0.995359364101934,0,0,0,0,0.05859375,,
0.8038300000000745,1000,,,,-0.0625,0.046875,-0.95703125,-0.0005130541398018252,-0.02260178249353264,15.211789500602125,0.06596434498208689,0,0,1.0034357304126058,0,0,0,0,0.05859375,,
0.8124599999999628,1000,,,,-0.0625,0.046875,-0.95703125,-0.0005130541398018252,-0.02260178249353264,15.211931753883285,0.06711568585771617,0,0,1.020959232882648,0,0,0,0,0.05859375,,
0.8218099999995903,1000,,,,-0.0625,0.048828125,-0.95703125,-0.0005130541398018252,-0.02260178249353264,15.212015968795939,0.066359268390417,0,0,1.009458250432639,0,0,0,0,0.05859375,,
0.8314199999999254,1000,,,,-0.0625,0.05078125,-0.95703125,-0.0005130541398018252,-0.02260178249353264,15.211883174988802,0.0666327113472594,0,0,1.0136090206472608,0,0,0,0,0.05859375,,
0.8411049999995157,1000,,,,-0.0625,0.05078125,-0.958984375,-0.0005130541398018252,-0.02260178249353264,15.21188968124739,0.06740245010561113,0,0,1.025318635252338,0,0,0,0,0.05859375,,
0.8485849999999627,1000,,,,-0.0625,0.052734375,-0.95703125,-0.0005130541398018252,-0.02260178249353264,15.211896419431444,0.06688442254304225,0,0,1.0174389077982442,0,0,0,0,0.05859375,,
0.857910000000149,1000,,,,-0.0625,0.046875,-0.953125,-0.0005130541398018252,-0.02260178249353264,15.211836118408941,0.06776859044409582,0,0,1.0308846918111598,0,0,0,0,0.05859375,,
0.8661749999998137,1000,,,,-0.0625,0.048828125,-0.95703125,-0.0005443833704281917,-0.02260178249353264,15.211771128690048,0.06727312928640085,0,0,1.0233434458155053,0,0,0,0,0.05859375,,
0.8742450000001117,1000,,,,-0.0625,0.048828125,-0.95703125,-0.0005443833704281917,-0.02260178249353264,15.211488331093767,0.06643532873932098,0,0,1.0105802278905596,0,0,0,0,0.05859375,,
0.8823849999997765,1000,,,,-0.0625,0.046875,-0.95703125,-0.0005443833704281917,-0.02260178249353264,15.211513864020212,0.06497681003418994,0,0,0.9883956466748879,0,0,0,0,0.05859375,,
0.8912649999996647,1000,,,,-0.0625,0.048828125,-0.95703125,-0.0005443833704281917,-0.02260178249353264,15.211253834112291,0.06627886780128361,0,0,1.008184681962897,0,0,0,0,0.05859375,,
0.8998199999993667,1000,,,,-0.0625,0.05078125,-0.95703125,-0.0005443833704281917,-0.02260178249353264,15.21109440960853,0.06740436954809693,0,0,1.0252942288162448,0,0,0,0,0.05859375,,
0.9074599999999627,1000,,,,-0.0625,0.05078125,-0.955078125,-0.0005443833704281917,-0.02260178249353264,15.211143882538956,0.06717505054160808,0,0,1.0218093591052269,0,0,0,0,0.05859375,,
0.9159549999991432,1000,,,,-0.0625,0.046875,-0.9609375,-0.0005443833704281917,-0.02260178249353264,15.211186422081834,0.06805553796855954,0,0,1.0352054750948276,0,0,0,0,0.05859375,,
0.924535000000149,1000,,,,-0.0625,0.05078125,-0.955078125,-0.0005443833704281917,-0.02260178249353264,15.21122660693021,0.068137218256301,0,0,1.0364506672624565,0,0,0,0,0.05859375,,
0.9323300000000745,1000,,,,-0.0625,0.048828125,-0.955078125,-0.0005443833704281917,-0.02260178249353264,15.211199128634869,0.06832094012232091,0,0,1.0392434248561628,0,0,0,0,0.05859375,,
0.9405400000000372,1000,,,,-0.0625,0.05078125,-0.95703125,-0.0005443833704281917,-0.02260178249353264,15.211368286650565,0.0687062763650717,0,0,1.045116473393501,0,0,0,0,0.05859375,,
0.9483549999995157,1000,,,,-0.0625,0.046875,-0.953125,-0.0005443833704281917,-0.022227221571155486,15.211399271447021,0.06907416466606917,0,0,1.0507146980772561,0,0,0,0,0.05859375,,
0.956410000000149,1000,,,,-0.0625,0.046875,-0.95703125,-0.0005443833704281917,-0.022227221571155486,15.211428989921407,0.06942745729606878,0,0,1.056090836609951,0,0,0,0,0.05859375,,
0.9648049999997019,1000,,,,-0.0625,0.046875,-0.95703125,-0.0005443833704281917,-0.022227221571155486,15.211392218200167,0.06912690654518014,0,0,1.0515164882896033,0,0,0,0,0.05859375,,
0.973089999999851,1000,,,,-0.0625,0.048828125,-0.953125,-0.0005443833704281917,-0.022227221571155486,15.211352217977169,0.0692790260721401,0,0,1.0538276669017466,0,0,0,0,0.05859375,,
0.9806699999999255,1000,,,,-0.0625,0.048828125,-0.95703125,-0.0005443833704281917,-0.022227221571155486,15.211384009234596,0.06898110053388279,0,0,1.0492980096005087,0,0,0,0,0.05859375,,
0.9882099999999627,1000,,,,-0.0625,0.05078125,-0.953125,-0.0005443833704281917,-0.022227221571155486,15.211353037409395,0.06854385354384904,0,0,1.0426447547999729,0,0,0,0,0.05859375,,
0.9988250000001863,1000,,,,-0.0625,0.05078125,-0.95703125,-0.0005443833704281917,-0.022227221571155486,15.211384711131693,0.06764596432505081,0,0,1.0289887875038377,0,0,0,0,0.05859375,,
1.007339999999851,1000,,,,-0.0625,0.048828125,-0.95703125,-0.0005443833704281917,-0.022227221571155486,15.211359014262811,0.06669522399428168,0,0,1.014524996713694,0,0,0,0,0.05859375,,
1.0150249999994412,1000,,,,-0.0625,0.048828125,-0.955078125,-0.0004961134954452928,-0.022227221571155486,15.2112913591989,0.06652122662650474,0,0,1.0118737597870633,0,0,0,0,0.05859375,,
1.0229799999995157,1000,,,,-0.0625,0.046875,-0.95703125,-0.0004961134954452928,-0.022227221571155486,15.211388854885708,0.06698419731276148,0,0,1.0189226724568052,0,0,0,0,0.05859375,,
1.0402049999991432,1000,,,,-0.0625,0.046875,-0.958984375,-0.0004961134954452928,-0.022227221571155486,15.211756247164466,0.06709078939505062,0,0,1.0205687347073567,0,0,0,0,0.05859375,,
1.0484349999995901,1000,,,,-0.0625,0.05078125,-0.95703125,-0.0004961134954452928,-0.022227221571155486,15.21150685193177,0.06711285975519671,0,0,1.0208877260189106,0,0,0,0,0.05859375,,
1.056679999999702,1000,,,,-0.0625,0.048828125,-0.958984375,-0.0004961134954452928,-0.022227221571155486,15.21153121158252,0.06756174222464277,0,0,1.0277175505590461,0,0,0,0,0.05859375,,
1.0644950000001117,1000,,,,-0.0625,0.048828125,-0.955078125,-0.0004961134954452928,-0.022227221571155486,15.211358883301521,0.06798462490338208,0,0,1.034138527951983,0,0,0,0,0.05859375,,
1.0723449999997392,1000,,,,-0.0625,0.05078125,-0.95703125,-0.0004961134954452928,-0.022227221571155486,15.211127703712624,0.06860444146160628,0,0,1.0435509201143702,0,0,0,0,0.05859375,,
1.0803700000001117,1000,,,,-0.0625,0.05078125,-0.95703125,-0.0004961134954452928,-0.022227221571155486,15.211170368732235,0.06865847650057395,0,0,1.044375783307829,0,0,0,0,0.05859375,,
1.0881849999995903,1000,,,,-0.0625,0.046875,-0.953125,-0.0004961134954452928,-0.022227221571155486,15.210949554738782,0.06860362961386159,0,0,1.0435263493284321,0,0,0,0,0.05859375,,
1.0968200000002981,1000,,,,-0.0625,0.048828125,-0.95703125,-0.0004961134954452928,-0.022227221571155486,15.211097095774779,0.06865714198985234,0,0,1.0443504531260397,0,0,0,0,0.05859375,,
1.104445000000298,1000,,,,-0.0625,0.046875,-0.955078125,-0.0004961134954452928,-0.022973763618068903,15.211256262562063,0.06871490847229386,0,0,1.045240081830559,0,0,0,0,0.05859375,,
1.1119449999993667,1000,,,,-0.0625,0.046875,-0.95703125,-0.0004961134954452928,-0.022973763618068903,15.211058033374984,0.06997676354164478,0,0,1.0644206112197176,0,0,0,0,0.05859375,,
1.120449999999255,1000,,,,-0.0625,0.046875,-0.955078125,-0.0004961134954452928,-0.022973763618068903,15.211104609378182,0.06899817638221956,0,0,1.0495384788062687,0,0,0,0,0.05859375,,
1.1282800000002609,1000,,,,-0.0625,0.048828125,-0.958984375,-0.0004961134954452928,-0.022973763618068903,15.211282524493644,0.06935888882842572,0,0,1.0550376535541297,0,0,0,0,0.05859375,,
1.1456499999994412,1000,,,,-0.0625,0.052734375,-0.958984375,-0.0004961134954452928,-0.022973763618068903,15.211299372808469,0.06739638908196775,0,0,1.0251866509720917,0,0,0,0,0.05859375,,
1.1568499999996276,1000,,,,-0.0625,0.048828125,-0.955078125,-0.0004961134954452928,-0.022973763618068903,15.211411030151199,0.0674043187124274,0,0,1.025314797142045,0,0,0,0,0.05859375,,
1.1730499999998136,1000,,,,-0.0625,0.046875,-0.95703125,-0.000529175576527664,-0.022973763618068903,15.21130503719951,0.06609829233984263,0,0,1.005441287219334,0,0,0,0,0.05859375,,
1.1809400000004098,1000,,,,-0.0625,0.046875,-0.955078125,-0.000529175576527664,-0.022973763618068903,15.210958587348928,0.06565178828501365,0,0,0.9986266327887422,0,0,0,0,0.05859375,,
1.1895649999994784,1000,,,,-0.0625,0.05078125,-0.95703125,-0.000529175576527664,-0.022973763618068903,15.211075868526464,0.06553076652152726,0,0,0.9967934612816451,0,0,0,0,0.05859375,,
1.1984050000002608,1000,,,,-0.0625,0.048828125,-0.955078125,-0.000529175576527664,-0.022973763618068903,15.21105333161734,0.06588132052548126,0,0,1.0021242800704715,0,0,0,0,0.05859375,,
1.2059349999995903,1000,,,,-0.0625,0.05078125,-0.953125,-0.000529175576527664,-0.022973763618068903,15.210969644953181,0.06596211204244082,0,0,1.0033476839945679,0,0,0,0,0.05859375,,
1.213570000000298,1000,,,,-0.0625,0.052734375,-0.955078125,-0.000529175576527664,-0.022973763618068903,15.211014133591538,0.06556209475182177,0,0,0.9972659498978286,0,0,0,0,0.05859375,,
1.221195000000298,1000,,,,-0.0625,0.052734375,-0.958984375,-0.000529175576527664,-0.022973763618068903,15.21106258376153,0.06576581422179945,0,0,1.0003679159998256,0,0,0,0,0.05859375,,
1.229394999999553,1000,,,,-0.0625,0.046875,-0.953125,-0.000529175576527664,-0.022973763618068903,15.211108542850733,0.06627796003378204,0,0,1.0081612440725816,0,0,0,0,0.05859375,,
1.2379050000002607,1000,,,,-0.0625,0.05078125,-0.955078125,-0.000529175576527664,-0.022973763618068903,15.211152916516319,0.06677243865349443,0,0,1.0156857749670087,0,0,0,0,0.05859375,,
1.2454049999993295,1000,,,,-0.0625,0.046875,-0.953125,-0.000529175576527664,-0.02084232784167496,15.211324748290874,0.06574957352807752,0,0,1.0001381149972162,0,0,0,0,0.05859375,,
1.25475,1000,,,,-0.0625,0.048828125,-0.953125,-0.000529175576527664,-0.02084232784167496,15.211366267241816,0.06559296252017621,0,0,0.9977585774478652,0,0,0,0,0.05859375,,
1.2626849999995902,1000,,,,-0.0625,0.05078125,-0.95703125,-0.000529175576527664,-0.02084232784167496,15.21127866729645,0.06623829905763519,0,0,1.0075692254134085,0,0,0,0,0.05859375,,
1.2705099999997764,1000,,,,-0.0625,0.05078125,-0.95703125,-0.000529175576527664,-0.02084232784167496,15.21131376155408,0.06609076954090423,0,0,1.0053274322292558,0,0,0,0,0.05859375,,
1.2785299999993294,1000,,,,-0.0625,0.048828125,-0.95703125,-0.000529175576527664,-0.02084232784167496,15.211347170932513,0.0665833675342652,0,0,1.0128227193735047,0,0,0,0,0.05859375,,
1.2863149999994785,1000,,,,-0.0625,0.05078125,-0.955078125,-0.000529175576527664,-0.02084232784167496,15.2113138027439,0.06641716073142247,0,0,1.0102922737729467,0,0,0,0,0.05859375,,
1.2946350000007079,1000,,,,-0.0625,0.05078125,-0.95703125,-0.000529175576527664,-0.02084232784167496,15.211217021363712,0.06625998408075283,0,0,1.007894997684436,0,0,0,0,0.05859375,,
1.3025049999998883,1000,,,,-0.0625,0.052734375,-0.95703125,-0.000529175576527664,-0.02084232784167496,15.210861808474828,0.06707125026296257,0,0,1.0202115190715546,0,0,0,0,0.05859375,,
1.3123349999999627,1000,,,,-0.0625,0.05078125,-0.955078125,-0.000529175576527664,-0.02084232784167496,15.210653248291491,0.0660154060829408,0,0,1.0041374509727654,0,0,0,0,0.05859375,,
1.3202549999998883,1000,,,,-0.0625,0.05078125,-0.95703125,-0.0005721084976752175,-0.02084232784167496,15.210654115856858,0.0658454492658888,0,0,1.0015523538866353,0,0,0,0,0.05859375,,
1.3290049999998883,1000,,,,-0.0625,0.046875,-0.955078125,-0.0005721084976752175,-0.02084232784167496,15.210818242047944,0.06603513989337809,0,0,1.0044485105063834,0,0,0,0,0.05859375,,
1.3371149999992922,1000,,,,-0.0625,0.046875,-0.95703125,-0.0005721084976752175,-0.02084232784167496,15.210882788077422,0.06659109931039955,0,0,1.0129094063397108,0,0,0,0,0.05859375,,
1.3463349999999628,1000,,,,-0.0625,0.046875,-0.95703125,-0.0005721084976752175,-0.02084232784167496,15.211036537209498,0.0651406289332088,0,0,0.9908564867598452,0,0,0,0,0.05859375,,
1.3540800000000746,1000,,,,-0.0625,0.046875,-0.953125,-0.0005721084976752175,-0.02084232784167496,15.210980386481037,0.06574146375727534,0,0,0.9999921157904691,0,0,0,0,0.05859375,,
1.3633849999997765,1000,,,,-0.0625,0.052734375,-0.95703125,-0.0005721084976752175,-0.02084232784167496,15.211135446336092,0.06761644327322003,0,0,1.0285228770284507,0,0,0,0,0.05859375,,
1.3716850000005216,1000,,,,-0.0625,0.052734375,-0.95703125,-0.0005721084976752175,-0.02084232784167496,15.210837832338973,0.06792665241991672,0,0,1.0332212944530088,0,0,0,0,0.05859375,,
1.3806349999997765,1000,,,,-0.0625,0.052734375,-0.95703125,-0.0005721084976752175,-0.02084232784167496,15.21053504972941,0.06829372282675952,0,0,1.0387840647329312,0,0,0,0,0.05859375,,
1.3891949999993667,1000,,,,-0.0625,0.05078125,-0.953125,-0.0005721084976752175,-0.02084232784167496,15.21013486056299,0.06931117961736935,0,0,1.0542323893248926,0,0,0,0,0.05859375,,
1.3964349999995902,1000,,,,-0.0625,0.05078125,-0.953125,-0.0005721084976752175,-0.01987374907980076,15.210043920045027,0.07016027147454684,0,0,1.0671408105701399,0,0,0,0,0.05859375,,
1.4045499999998137,1000,,,,-0.0625,0.048828125,-0.953125,-0.0005721084976752175,-0.01987374907980076,15.210140827941709,0.07013802083468608,0,0,1.066809174288685,0,0,0,0,0.05859375,,
1.4127649999996648,1000,,,,-0.0625,0.048828125,-0.95703125,-0.0005721084976752175,-0.01987374907980076,15.21016678866103,0.07001010347279399,0,0,1.0648653507126133,0,0,0,0,0.05859375,,
1.420984999999404,1000,,,,-0.0625,0.046875,-0.95703125,-0.0005721084976752175,-0.01987374907980076,15.210191275616666,0.07010163843545492,0,0,1.0662593293373903,0,0,0,0,0.05859375,,
1.4297249999996275,1000,,,,-0.0625,0.048828125,-0.955078125,-0.0005721084976752175,-0.01987374907980076,15.210290900232748,0.06900544123730311,0,0,1.049592834918297,0,0,0,0,0.05859375,,
1.437664999999106,1000,,,,-0.0625,0.05078125,-0.95703125,-0.0005721084976752175,-0.01987374907980076,15.209981413733775,0.0674388396899807,0,0,1.025743498248378,0,0,0,0,0.05859375,,
1.446,1000,,,,-0.0625,0.052734375,-0.95703125,-0.0005721084976752175,-0.01987374907980076,15.21007997012945,0.06723199314582028,0,0,1.0226039922991215,0,0,0,0,0.05859375,,
1.4546000000005588,1000,,,,-0.0625,0.048828125,-0.955078125,-0.0005721084976752175,-0.01987374907980076,15.21018486770892,0.06772316241369916,0,0,1.0300818201382405,0,0,0,0,0.05859375,,
1.4681899999994785,1000,,,,-0.0625,0.05078125,-0.95703125,-0.0005721084976752175,-0.01987374907980076,15.210311773684424,0.06710379607546142,0,0,1.0206696595055096,0,0,0,0,0.05859375,,
1.476570000000298,1000,,,,-0.0625,0.05078125,-0.955078125,-0.0006093533885785377,-0.01987374907980076,15.210292130803747,0.06665134686586227,0,0,1.013786456741296,0,0,0,0,0.05859375,,
1.4849150000000373,1000,,,,-0.0625,0.046875,-0.951171875,-0.0006093533885785377,-0.01987374907980076,15.210276214651449,0.06646279791025318,0,0,1.01091751421351,0,0,0,0,0.05859375,,
1.4931749999998138,1000,,,,-0.0625,0.046875,-0.955078125,-0.0006093533885785377,-0.01987374907980076,15.21035196632483,0.06651018025693452,0,0,1.0116432510516828,0,0,0,0,0.05859375,,
1.5094000000003724,1000,,,,-0.0625,0.05078125,-0.95703125,-0.0006093533885785377,-0.01987374907980076,15.210649255634328,0.06706565436375928,0,0,1.0201121456267441,0,0,0,0,0.05859375,,
1.5176999999992549,1000,,,,-0.0625,0.048828125,-0.95703125,-0.0006093533885785377,-0.01987374907980076,15.21051930521855,0.06751467663047847,0,0,1.0269332922734804,0,0,0,0,0.05859375,,
1.5258799999998882,1000,,,,-0.0625,0.05078125,-0.9609375,-0.0006093533885785377,-0.01987374907980076,15.210526534233704,0.06666917825445719,0,0,1.0140733048549777,0,0,0,0,0.05859375,,
1.5337450000001118,1000,,,,-0.0625,0.05078125,-0.95703125,-0.0006093533885785377,-0.01987374907980076,15.210467640206339,0.06606899452708266,0,0,1.0049403032751605,0,0,0,0,0.05859375,,
1.541609999999404,1000,,,,-0.0625,0.048828125,-0.95703125,-0.0006093533885785377,-0.01987374907980076,15.210152402922583,0.06592925889764494,0,0,1.0027940756449192,0,0,0,0,0.05859375,,
1.5505699999993667,1000,,,,-0.0625,0.046875,-0.95703125,-0.0006093533885785377,-0.019469281414592407,15.21025455140986,0.06577838315417077,0,0,1.0005059517551076,0,0,0,0,0.05859375,,
1.5584799999995158,1000,,,,-0.0625,0.048828125,-0.955078125,-0.0006093533885785377,-0.019469281414592407,15.210081115576255,0.06565372857040383,0,0,0.9985985370958685,0,0,0,0,0.05859375,,
1.5666349999997764,1000,,,,-0.0625,0.05078125,-0.953125,-0.0006093533885785377,-0.019469281414592407,15.210110054032949,0.06617515033159432,0,0,1.0065313193857246,0,0,0,0,0.05859375,,
1.5754799999995157,1000,,,,-0.0625,0.048828125,-0.953125,-0.0006093533885785377,-0.019469281414592407,15.209776906553882,0.06648623906786895,0,0,1.0112408635780936,0,0,0,0,0.05859375,,
1.5844449999993666,1000,,,,-0.0625,0.048828125,-0.95703125,-0.0006093533885785377,-0.019469281414592407,15.21001630843644,0.06675017359590513,0,0,1.0152712289846804,0,0,0,0,0.05859375,,
1.5924749999996275,1000,,,,-0.0625,0.046875,-0.95703125,-0.0006093533885785377,-0.019469281414592407,15.20982720049414,0.06679484982220142,0,0,1.0159381236786402,0,0,0,0,0.05859375,,
1.6004349999995902,1000,,,,-0.0625,0.05078125,-0.95703125,-0.0006093533885785377,-0.019469281414592407,15.209931139818822,0.06631166198915897,0,0,1.0085958126220491,0,0,0,0,0.05859375,,
1.6087449999991805,1000,,,,-0.0625,0.046875,-0.95703125,-0.0006093533885785377,-0.019469281414592407,15.209901569873084,0.06637253000959951,0,0,1.009519648389456,0,0,0,0,0.05859375,,
1.6199449999993667,1000,,,,-0.0625,0.048828125,-0.95703125,-0.0006093533885785377,-0.019469281414592407,15.210016770370482,0.06691328947441247,0,0,1.0177522550664684,0,0,0,0,0.05859375,,
1.62975,1000,,,,-0.0625,0.046875,-0.95703125,-0.0006121592731803031,-0.019469281414592407,15.209874324496907,0.0664210629136212,0,0,1.0102560194156807,0,0,0,0,0.05859375,,
1.638304999999702,1000,,,,-0.0625,0.046875,-0.953125,-0.0006121592731803031,-0.019469281414592407,15.20984699006631,0.06581822864738063,0,0,1.0010851868838584,0,0,0,0,0.05859375,,
1.6460499999998137,1000,,,,-0.0625,0.052734375,-0.955078125,-0.0006121592731803031,-0.019469281414592407,15.209963651475762,0.06638170360366841,0,0,1.0096632989348342,0,0,0,0,0.05859375,,
1.6538649999992923,1000,,,,-0.0625,0.046875,-0.95703125,-0.0006121592731803031,-0.019469281414592407,15.210194754183705,0.06665190172396158,0,0,1.0137884059581683,0,0,0,0,0.05859375,,
1.6614549999991433,1000,,,,-0.0625,0.046875,-0.95703125,-0.0006121592731803031,-0.019469281414592407,15.210274625993991,0.06765024665597315,0,0,1.0289788301535832,0,0,0,0,0.05859375,,
1.6693349999999627,1000,,,,-0.0625,0.05078125,-0.95703125,-0.0006121592731803031,-0.019469281414592407,15.210349151359637,0.06802028366671682,0,0,1.034612263945288,0,0,0,0,0.05859375,,
1.6776099999994039,1000,,,,-0.0625,0.05078125,-0.95703125,-0.0006121592731803031,-0.019469281414592407,15.210512864754824,0.06751788741392499,0,0,1.026981695110574,0,0,0,0,0.05859375,,
1.6857450000001117,1000,,,,-0.0625,0.046875,-0.95703125,-0.0006121592731803031,-0.019469281414592407,15.210782160780052,0.06858395902019747,0,0,1.0432156603800897,0,0,0,0,0.05859375,,
1.6943299999991432,1000,,,,-0.0625,0.05078125,-0.94921875,-0.0006121592731803031,-0.019469281414592407,15.210842583394456,0.06702589869489706,0,0,1.019520394058623,0,0,0,0,0.05859375,,
1.703265000000596,1000,,,,-0.0625,0.046875,-0.95703125,-0.0006121592731803031,-0.021328673142645967,15.21090538830696,0.06611194136819541,0,0,1.0056224851889175,0,0,0,0,0.05859375,,
1.7117350000003353,1000,,,,-0.0625,0.052734375,-0.95703125,-0.0006121592731803031,-0.021328673142645967,15.210892227086486,0.06595079216072977,0,0,1.0031703918478407,0,0,0,0,0.05859375,,
1.719714999999851,1000,,,,-0.0625,0.044921875,-0.955078125,-0.0006121592731803031,-0.021328673142645967,15.21088121122773,0.0658159937669322,0,0,1.0011192629877104,0,0,0,0,0.05859375,,
1.7278650000002236,1000,,,,-0.0625,0.046875,-0.95703125,-0.0006121592731803031,-0.021328673142645967,15.210936756316357,0.06633251429868306,0,0,1.0089796798847186,0,0,0,0,0.05859375,,
1.737140000000596,1000,,,,-0.0625,0.05078125,-0.95703125,-0.0006121592731803031,-0.021328673142645967,15.211140479501724,0.06592468161395032,0,0,1.0027895930962227,0,0,0,0,0.05859375,,
1.7460049999998883,1000,,,,-0.0625,0.052734375,-0.95703125,-0.0006121592731803031,-0.021328673142645967,15.211114375900946,0.06625366714466203,0,0,1.0077921087603248,0,0,0,0,0.05859375,,
1.7549150000000373,1000,,,,-0.0625,0.048828125,-0.958984375,-0.0006121592731803031,-0.021328673142645967,15.211382076391335,0.06644308217054813,0,0,1.0106911092292725,0,0,0,0,0.05859375,,
1.7638950000004843,1000,,,,-0.0625,0.05078125,-0.95703125,-0.0006121592731803031,-0.021328673142645967,15.21136118608005,0.06626514286006091,0,0,1.00798302209158,0,0,0,0,0.05859375,,
1.7738700000001117,1000,,,,-0.0625,0.05078125,-0.955078125,-0.0005652411731776504,-0.021328673142645967,15.211195550167494,0.06707615496288394,0,0,1.0203085098937654,0,0,0,0,0.05859375,,
1.7830449999999254,1000,,,,-0.0625,0.046875,-0.955078125,-0.0005652411731776504,-0.021328673142645967,15.211071743352147,0.06681823191579271,0,0,1.0163769194350651,0,0,0,0,0.05859375,,
1.7905249999994413,1000,,,,-0.0625,0.046875,-0.95703125,-0.0005652411731776504,-0.021328673142645967,15.210986900884773,0.06600620475740553,0,0,1.0040195159420136,0,0,0,0,0.05859375,,
1.7984449999993668,1000,,,,-0.0625,0.046875,-0.953125,-0.0005652411731776504,-0.021328673142645967,15.21090506698371,0.06694249309061286,0,0,1.0182559073485251,0,0,0,0,0.05859375,,
1.805929999999702,1000,,,,-0.0625,0.05078125,-0.953125,-0.0005652411731776504,-0.021328673142645967,15.21112597078018,0.06734475817129935,0,0,1.0243896000153625,0,0,0,0,0.05859375,,
1.8150400000000373,1000,,,,-0.0625,0.05078125,-0.958984375,-0.0005652411731776504,-0.021328673142645967,15.211032445376677,0.06576898646944145,0,0,1.0004141870862135,0,0,0,0,0.05859375,,
1.823730000000447,1000,,,,-0.0625,0.05078125,-0.95703125,-0.0005652411731776504,-0.021328673142645967,15.211090544210185,0.06561489287633152,0,0,0.9980740765905305,0,0,0,0,0.05859375,,
1.8319900000002236,1000,,,,-0.0625,0.05078125,-0.95703125,-0.0005652411731776504,-0.021328673142645967,15.211229440983997,0.06487819788372486,0,0,0.9868771537269012,0,0,0,0,0.05859375,,
1.8406900000004098,1000,,,,-0.0625,0.05078125,-0.95703125,-0.0005652411731776504,-0.021328673142645967,15.21127051299965,0.06548214281713179,0,0,0.9960665881622686,0,0,0,0,0.05859375,,
1.8487949999999256,1000,,,,-0.0625,0.05078125,-0.95703125,-0.0005652411731776504,-0.02518059833224088,15.211207797284159,0.06601235138270674,0,0,1.0041275940696905,0,0,0,0,0.05859375,,
1.8567249999996274,1000,,,,-0.0625,0.046875,-0.955078125,-0.0005652411731776504,-0.02518059833224088,15.210986232183412,0.06608699196501655,0,0,1.0052483249062825,0,0,0,0,0.05859375,,
1.8649799999995158,1000,,,,-0.0625,0.04296875,-0.95703125,-0.0005652411731776504,-0.02518059833224088,15.211036203825941,0.06530352848630219,0,0,0.9933343360427213,0,0,0,0,0.05859375,,
1.8738499999996274,1000,,,,-0.0625,0.046875,-0.95703125,-0.0005652411731776504,-0.02518059833224088,15.211015976779729,0.06471176727936465,0,0,0.9843317259720673,0,0,0,0,0.05859375,,
1.8816200000001118,1000,,,,-0.0625,0.048828125,-0.95703125,-0.0005652411731776504,-0.02518059833224088,15.211064218826058,0.06559390622707466,0,0,0.9977531199836871,0,0,0,0,0.05859375,,
1.8885949999997391,1000,,,,-0.0625,0.046875,-0.95703125,-0.0005652411731776504,-0.02518059833224088,15.211104683592145,0.0668039263714611,0,0,1.0161615173112768,0,0,0,0,0.05859375,,
1.8972649999996647,1000,,,,-0.0625,0.05078125,-0.95703125,-0.0005652411731776504,-0.02518059833224088,15.21095363518059,0.06789498266344791,0,0,1.0327474333550963,0,0,0,0,0.05859375,,
1.9051199999991804,1000,,,,-0.0625,0.05078125,-0.95703125,-0.0005652411731776504,-0.02518059833224088,15.210939667476842,0.0674535121171949,0,0,1.0260313031740698,0,0,0,0,0.05859375,,
1.914570000000298,1000,,,,-0.0625,0.05078125,-0.958984375,-0.0005652411731776504,-0.02518059833224088,15.211073194223262,0.0667326452647923,0,0,1.015075151566892,0,0,0,0,0.05859375,,
1.9251049999995158,1000,,,,-0.0625,0.046875,-0.955078125,-0.0005614109256705743,-0.02518059833224088,15.211366046339013,0.06613548251512366,0,0,1.0060110331887995,0,0,0,0,0.05859375,,
1.9346500000003726,1000,,,,-0.0625,0.046875,-0.95703125,-0.0005614109256705743,-0.02518059833224088,15.211134171329467,0.06638169269450249,0,0,1.0097408340960385,0,0,0,0,0.05859375,,
1.9445400000000372,1000,,,,-0.0625,0.046875,-0.95703125,-0.0005614109256705743,-0.02518059833224088,15.211036526846527,0.06644457838111598,0,0,1.0106909087660723,0,0,0,0,0.05859375,,
1.9515400000000374,1000,,,,-0.0625,0.046875,-0.955078125,-0.0005614109256705743,-0.02518059833224088,15.210953912533427,0.06628703089915271,0,0,1.0082889720056911,0,0,0,0,0.05859375,,
1.9602299999995156,1000,,,,-0.0625,0.05078125,-0.95703125,-0.0005614109256705743,-0.02518059833224088,15.210806673131804,0.06678224388674263,0,0,1.0158118009591803,0,0,0,0,0.05859375,,
1.968984999999404,1000,,,,-0.0625,0.046875,-0.955078125,-0.0005614109256705743,-0.02518059833224088,15.21043574788904,0.06611406668987127,0,0,1.005623763417938,0,0,0,0,0.05859375,,
1.9783650000002235,1000,,,,-0.0625,0.052734375,-0.958984375,-0.0005614109256705743,-0.02518059833224088,15.210411438904778,0.06522358345942057,0,0,0.9920775399375311,0,0,0,0,0.05859375,,
1.9976149999992923,1000,,,,-0.0625,0.05078125,-0.955078125,-0.0005614109256705743,-0.02683201442496821,15.210602700753636,0.06466969998083665,0,0,0.9836651131854413,0,0,0,0,0.05859375,,
2.005269999999553,1000,,,,-0.0625,0.046875,-0.95703125,-0.0005614109256705743,-0.02683201442496821,15.210668302678641,0.06460080942177096,0,0,0.9826214841991153,0,0,0,0,0.05859375,,
2.012339999999851,1000,,,,-0.0625,0.046875,-0.953125,-0.0005614109256705743,-0.02683201442496821,15.210726032181192,0.06454014565977922,0,0,0.9817024737079698,0,0,0,0,0.05859375,,
2.0207649999996646,1000,,,,-0.0625,0.046875,-0.955078125,-0.0005614109256705743,-0.02683201442496821,15.210791783539035,0.06581420814656865,0,0,1.0010862165159542,0,0,0,0,0.05859375,,
2.027379999999888,1000,,,,-0.0625,0.046875,-0.95703125,-0.0005614109256705743,-0.02683201442496821,15.210895499187558,0.06553030513473182,0,0,0.9967746234342796,0,0,0,0,0.05859375,,
2.0340300000002607,1000,,,,-0.0625,0.048828125,-0.953125,-0.0005614109256705743,-0.02683201442496821,15.21094105895852,0.06516619986941434,0,0,0.9912392252499719,0,0,0,0,0.05859375,,
2.0423149999994785,1000,,,,-0.0625,0.04296875,-0.95703125,-0.0005614109256705743,-0.02683201442496821,15.211078478363417,0.06595565896638873,0,0,1.0032567046299128,0,0,0,0,0.05859375,,
2.058964999999851,1000,,,,-0.0625,0.048828125,-0.953125,-0.0005614109256705743,-0.02683201442496821,15.210888162173328,0.06614755929405276,0,0,1.0061631266225655,0,0,0,0,0.05859375,,
2.076209999999963,1000,,,,-0.0625,0.05078125,-0.955078125,-0.0006310452337358975,-0.02683201442496821,15.210576436266242,0.06528952887808298,0,0,0.9930913694878933,0,0,0,0,0.05859375,,
2.1034050000002606,1000,,,,-0.0625,0.046875,-0.953125,-0.0006310452337358975,-0.02683201442496821,15.210761497882602,0.06355420935299151,0,0,0.9667079206548537,0,0,0,0,0.05859375,,
2.11125,1000,,,,-0.0625,0.048828125,-0.955078125,-0.0006310452337358975,-0.02683201442496821,15.210729007716143,0.06367825503245685,0,0,0.9685926809829378,0,0,0,0,0.05859375,,
2.1282350000003354,1000,,,,-0.0625,0.05078125,-0.958984375,-0.0006310452337358975,-0.02683201442496821,15.2106301419671,0.06445091961414028,0,0,0.9803391005603406,0,0,0,0,0.05859375,,
2.136209999999963,1000,,,,-0.0625,0.05078125,-0.953125,-0.0006310452337358975,-0.02683201442496821,15.21057423926236,0.06383479424347803,0,0,0.9709638768884601,0,0,0,0,0.05859375,,
2.145515000000596,1000,,,,-0.0625,0.05078125,-0.955078125,-0.0006310452337358975,-0.025161291527195078,15.210506494364392,0.06403728691705904,0,0,0.9740395685334025,0,0,0,0,0.05859375,,
2.1537250000005588,1000,,,,-0.0625,0.048828125,-0.955078125,-0.0006310452337358975,-0.025161291527195078,15.21048173325374,0.06495300209702225,0,0,0.9879664519167488,0,0,0,0,0.05859375,,
2.1629500000001864,1000,,,,-0.0625,0.05078125,-0.953125,-0.0006310452337358975,-0.025161291527195078,15.210568202881777,0.06534735637439876,0,0,0.9939704210108136,0,0,0,0,0.05859375,,
2.1721749999998137,1000,,,,-0.0625,0.05078125,-0.95703125,-0.0006310452337358975,-0.025161291527195078,15.210653223537566,0.06573490954972201,0,0,0.9998709138414295,0,0,0,0,0.05859375,,
2.180375,1000,,,,-0.0625,0.046875,-0.95703125,-0.0006310452337358975,-0.025161291527195078,15.210523427675719,0.06624825605806862,0,0,1.0076706508139126,0,0,0,0,0.05859375,,
2.187339999999851,1000,,,,-0.0625,0.044921875,-0.95703125,-0.0006310452337358975,-0.025161291527195078,15.210466214115934,0.06547508748793798,0,0,0.9959066061015657,0,0,0,0,0.05859375,,
2.196429999999702,1000,,,,-0.0625,0.048828125,-0.955078125,-0.0006310452337358975,-0.025161291527195078,15.210541522731019,0.06600243656135518,0,0,1.003932801917913,0,0,0,0,0.05859375,,
2.203985000000335,1000,,,,-0.0625,0.046875,-0.95703125,-0.0006310452337358975,-0.025161291527195078,15.210402266560473,0.06703844847921485,0,0,1.019681768694947,0,0,0,0,0.05859375,,
2.2119400000004097,1000,,,,-0.0625,0.05078125,-0.95703125,-0.0006310452337358975,-0.025161291527195078,15.210473584988929,0.06686722499694131,0,0,1.0170821595174873,0,0,0,0,0.05859375,,
2.2212599999997766,1000,,,,-0.0625,0.05078125,-0.95703125,-0.0006709486777503741,-0.025161291527195078,15.210556126140029,0.06737249336492136,0,0,1.024773091685133,0,0,0,0,0.05859375,,
2.2311599999992175,1000,,,,-0.0625,0.048828125,-0.95703125,-0.0006709486777503741,-0.025161291527195078,15.210628531319383,0.0681427138246389,0,0,1.0364935071025843,0,0,0,0,0.05859375,,
2.238950000000186,1000,,,,-0.0625,0.048828125,-0.955078125,-0.0006709486777503741,-0.025161291527195078,15.210832434661427,0.06764728811778914,0,0,1.0289715642189536,0,0,0,0,0.05859375,,
2.2490149999996647,1000,,,,-0.0625,0.05078125,-0.955078125,-0.0006709486777503741,-0.025161291527195078,15.210998673638022,0.06809742487278933,0,0,1.0358298394181633,0,0,0,0,0.05859375,,undefined,0,
2.2565499999998138,1000,,,,-0.0625,0.05078125,-0.95703125,-0.0006709486777503741,-0.025161291527195078,15.211055540430399,0.06800426987636306,0,0,1.0344167260757764,0,0,0,0,0.05859375,,
2.2743499999996275,1200,,,,-0.0625,0.046875,-0.955078125,-0.0006709486777503741,-0.025161291527195078,15.210454643921352,0.06741471674869477,0,0,1.025408491438827,0,0,0,0,0.05859375,,
2.2817449999991806,1200,,,,-0.0625,0.046875,-0.95703125,-0.0006709486777503741,-0.025161291527195078,15.210628552789075,0.06848454747909363,0,0,1.0416930133103406,0,0,0,0,0.05859375,,
2.2900449999999255,1200,,,,-0.0625,0.046875,-0.953125,-0.0006709486777503741,-0.025161291527195078,15.210497266181301,0.0695223840289504,0,0,1.0574700322107566,0,0,0,0,0.05859375,,
2.2981149999992923,1200,,,,-0.0625,0.046875,-0.955078125,-0.0006709486777503741,-0.021731544763748518,15.210570287649167,0.06921555161575696,0,0,1.05280801284988,0,0,0,0,0.05859375,,
2.306485000000335,1200,,,,-0.03125,0.03515625,-0.9609375,-0.0006709486777503741,-0.021731544763748518,15.21030831418507,0.09042350750726764,0,0,1.3753694280355693,0,0,0,0,0.05859375,,
2.3152599999997765,1200,,,,-0.03125,0.03125,-1.00390625,-0.0006709486777503741,-0.021731544763748518,15.20924447111978,0.12656286480306342,0,0,1.9249255517550725,0,0,0,0,0.05859375,,
2.324165000000037,1200,,,,-0.25,0.2421875,-0.7109375,-0.0006709486777503741,-0.021731544763748518,15.208013995266048,0.15478573461530173,0,0,2.353983618297045,0,0,0,0,0.060546875,,
2.3409999999990685,1200,,,,0,0.025390625,-0.97265625,-0.0006709486777503741,-0.021731544763748518,15.20591847811286,0.2060268069652119,0,0,3.1328268310189067,0,0,0,0,0.0625,,
2.349145000000484,1200,,,,-0.125,0.1171875,-0.87890625,-0.0006709486777503741,-0.021731544763748518,15.205361628807802,0.2173239030110469,0,0,3.3044885358669207,0,0,0,0,0.0625,,
2.3569799999995156,1200,,,,-0.09375,0.060546875,-0.990234375,-0.0006709486777503741,-0.021731544763748518,15.204705557430099,0.22350221392840905,0,0,3.398285354215212,0,0,0,0,0.064453125,,
2.3649049999993292,1200,,,,0,0.0390625,-1.005859375,-0.0006709486777503741,-0.021731544763748518,15.204379545258645,0.22741817475367437,0,0,3.4577522444448228,0,0,0,0,0.064453125,,
2.373285000000149,1200,,,,-0.125,-0.02734375,-0.96875,-0.0006269950514742911,-0.021731544763748518,15.20436095308418,0.22915284193628935,0,0,3.484122522224389,0,0,0,0,0.06640625,,
2.385905000000261,1200,,,,0.09375,-0.01953125,-0.98046875,-0.0006269950514742911,-0.021731544763748518,15.203947964996104,0.23044245695395293,0,0,3.503635124453755,0,0,0,0,0.06640625,,
2.393854999999516,1200,,,,-0.0625,0.08984375,-0.98046875,-0.0006269950514742911,-0.021731544763748518,15.202957264389699,0.2538779617483062,2,0,3.8596958028298616,0.00010042186958959253,0.002601807881231598,216.40251125140097,0.0056303775929220454,0.068359375,,
2.4022649999996646,1200,,,,-0.25,-0.00390625,-1.0234375,-0.0006269950514742911,-0.021731544763748518,15.202802488561957,0.25395019971854993,2,0,3.860754728251977,0.0001213871049419312,0.0031441288941162888,179.026798391348,0.005628833296433686,0.072265625,,
2.4105300000002607,1200,,,,0.03125,-0.009765625,-1.013671875,-0.0006269950514742911,-0.021731544763748518,15.202921255105217,0.249890260011328,2,0,3.7990619453699876,0.0001287800568433844,0.0033897856548596663,168.74930246518906,0.005720239647640728,0.072265625,,
2.417574999999255,1200,,,,-0.1875,0.109375,-0.89453125,-0.0006269950514742911,-0.021731544763748518,15.203101867815455,0.24611900456516841,2,0,3.7417722980095927,0.00013185040078938606,0.0035237419673966497,164.81970956206533,0.005807821276379765,0.072265625,,
2.4249350000005214,1200,,,,-0.03125,0.033203125,-0.96484375,-0.0006269950514742911,-0.021731544763748518,15.202967146761452,0.24128363874335798,2,0,3.66822723286633,0.000133007939460232,0.0036259460228776617,163.38532009396343,0.005924263515913005,0.072265625,,
2.4330199999995528,1200,,,,-0.03125,0.046875,-1.005859375,-0.0006269950514742911,-0.021731544763748518,15.203017638923232,0.23544494443949956,2,0,3.579473643309012,0.00013354469509647737,0.0037308472810271397,162.72862615807307,0.006071156524471287,0.07421875,,
2.4411399999996646,1200,,,,-0.0625,0.08203125,-0.99609375,-0.0006269950514742911,-0.021731544763748518,15.203261848436913,0.2301936779736528,2,0,3.4996947620882084,0.00013375724136065198,0.0038219687845245484,162.4700430622173,0.006209554330041536,0.07421875,,
2.4492199999997393,1200,,,,0,0,-1.00390625,-0.0006269950514742911,-0.018772207846444462,15.203558755915907,0.22457532631068394,2,0,3.4143441686934706,0.000133840994439816,0.003919962013994373,140.25753413604318,0.005498042059898085,0.07421875,,
2.4612900000000373,1200,,,,-0.00390625,0.0703125,-0.984375,-0.0006269950514742911,-0.018772207846444462,15.203996809817408,0.21562769469951262,2,0,3.278402782319672,0.00013388120500037163,0.004083732655498859,140.21540847643516,0.005726022423993299,0.072265625,,
2.4686649999991057,1200,,,,-0.041015625,0.060546875,-0.998046875,-0.0006269950514742911,-0.018772207846444462,15.204357979526666,0.210659177262895,2,0,3.2029375427776197,0.00013388966544565587,0.004180214682848464,140.20654830946503,0.005860934718747283,0.072265625,,
2.477285000000149,1200,,,,-0.0625,0.04296875,-0.9609375,-0.0006269950514742911,-0.018772207846444462,15.204340126320714,0.20427072226621348,316,0,3.105801539184704,0.020750892464756757,0.6681332404196059,0.9046458063587922,0.0060442393403450706,0.072265625,,
2.4850550000006333,1200,,,,0,0.01171875,-1.015625,-0.0006269950514742911,-0.018772207846444462,15.204585654945392,0.19968533308930822,437,0,3.0361327509926883,0.028705092745138647,0.945449198021835,0.6539678520851889,0.006182933812860039,0.072265625,,
2.4935099999997763,1200,,,,-0.0625,0.037109375,-0.95703125,-0.0006269950514742911,-0.018772207846444462,15.20495130947749,0.19423591567051907,485,0,2.953347640322018,0.031841758782931856,1.0781581669626943,0.589546826681789,0.006356247259939109,0.072265625,,
2.5015049999998884,1200,,,,-0.03125,0.0625,-1.01953125,-0.0006269950514742911,-0.018772207846444462,15.20509805760426,0.18981046904429266,503,0,2.886086794178328,0.033058035150344556,1.1454276155875698,0.5678561282021264,0.00650438090923351,0.072265625,,
2.5096650000000373,1200,,,,-0.0625,0.03125,-1.00390625,-0.0006269950514742911,-0.018772207846444462,15.205404850435066,0.1840348060886897,511,0,2.798323733149839,0.033579596738681446,1.1999897060117382,0.5590361311522284,0.006708376026713019,0.072265625,,
2.5172199999997393,1200,,,,-0.0625,0.05078125,-0.931640625,0.0016841942577129274,-0.018772207846444462,15.205697736351322,0.17953354842317643,514,0,2.7299328708574144,0.0906470922861792,3.320487959753709,0.20709111978108782,0.006876435698050152,0.072265625,,
2.5253349999990315,1200,,,,0,0.0234375,-0.9453125,0.0016841942577129274,-0.018772207846444462,15.205616424474066,0.1755198020690013,515,0,2.6688867851608435,0.09084642686600564,3.4039071035578106,0.20663672192779378,0.007033722056259173,0.072265625,,
2.5351749999998137,1200,,,,-0.0625,0.013671875,-0.982421875,0.0016841942577129274,-0.018772207846444462,15.205827789200635,0.1726160375419479,516,0,2.6247697405170514,0.09092676793203183,3.464180744255313,0.20645414187026612,0.007151944628387303,0.072265625,,
2.542754999999888,1200,,,,0,0.017578125,-0.935546875,0.0016841942577129274,-0.018772207846444462,15.206021565983844,0.1679230602941253,516,0,2.5534416762584744,0.09096284430046575,3.5623623263544615,0.2063722610128226,0.007351727678366689,0.072265625,,
2.551139999999665,1200,,,,-0.0625,0.0625,-1.015625,0.0016841942577129274,-0.018772207846444462,15.205921359932082,0.1643448405251107,528,0,2.4990147209354125,0.09313591231778585,3.7269053094222633,0.20155713708362522,0.0075118436434891385,0.072265625,,
2.5578349999999626,1200,,,,-0.0625,0.01953125,-0.94140625,0.0016841942577129274,-0.018772207846444462,15.206069733722307,0.16202333047472525,538,0,2.463738061688607,0.09493326149360252,3.8532205582170036,0.19774110307702328,0.007619400835808937,0.072265625,,
2.5664449999993666,1200,,,,0,0.017578125,-0.9375,0.0016841942577129274,-0.018772207846444462,15.206164685918662,0.1584452434264294,543,0,2.4093444652427567,0.09576682697673229,3.974808432678105,0.19601994175922102,0.0077914171747762275,0.072265625,,
2.5770049999998883,1200,,,,-0.0625,0.0703125,-1.0078125,0.0016841942577129274,-0.018772207846444462,15.20663682652291,0.15532551596608019,545,0,2.3619787111884674,0.09611582168805316,4.069292463677242,0.1953081970975625,0.007947661745435007,0.072265625,,
2.5856100000003353,1200,,,,-0.0625,0.02734375,-1.01171875,0.0016841942577129274,-0.018772207846444462,15.206841832621713,0.15110219659005766,546,0,2.2977872041067187,0.09624519086953005,4.18860330919747,0.19504567113272248,0.008169689435511628,0.072265625,,
2.5931699999999256,1200,,,,-0.03125,0.0234375,-0.9296875,0.0016841942577129274,-0.004245185339563961,15.206897545406276,0.1487536689123289,546,0,2.2620818026530722,0.0962828810686034,4.256383697339259,0.04409075935876062,0.0018766718933793708,0.072265625,,
2.601504999999888,1200,,,,-0.03125,0.01953125,-0.958984375,0.0016841942577129274,-0.004245185339563961,15.207151633578391,0.14676309457001638,546,0,2.2318486333394443,0.09629828801902938,4.314732037850672,0.044083705192402546,0.001902093751408233,0.072265625,,
2.6106749999998136,1200,,,,-0.0625,0.02734375,-0.953125,0.0016841942577129274,-0.004245185339563961,15.20697959262655,0.14362533715065362,546,0,2.1841075710340974,0.09630457383272975,4.409332906031407,0.044080827842479964,0.0019436704473095236,0.072265625,,
2.630160000000149,1200,,,,0.041015625,-0.00390625,-0.99609375,0.0016841942577129274,-0.004245185339563961,15.205975934632177,0.15520198778468508,554,0,2.3599976912609986,0.09766811590788334,4.138483536214696,0.04346541652925762,0.0017988091070104673,0.072265625,,
2.6384449999993667,1200,,,,-0.125,0.01171875,-0.87890625,0.0016841942577129274,-0.004245185339563961,15.205291368285122,0.1736563208227568,559,0,2.640494956054416,0.09866136078435972,3.736472230637599,0.043027840948215754,0.0016077233284729953,0.072265625,,
2.646484999999404,1200,,,,-0.03125,0.08203125,-1.01171875,0.0016841942577129274,-0.004245185339563961,15.204029134292185,0.20161081586519938,562,0,3.0652967182029083,0.09905746487499222,3.2315783423755025,0.04285578421496318,0.0013849182411459291,0.07421875,,
2.65525,1200,,,,-0.03125,-0.044921875,-1.02734375,0.0016841942577129274,-0.004245185339563961,15.20260855267629,0.23064021915777502,563,0,3.5063329683591244,0.09921862770777581,2.829697823997806,0.042786172693973515,0.001210719397693312,0.076171875,,
2.6643349999999626,1200,,,,0,0.1171875,-1.0234375,0.0016841942577129274,-0.004245185339563961,15.20180779382131,0.2574021966509684,563,0,3.9129787191954173,0.09927688266307476,2.537117878409724,0.04276106607790298,0.0010848986524610723,0.076171875,,
2.6725099999997766,1200,,,,-0.03125,0.029296875,-0.98046875,0.045278659395280946,-0.004245185339563961,15.201027384224986,0.2730462657678923,563,0,4.150583763098105,2.6695387893989904,64.31718865990013,0.0015902317495524033,0.0010227923544892498,0.076171875,,
2.6803849999997764,1200,,,,0,-0.0234375,-0.9453125,0.045278659395280946,-0.004245185339563961,15.200717725232646,0.28153046400238824,629,0,4.279465114354075,2.9802151972129827,69.63989932332476,0.0014244559733585496,0.0009919897057519798,0.076171875,,
2.6906449999995528,1200,,,,-0.0625,0.11328125,-1.05078125,0.045278659395280946,-0.004245185339563961,15.200354705997892,0.2869069037253887,720,0,4.361086704225496,3.4160286611402824,78.32975798968779,0.0012427253283486513,0.0009734237421720515,0.076171875,,
2.6997050000000744,1200,,,,-0.0625,0.0625,-0.998046875,0.045278659395280946,-0.004245185339563961,15.200151840025484,0.29126739101039045,762,0,4.427308569406009,3.6143892481606597,81.63852127084932,0.0011745235634829064,0.0009588636692051302,0.076171875,,
2.7083849999997764,1200,,,,-0.03125,0.021484375,-0.94140625,0.045278659395280946,-0.004245185339563961,15.200143666064148,0.2924305920229517,774,0,4.444987011101058,3.66827952354601,82.52621468599857,0.0011572687719992162,0.0009550501112740925,0.078125,,
2.71668499999959,1200,,,,-0.0625,0.12109375,-1.0625,0.045278659395280946,-0.004245185339563961,15.200136700356971,0.29098886969474347,778,0,4.423070597642463,3.6868414458254612,83.35479537203366,0.0011514423394503991,0.0009597824058758374,0.078125,,
2.7260250000003725,1200,,,,-0.03125,0.013671875,-0.978515625,0.045278659395280946,-0.004245185339563961,15.200509043461235,0.2877781809148987,887,0,4.374374841507741,4.207230431005029,96.17901033727824,0.001009021352450587,0.0009704667508787949,0.078125,,
2.739344999999739,1200,,,,-0.041015625,0.05859375,-0.955078125,0.045278659395280946,-0.004245185339563961,15.200714027320739,0.2800128851401065,994,0,4.256395790979768,4.711017093188068,110.68089821843499,0.0009011186449954342,0.000997366210294737,0.078125,,
2.7466349999997766,1200,,,,-0.125,-0.0078125,-0.9453125,0.045278659395280946,0.006026410550945634,15.20097601231306,0.27507644524633934,1015,0,4.181430445741951,4.811716261988126,115.0734497302953,0.0012524451199571805,0.0014412318055134626,0.078125,,
2.7553650000002237,1200,,,,-0.03125,0.015625,-0.9921875,0.045278659395280946,0.006026410550945634,15.201191287264908,0.27083013159242436,1023,0,4.11694063669157,4.851033276686535,117.83102319845185,0.0012422942097527587,0.001463807978486797,0.078125,,
2.763449999999255,1200,,,,-0.03125,0.05859375,-0.958984375,0.045278659395280946,0.006026410550945634,15.201329225540874,0.26638649138326986,1051,0,4.049428756753793,4.98148200316031,123.0169068872246,0.0012097625861385043,0.0014882125141464843,0.078125,,
2.7715449999999255,1200,,,,-0.0625,0.107421875,-1.037109375,0.045278659395280946,0.006026410550945634,15.201395005214628,0.26045518985000543,1074,0,3.9592822220681003,5.090495562639292,128.5711721752513,0.0011838553784773546,0.0015220967369680924,0.080078125,,
2.7799399999994785,1200,,,,-0.0625,-0.0625,-0.96484375,0.045278659395280946,0.006026410550945634,15.201521726960825,0.255923245055844,1083,0,3.8904227701507326,5.133178916333643,131.94398705760096,0.001174011397064254,0.0015490374457972195,0.080078125,,
2.788535000000149,1200,,,,-0.03125,0.1171875,-0.919921875,0.045278659395280946,0.006026410550945634,15.201731192941043,0.2512968013811516,1086,0,3.8201464242421626,5.151211842394331,134.8433088769948,0.0011699015174154637,0.0015775339166851827,0.080078125,,
2.797359999999404,1200,,,,-0.0625,-0.015625,-1,0.045278659395280946,0.006026410550945634,15.202076938015242,0.24690798818125673,1088,0,3.753514232942023,5.15768531464103,137.40950465501263,0.0011684331600919056,0.0016055382175071981,0.080078125,,
2.805339999999851,1200,,,,-0.0625,0.109375,-1.041015625,0.045278659395280946,0.006026410550945634,15.202367784647043,0.24364168704808456,1101,0,3.7039305341768576,5.2181199668511695,140.8806109807569,0.0011549007284671956,0.0016270312024857974,0.080078125,,
2.813584999999963,1200,,,,-0.0625,0.025390625,-0.978515625,0.045278659395280946,0.006026410550945634,15.202448295025022,0.2392383975006139,1106,0,3.6370093681877265,5.241990815336374,144.1291535069207,0.0011496415700146406,0.001656968663225774,0.080078125,,
2.8216349999997763,1200,,,,0,0.1015625,-0.90625,0.023018852163412543,0.006026410550945634,15.202589936994245,0.23485952499426327,1108,0,3.570473051285035,2.669685674123741,74.77120358499569,0.0022573483497916494,0.0016878465302452548,0.080078125,,
2.829804999999702,1200,,,,-0.03125,0.017578125,-1.009765625,0.023018852163412543,0.006026410550945634,15.202948969647144,0.23032821872187317,1108,0,3.501668155498364,2.671548807158344,76.29360317777241,0.002255774079364759,0.001721011324697598,0.080078125,,
2.8417199999997393,1200,,,,-0.09375,0.1171875,-1.025390625,0.023018852163412543,0.006026410550945634,15.203006775726962,0.22590852576911544,1110,0,3.434488847962351,2.6763321434331933,77.92519533208079,0.002251742395177815,0.0017546746598175868,0.08203125,,
2.8520099999997766,1200,,,,-0.0625,0.0625,-0.9453125,0.023018852163412543,0.006026410550945634,15.203080470785554,0.22012073714292676,1115,0,3.3465132800725503,2.6873255364537965,80.30225227122173,0.002242530898916737,0.0018008028197082145,0.08203125,,
2.8606749999998136,1200,,,,0.0625,-0.03515625,-0.984375,0.023018852163412543,0.006026410550945634,15.20331369846355,0.21504565985190774,1116,0,3.269406626221642,2.6900670121050654,82.27997675571783,0.0022402455120364346,0.0018432734865745902,0.08203125,,
2.868174999999814,1200,,,,-0.0625,0.025390625,-0.98828125,0.023018852163412543,0.006026410550945634,15.20334750287579,0.21301928694254535,1116,0,3.238606244202328,2.690902024112936,83.08827381933575,0.0022395503429495016,0.0018608037212717548,0.08203125,,
2.8765449999999255,1200,,,,-0.0625,0.09765625,-1.01953125,0.023018852163412543,0.006026410550945634,15.20357387744432,0.21100804166050816,1118,0,3.208076350120385,2.6937730379364866,83.96848278986256,0.0022371634380757076,0.0018785121964816985,0.08203125,,
2.8846850000005215,1200,,,,-0.0625,-0.00390625,-0.9921875,0.023018852163412543,0.006026410550945634,15.20359504083753,0.20884432375831588,1119,0,3.175184524998999,2.6974959264407987,84.95556416336619,0.0022340758671310244,0.0018979717567587772,0.08203125,,
2.893589999999851,1200,,,,0,0.095703125,-0.91796875,0.023018852163412543,0.0819892487598093,15.203763850227933,0.20632595779219057,1120,0,3.1369311384445613,2.699028164738042,86.04040208789371,0.03037732241218271,0.026136770346977856,0.083984375,,
2.901479999999516,1200,,,,-0.0625,0.01171875,-1.013671875,0.023018852163412543,0.0819892487598093,15.203873580295065,0.2031400907196417,1120,0,3.088516258391103,2.699546306926244,87.40592831887878,0.03037149188715486,0.02654648442826066,0.083984375,,
2.9105300000002607,1200,,,,-0.0625,0.140625,-1.046875,0.023018852163412543,0.0819892487598093,15.204027999660086,0.19924230755275985,1120,0,3.029285622749047,2.699763682754195,89.12212379313992,0.03036904647749281,0.02706553919646734,0.083984375,,
2.918504999999888,1200,,,,-0.0625,-0.001953125,-0.9921875,0.023018852163412543,0.0819892487598093,15.204026650496578,0.1983187661191717,1121,0,3.0152438053694843,2.70325950140983,89.65309858512673,0.03032977363699248,0.02719158185941864,0.083984375,,
2.926754999999888,1200,,,,-0.03125,0.091796875,-0.94921875,0.023018852163412543,0.0819892487598093,15.204286164066108,0.19595514408613432,1122,0,2.9793580860063926,2.7046385938113136,90.7792388741254,0.030314308517010388,0.0275190985416962,0.083984375,,
2.934584999999963,1200,,,,0,0.03125,-0.8984375,0.023018852163412543,0.0819892487598093,15.204338242652987,0.19345879098049773,1122,0,2.9414128940821924,2.705188544148317,91.96901766463547,0.030308145780508704,0.027874103946699518,0.083984375,,
2.942554999999702,1200,,,,-0.03125,-0.001953125,-0.966796875,0.023018852163412543,0.0819892487598093,15.204515866182836,0.1909284938790847,1122,0,2.902975314490936,2.705400568932924,93.1940604326958,0.03030577050264607,0.028243178076830074,0.083984375,,
2.9516049999995158,1200,,,,-0.0625,0.0546875,-0.982421875,0.023018852163412543,0.0819892487598093,15.20463268442722,0.18847151213983832,1122,0,2.8656401135648073,2.7056707837924,94.41767551287491,0.030302743870741423,0.02861114637937423,0.083984375,,
2.9591149999992923,1200,,,,-0.0625,-0.03515625,-0.953125,0.023018852163412543,0.0819892487598093,15.204536997516145,0.186598841487291,1123,0,2.837148989087167,2.7061054064025716,95.38115258702865,0.030297877002804466,0.02889846429467519,0.083984375,,
2.9674699999997394,1200,,,,-0.0625,0.1171875,-0.931640625,0.023018852163412543,0.0819892487598093,15.204510412571624,0.18500072219854233,1123,0,2.8128454070010074,2.706279449787941,96.21145346460101,0.030295928517741884,0.029148153167516018,0.083984375,,
2.9764799999995155,1200,,,,0,0.0078125,-0.9609375,0.013539429032790446,0.0819892487598093,15.20448215674609,0.18149844379274016,1123,0,2.759589850123901,1.591845426976899,57.684131100331,0.051505785279363774,0.029710664704803186,0.083984375,,
2.9839249999998136,1200,,,,-0.0625,0.03125,-1.01953125,0.013539429032790446,0.0819892487598093,15.204461084756092,0.17897653714213943,1123,0,2.7212417940620623,1.5918587604124357,58.49751256525537,0.05150535386604692,0.03012935084957004,0.083984375,,
2.9935949999997393,1200,,,,-0.09375,0.10546875,-1.02734375,0.013539429032790446,0.0819892487598093,15.204534779870967,0.17748652694855147,1123,0,2.6986000719477565,1.5923969820527355,59.008261305773935,0.051487945332650754,0.030382141322864594,0.0859375,,
3.002450000000186,1200,,,,-0.09375,0.017578125,-0.990234375,0.013539429032790446,0.0819892487598093,15.204362117543958,0.17613175896782118,1124,0,2.677971043746724,1.592966096978959,59.484067264232074,0.051469550366012765,0.03061618196031684,0.0859375,,
3.0124699999997393,1200,,,,0.03125,0.04296875,-0.923828125,0.013539429032790446,0.0819892487598093,15.204699715069113,0.17403468287523027,1124,0,2.646145093125157,1.5931170708237885,60.20520473207617,0.051464672786045336,0.030984411615531688,0.0859375,,
3.02419000000041,1200,,,,-0.03125,-0.046875,-0.9453125,0.013539429032790446,0.0819892487598093,15.205065716719417,0.17179519558612918,1124,0,2.6121572387037597,1.5931819669821625,60.99104385357571,0.05146257644072823,0.03138756256514448,0.0859375,,
3.0313150000004097,1200,,,,-0.0625,0.068359375,-1.013671875,0.013539429032790446,0.0819892487598093,15.205149837573432,0.17103664358290394,1123,0,2.600637793393697,1.5927535162343869,61.24472697737452,0.05147641987546797,0.03152659281045732,0.0859375,,
3.038429999999702,1200,,,,-0.0625,-0.0546875,-0.953125,0.013539429032790446,0.0819892487598093,15.205100734683286,0.17143643300732134,1123,0,2.6067082334711036,1.592350988802061,61.08665973259615,0.05148943250350257,0.031453174431659375,0.0859375,,
3.0466399999996647,1200,,,,-0.03125,0.0859375,-0.9375,0.013539429032790446,0.12334091880505907,15.205243018526525,0.1712368660960076,1123,0,2.603698162720681,1.5921599363899752,61.149942769336995,0.07746766891064932,0.04737143520360152,0.0859375,,
3.0548700000001117,1200,,,,0,-0.041015625,-0.900390625,0.013539429032790446,0.12334091880505907,15.205182228927304,0.1697726074073246,1123,0,2.581423433108504,1.5920847028495149,61.67468236438665,0.0774713296248016,0.04778019646956336,0.0859375,,
3.0626699999989944,1200,,,,-0.0625,0.046875,-1.0078125,0.013539429032790446,0.12334091880505907,15.205124601066219,0.1692315682978333,1123,0,2.5731870824024035,1.5920550376961498,61.87094007209768,0.07747277316715427,0.047933133058442205,0.0859375,,
3.071299999999814,1200,,,,-0.0625,0.111328125,-1.05859375,0.013539429032790446,0.12334091880505907,15.205068665413833,0.1678438200624652,1123,0,2.5520768091151473,1.5926543833578883,62.40620884408613,0.07744361871218541,0.04832962642994419,0.087890625,,
3.079399999999441,1200,,,,-0.0625,0.00390625,-0.994140625,0.013539429032790446,0.12334091880505907,15.20515471638344,0.16664981562940967,1123,0,2.5339362301019492,1.59289758721602,62.862575951721254,0.07743179460810637,0.04867562069630167,0.087890625,,
3.0872350000003355,1200,,,,-0.03125,0.09765625,-0.912109375,0.013539429032790446,0.12334091880505907,15.205293378029186,0.1660504600429183,1124,0,2.5248459605092854,1.5929818897641899,63.09224066258958,0.07742769682291699,0.04885086881901502,0.087890625,,
3.094375,1200,,,,0,-0.01171875,-0.9921875,0.013539429032790446,0.12334091880505907,15.205148452342899,0.16553567419231252,1124,0,2.516994500252779,1.5930134904119122,63.29030477626898,0.07742616088779405,0.04900325320244922,0.087890625,,
3.1029000000003726,1200,,,,-0.0625,0.02734375,-1.0390625,0.013539429032790446,0.12334091880505907,15.205092015051141,0.16498558242201855,1124,0,2.5086209618835964,1.593027933006645,63.502137517439905,0.07742545893232908,0.049166821404716565,0.087890625,,
3.111769999999553,1200,,,,-0.0625,0.123046875,-1.060546875,0.013539429032790446,0.12334091880505907,15.205305807106814,0.16351336500569075,1123,0,2.486270718460606,1.5923927534667335,64.04744027443142,0.07745634268715339,0.04960880482131349,0.087890625,,
3.1199199999999254,1200,,,,-0.0625,-0.0078125,-0.935546875,0.008708955604476334,0.12334091880505907,15.20543786659856,0.16242520973593702,1123,0,2.46974643460903,1.0241343855925578,41.4671875315282,0.12043431071176737,0.049940721475151925,0.087890625,,
3.1287649999996647,1200,,,,0.03125,0.068359375,-0.908203125,0.008708955604476334,0.12334091880505907,15.205468717855052,0.16198307169112727,1123,0,2.463028529421508,1.0240763137828683,41.577931459177755,0.12044114012308917,0.050076934689030246,0.087890625,,
3.136674999999814,1200,,,,0,-0.1015625,-0.94140625,0.008708955604476334,0.12334091880505907,15.205330405256953,0.161605809697219,1123,0,2.457269731855293,1.024056492980181,41.674565868965296,0.12044347128361614,0.05019429377495891,0.087890625,,
3.1488349999999627,1200,,,,-0.0625,0.080078125,-1.009765625,0.008708955604476334,0.12334091880505907,15.205257015883918,0.16000881519810217,1123,0,2.4329751598942164,1.0246003023492567,42.11306055396823,0.12037954558695388,0.05069551092762568,0.087890625,,
3.165125,1200,,,,-0.03125,0.052734375,-0.97265625,0.008708955604476334,0.12334091880505907,15.205523328331127,0.158911845045836,1124,0,2.4163377669926005,1.0248675092787476,42.414083133514424,0.12034815982395664,0.051044568557387766,0.08984375,,
3.1736000000005586,1200,,,,0,0.02734375,-0.94921875,0.008708955604476334,0.12334091880505907,15.20579523765111,0.15912947649241319,1124,0,2.419690235818251,1.024889844796732,42.356241705052454,0.12034553706551894,0.0509738465607147,0.087890625,,
3.1818100000005214,1200,,,,-0.0625,0.076171875,-1.041015625,0.008708955604476334,0.12334091880505907,15.20580553325301,0.1592157346777909,1124,0,2.421003499344496,1.0248650658264977,42.33224223360219,0.1203484467543943,0.05094619600444795,0.08984375,,
3.19018499999959,1200,,,,-0.0625,0.0703125,-1.03515625,0.008708955604476334,0.13967233274243732,15.205851832671858,0.1591873128904708,1124,0,2.420578693453674,1.0248209613669428,42.33784938033688,0.13628949641714722,0.05770204171431141,0.08984375,,
3.1987750000003725,1200,,,,-0.0625,0.0078125,-0.97265625,0.008708955604476334,0.13967233274243732,15.206059281427093,0.15796948426944116,1124,0,2.402093342457587,1.0248054039474288,42.66301337394942,0.13629156540786774,0.05814608877752362,0.08984375,,
3.207450000000186,1200,,,,-0.03125,0.125,-0.92578125,0.008708955604476334,0.13967233274243732,15.206310801900413,0.15706106473250303,1124,0,2.3883193651998407,1.0247990893530365,42.90879621399743,0.1362924052075549,0.058481430405665336,0.08984375,,
3.214519999999553,1200,,,,0.0625,-0.0546875,-0.92578125,0.008708955604476334,0.13967233274243732,15.206210129098286,0.1567535167875023,1124,0,2.3836269147458955,1.0247970690931423,42.99318247975019,0.1362926738910713,0.05859655799251912,0.08984375,,
3.222020000000484,1200,,,,-0.0625,0.021484375,-0.986328125,0.008708955604476334,0.13967233274243732,15.206458215040056,0.1563712023222289,1124,0,2.3778521541485484,1.0252796357025369,43.11788829737671,0.1362285252517785,0.05873886334722547,0.08984375,,
3.2311399999996646,1200,,,,-0.0625,0.10546875,-1.01953125,0.008708955604476334,0.13967233274243732,15.206542878247555,0.1557837299446433,1124,0,2.368931969136556,1.0255209233174796,43.290433692414915,0.13619647299892068,0.058960043835005534,0.08984375,,
3.239770000000484,1200,,,,-0.0625,-0.01171875,-1,0.008708955604476334,0.13967233274243732,15.20647691826875,0.15499503778680798,1125,0,2.3569284645512885,1.0256072764307276,43.51456957035743,0.13618500565686184,0.059260319030950345,0.08984375,,
3.24793499999959,1200,,,,-0.03125,0.09765625,-0.8984375,0.008708955604476334,0.13967233274243732,15.206256986728652,0.1540035492978612,1125,0,2.3418175474916123,1.0256368164305987,43.79661504924615,0.1361810833083413,0.05964270482644745,0.08984375,,
3.2565799999991434,1200,,,,-0.03125,-0.013671875,-0.93359375,0.008708955604476334,0.13967233274243732,15.20613183319334,0.154985577121317,1124,0,2.3567311179502997,1.025475856629043,43.512637008880404,0.13620245843872905,0.05926528133761537,0.08984375,,
3.265889999999665,1200,,,,-0.0625,0.09765625,-1.02734375,0.008708955604476334,0.13967233274243732,15.206087331054922,0.15446529920193558,1124,0,2.3488128292821604,1.0252445828365764,43.64947985872121,0.13623318287232639,0.05946507571875095,0.08984375,,
3.2738499999996273,1200,,,,-0.0625,0.052734375,-1.021484375,0.006485540520792402,0.13967233274243732,15.20608308012587,0.15381657247224062,1124,0,2.338947580113093,0.7634401841218961,32.640328950210254,0.18295124575226218,0.05971588843204595,0.08984375,,
3.282910000000149,1200,,,,-0.0625,0.009765625,-0.95703125,0.006485540520792402,0.13967233274243732,15.206372067484125,0.15257072937298483,1124,0,2.3200472774530363,0.7634178582241654,32.90527161421687,0.18295659609972703,0.060202364882740896,0.08984375,,
3.289964999999851,1200,,,,-0.03125,0.10546875,-0.916015625,0.006485540520792402,0.13967233274243732,15.206387756965418,0.1510527436033314,1124,0,2.296966590985735,0.7634086231782381,33.235512705068295,0.18295880934767367,0.06080729832578777,0.08984375,,
3.300844999999739,1200,,,,0,-0.0078125,-0.98828125,0.006485540520792402,0.13967233274243732,15.206342323865705,0.1510075885446028,1124,0,2.2962730849106916,0.7632250099713183,33.23755414748513,0.18300282474716878,0.06082566296676754,0.08984375,,
3.309450000000186,1200,,,,-0.09375,0.111328125,-1.0390625,0.006485540520792402,0.13967233274243732,15.206537683744418,0.1517308747255481,1124,0,2.3073012643015507,0.7631220690311094,33.0742274898426,0.18302751081458168,0.060534935295811006,0.08984375,,
3.3191399999996647,1200,,,,-0.0625,0.033203125,-1.046875,0.006485540520792402,0.13967233274243732,15.206412797177096,0.1525005257741344,1124,0,2.318985946708033,0.7630983626134883,32.90655399170319,0.1830331967481652,0.06022991771067531,0.091796875,,
3.328034999999218,1200,,,,-0.09375,0.115234375,-0.916015625,0.006485540520792402,0.13967233274243732,15.20667170150601,0.15525522698845323,1124,0,2.360915266756204,0.763088024937357,32.32170318360502,0.18303567632830198,0.05916024802293776,0.091796875,,
3.3368499999996275,1200,,,,0,0.009765625,-0.958984375,0.006485540520792402,0.13967233274243732,15.206417085164432,0.15715789640721886,1125,0,2.389808520995235,0.7637506730040283,31.958655528015466,0.18287687026588142,0.05844498900868878,0.091796875,,
3.3449949999991806,1200,,,,-0.0625,0.005859375,-0.994140625,0.006485540520792402,0.1445159128857936,15.206298134699518,0.1557385458474654,1125,0,2.3682067592211284,0.7639775000395681,32.25974662325641,0.18916252491507773,0.06102335124375836,0.091796875,,
3.3541650000000374,1200,,,,-0.0625,0.10546875,-1.037109375,0.006485540520792402,0.1445159128857936,15.206170752800528,0.15421680553236075,1125,0,2.3450470778765107,0.7640723411251863,32.58238814621453,0.189139044966576,0.06162601776705302,0.091796875,,
3.361949999999255,1200,,,,-0.0625,0.03515625,-1.05859375,0.006485540520792402,0.1445159128857936,15.20619508980007,0.15337326411919852,1125,0,2.332223775755966,0.7641039990822935,32.76289381084871,0.18913120865662336,0.06196485705534422,0.091796875,,
3.370910000000149,1200,,,,-0.09375,0.052734375,-0.98828125,0.006485540520792402,0.1445159128857936,15.206221077946804,0.1515192358573839,1127,0,2.304034998008944,0.7657492561890766,33.235139954506195,0.1887248491823675,0.06272296775469059,0.091796875,,
3.379879999999888,1200,,,,0,0.083984375,-0.912109375,0.006485540520792402,0.1445159128857936,15.206318655315433,0.1511981957980445,1131,0,2.29916794541384,0.7679694755561325,33.40206082326454,0.18817924082352494,0.06285574447663127,0.091796875,,
3.38831500000041,1200,,,,0,0.0234375,-0.93359375,0.006485540520792402,0.1445159128857936,15.20640136995635,0.1528456124317014,1132,0,2.324231730273241,0.7687234328221705,33.07430248066521,0.187994676258587,0.062177927873312375,0.091796875,,
3.396769999999553,1200,,,,0,-0.052734375,-0.986328125,0.006485540520792402,0.1445159128857936,15.206560755493483,0.15151200795115105,1132,0,2.30397655409599,0.7690360678296028,33.37864122195241,0.18791825108235932,0.06272455881934842,0.091796875,,
3.40475,1200,,,,-0.0625,0.076171875,-1.021484375,0.006485540520792402,0.1445159128857936,15.206533183680335,0.15165169015042007,1132,0,2.3060964586335713,0.7691437749596733,33.352628077639615,0.18789193593014603,0.06266689857865852,0.091796875,,
3.4137599999997765,1200,,,,-0.0625,0.046875,-1.03125,0.006485540520792402,0.1445159128857936,15.206343586519248,0.15157093629472437,1131,0,2.3048397350279997,0.7681543376175461,33.32788505610411,0.1881339540879429,0.06270106796993327,0.091796875,,
3.4229950000001117,1200,,,,-0.041015625,0.05859375,-0.966796875,0.0056448974566528035,0.1445159128857936,15.206200939573941,0.15015450569888808,1130,0,2.2832795856396926,0.6682103712378936,29.265376673119302,0.21627307672293464,0.06329313054551113,0.091796875,,
3.431049999999814,1200,,,,0,0.109375,-0.93359375,0.0056448974566528035,0.1445159128857936,15.206091989947163,0.15014716517912108,1130,0,2.2831516057435066,0.66809856674903,29.262120179332733,0.2163092694376049,0.0632966783818686,0.091796875,,
3.4502349999994038,1200,,,,-0.0625,0.130859375,-1.048828125,0.0056448974566528035,0.1445159128857936,15.206295481138348,0.1493417352171366,1129,0,2.2709345533777037,0.6674802860310385,29.392317142660634,0.2165096346816653,0.06363719847005102,0.091796875,,
3.457839999999851,1200,,,,-0.09375,0.015625,-1.01171875,0.0056448974566528035,0.1445159128857936,15.206024443373655,0.1491407781074117,1128,0,2.2678383174050687,0.6668851418314748,29.406203110393935,0.21670285304139147,0.06372408111137007,0.091796875,,
3.4692249999996276,1200,,,,-0.0625,0.109375,-0.99609375,0.0056448974566528035,0.1445159128857936,15.206138775262326,0.15094806730467716,1128,0,2.295337259292559,0.6666650206467348,29.04431660087312,0.2167744045511763,0.06296064436750116,0.091796875,,
3.477910000000149,1200,,,,-0.01953125,0.048828125,-0.9296875,0.0056448974566528035,0.1445159128857936,15.206129890501115,0.15033026433183247,1128,0,2.2859415259032114,0.6665860240070768,29.160239509787907,0.21680009433299993,0.06321942676494889,0.091796875,,
3.4862749999994413,1200,,,,-0.0625,0.01171875,-1.015625,0.0056448974566528035,0.1445159128857936,15.206087597441426,0.15077468704558963,1127,0,2.292693098692053,0.6659447927900243,29.046399327059337,0.21700884885717575,0.0630332568141099,0.091796875,,
3.4949550000000746,1200,,,,-0.0625,0.119140625,-1.05859375,0.0056448974566528035,0.146456143168771,15.205779639518537,0.14898011895696786,1126,0,2.2653588595289116,0.6654128963445951,29.373398989110704,0.22009814353361476,0.06465030586775422,0.09375,,
3.5031699999999253,1200,,,,-0.0625,-0.017578125,-0.9921875,0.0056448974566528035,0.146456143168771,15.205790436685042,0.14765577715925154,1125,0,2.245222804249445,0.6652122433266423,29.6278944819027,0.22016453340720604,0.06523011564446042,0.09375,,
3.5117949999999256,1200,,,,0,0.0859375,-0.935546875,0.0056448974566528035,0.146456143168771,15.206059090556643,0.14754610340239724,1125,0,2.243594766918233,0.6651275005651747,29.645616506709167,0.22019258419524637,0.06527744908673544,0.09375,,
3.520410000000149,1200,,,,0,-0.03515625,-0.9921875,0.0056448974566528035,0.146456143168771,15.205826841153346,0.14788041938768445,1125,0,2.248644050406266,0.6650989019334262,29.577776074130625,0.2202020522707624,0.06513086993128617,0.09375,,
3.5285999999996274,1200,,,,-0.0625,0.06640625,-1.02734375,0.0056448974566528035,0.146456143168771,15.205584076242038,0.1475261590455485,1125,0,2.2432214148121425,0.6647318859438242,29.632914591246077,0.22032363162604157,0.06528831358407654,0.09375,,
3.5370449999999254,1200,,,,-0.0625,0.017578125,-0.9921875,0.0056448974566528035,0.146456143168771,15.205571576399045,0.1476504461730756,1124,0,2.2451094275719554,0.6646034560873462,29.602274522810347,0.22036620758939124,0.06523340972611773,0.09375,,
3.5452449999991806,1200,,,,-0.0625,0.0234375,-0.99609375,0.0056448974566528035,0.146456143168771,15.205560155647767,0.14713631426837112,1124,0,2.237290077688012,0.6645546590434547,29.703553672852173,0.22038238868052892,0.06546140110723461,0.09375,,
3.5634199999999256,1200,,,,0,-0.033203125,-0.9453125,0.0056448974566528035,0.146456143168771,15.205371701196963,0.14676529263341442,1124,0,2.2316208273260107,0.6644805633251623,29.77569285913867,0.2204069633517677,0.06562770044777669,0.09375,,
3.571769999999553,1200,,,,-0.09375,0.107421875,-1.0234375,0.0051461915061500555,0.146456143168771,15.20551864573666,0.1479166186826889,1124,0,2.249148903393946,0.6057184336458443,26.931006334521495,0.24178914662914486,0.06511625039488048,0.09375,,
3.578985000000335,1200,,,,-0.0625,0.02734375,-1.01953125,0.0051461915061500555,0.146456143168771,15.205625522853325,0.14781971576961622,1124,0,2.2476912428874005,0.6057006649914658,26.94768095520888,0.24179623968356473,0.06515847923161919,0.095703125,,
3.587285000000149,1200,,,,-0.09375,0.013671875,-0.955078125,0.0051461915061500555,0.146456143168771,15.205545874261283,0.14718232136187098,1124,0,2.2379875393481954,0.6056923228227741,27.064150812885195,0.2417995699305308,0.06544100027090667,0.095703125,,
3.5961349999997765,1200,,,,0.03125,0.07421875,-0.947265625,0.0051461915061500555,0.146456143168771,15.205460970189788,0.14733736329609914,1124,0,2.240332527049509,0.6056888348486437,27.035666693922828,0.24180096237925386,0.0653725022515528,0.095703125,,
3.6069899999992923,1200,,,,0,-0.04296875,-1,0.0051461915061500555,0.146456143168771,15.20538968920195,0.14789057573989828,1125,0,2.2487338354855892,0.6060716636236365,26.951685168767963,0.24164822736163852,0.06512826945441741,0.095703125,,
3.6193100000005214,1200,,,,-0.0625,0.0703125,-1.02734375,0.0051461915061500555,0.146456143168771,15.205357294198864,0.14924590051325032,1125,0,2.2693372419984286,0.6062617015745032,26.715363867232693,0.24157248064394365,0.06453696720712981,0.095703125,,
3.628129999999888,1200,,,,-0.0625,-0.013671875,-0.970703125,0.0051461915061500555,0.146456143168771,15.205396992964065,0.1481556429604749,1125,0,2.252765367961863,0.6063031180068698,26.91372686341536,0.24155597888103156,0.06501171637829012,0.095703125,,
3.6371549999993293,1200,,,,0,0.107421875,-0.919921875,0.0051461915061500555,0.146456143168771,15.205322554948632,0.14848562428427717,1125,0,2.257771812015348,0.6063156336236447,26.854601975140753,0.24155099266280836,0.06486755764659863,0.095703125,,
3.6444599999999627,1200,,,,0,-0.044921875,-0.9765625,0.0051461915061500555,0.15001099537390533,15.205390059952576,0.14965082131125806,1125,0,2.2754991108299425,0.6061250629756118,26.637016032695342,0.24749182064418485,0.06592443594460112,0.095703125,,
3.6529300000006333,1200,,,,-0.0625,0.1015625,-0.97265625,0.0051461915061500555,0.15001099537390533,15.204979918260232,0.15241359869235863,1125,0,2.317445707387087,0.6060567670034074,26.151929474401133,0.24751971026678093,0.06473118006421055,0.095703125,,
3.6607399999992922,1200,,,,-0.09375,0.11328125,-0.994140625,0.0051461915061500555,0.15001099537390533,15.205072898929073,0.1549122034600709,1125,0,2.3554513465441107,0.6060233596273689,25.728544999094076,0.24753335492899808,0.06368673061067452,0.095703125,,
3.6682949999999255,1200,,,,-0.0625,-0.037109375,-0.994140625,0.0051461915061500555,0.15001099537390533,15.204853617083682,0.15404335345916467,1125,0,2.34220664003128,0.6060128615613619,25.8735865232313,0.24753764299227823,0.06404686623717451,0.095703125,,
3.6762549999998884,1200,,,,-0.0625,0.01953125,-0.94921875,0.0051461915061500555,0.15001099537390533,15.204811729677777,0.15278105593468458,1127,0,2.323007191348249,0.6072291609075336,26.139788252446362,0.24704181721066654,0.06457620791386381,0.095703125,,
3.6839300000006334,1200,,,,-0.03125,0.123046875,-0.931640625,0.0051461915061500555,0.15001099537390533,15.204870388321678,0.1534998857524047,1130,0,2.3339458674874987,0.6089345642317467,26.09034651207515,0.24634994330329152,0.06427355384012944,0.095703125,,
3.6913650000002236,1200,,,,0,0.0234375,-0.88671875,0.0051461915061500555,0.15001099537390533,15.204946748895956,0.1533514650891687,1131,0,2.3317008605459875,0.6095514021840231,26.14192122574812,0.24610064850382726,0.06433543766792581,0.095703125,,
3.6999599999999626,1200,,,,0.03125,-0.08984375,-0.9609375,0.0051461915061500555,0.15001099537390533,15.20511575905432,0.15340656346408665,1132,0,2.3325645556701504,0.6098649850705462,26.145685168200234,0.24597410746011728,0.06431161573181278,0.095703125,,
3.7070499999998137,1200,,,,-0.0625,0.00390625,-1.015625,0.0051461915061500555,0.15001099537390533,15.205125143933538,0.1530747018092718,1132,0,2.3275199973802874,0.6099624104381723,26.206537908362048,0.2459348196000201,0.06445100172834109,0.095703125,,
3.715410000000149,1200,,,,-0.0625,0.125,-1.04296875,0.0051461915061500555,0.15001099537390533,15.205069818962885,0.15249673476821218,1132,0,2.318723499314531,0.6101062124088179,26.31215893525811,0.2458768527886854,0.06469550829076952,0.095703125,,
3.7235649999994784,1200,,,,-0.0625,-0.046875,-0.98046875,0.004601616639737711,0.15001099537390533,15.205115639611574,0.15258772232872028,1132,0,2.320113963193133,0.5456822532274476,23.51963144415693,0.27490539501085587,0.06465673572665706,0.09765625,,
3.7321549999993295,1200,,,,-0.0625,0.11328125,-0.99609375,0.004601616639737711,0.15001099537390533,15.205200867933444,0.15292258952550078,1133,0,2.3252186909797743,0.5457396949205182,23.47046740324286,0.27487645991327975,0.06451478992313424,0.09765625,,
3.7406499999994414,1200,,,,-0.03125,0.1328125,-0.93359375,0.004601616639737711,0.15001099537390533,15.205240098627417,0.15171599249443732,1133,0,2.3068780926794745,0.545759154062501,23.65791048059212,0.27486665914306574,0.06502770816106075,0.09765625,,
3.750089999999851,1200,,,,0,-0.076171875,-0.94921875,0.004601616639737711,0.15001099537390533,15.205318069750868,0.151385596406467,1133,0,2.301866144539265,0.5457672600223468,23.709773972612382,0.27486257671037845,0.06516929567332905,0.09765625,,
3.761209999999963,1200,,,,-0.0625,0.08984375,-1.01171875,0.004601616639737711,0.15001099537390533,15.20511772832678,0.15058125383985396,1130,0,2.2896056923140384,0.5446135769328547,23.78634796205584,0.2754448323134628,0.06551826625758148,0.09765625,,
3.7697000000001863,1200,,,,-0.0625,-0.017578125,-0.994140625,0.004601616639737711,0.15001099537390533,15.205046493534624,0.1497155286460338,1129,0,2.276431573867059,0.5442247140087609,23.9069217039661,0.2756416449170856,0.0658974322338519,0.09765625,,
3.778485000000335,1200,,,,-0.03125,0.07421875,-0.9375,0.004601616639737711,0.15001099537390533,15.205061879401901,0.1504262461059537,1129,0,2.2872403803271655,0.5441120070503849,23.789017181156773,0.2756987411233774,0.06558602089407317,0.09765625,,
3.7958349999999625,1200,,,,0,0.01171875,-1,0.004601616639737711,0.15149626512758668,15.205024931610575,0.1512067481045993,1128,0,2.2991023747581925,0.5435342755620897,23.641151500235207,0.27872440053742437,0.06589365779917489,0.095703125,,
3.8036349999997765,1200,,,,-0.09375,0.138671875,-1.048828125,0.004601616639737711,0.15149626512758668,15.205260793484625,0.15228133207432176,1128,0,2.3154773681692973,0.5433963775825386,23.468006427208916,0.2787951325725857,0.06542765963088003,0.09765625,,
3.8109799999995158,1200,,,,-0.0625,0.0234375,-1.005859375,0.004601616639737711,0.15149626512758668,15.205294473231652,0.15296748501043192,1128,0,2.325915654413266,0.5433417222464941,23.36033644279148,0.27882317687883795,0.06513403219937614,0.09765625,,
3.8296499999994413,1200,,,,-0.0625,0.0703125,-0.9375,0.004601616639737711,0.15149626512758668,15.205298768911932,0.15549435369236433,1127,0,2.364338104771264,0.5433099445869274,22.97936760781045,0.27883948496979494,0.06407555028693455,0.09765625,,
3.8463699999991805,1200,,,,-0.0625,0.103515625,-1.037109375,0.004601616639737711,0.15149626512758668,15.205443588228317,0.15437299917048813,1129,0,2.347309930432474,0.54386657992463,23.16978141120149,0.2785540989640903,0.06454037584192159,0.09765625,,
3.853535000000149,1200,,,,-0.125,0.109375,-1.02734375,0.004601616639737711,0.15149626512758668,15.205644038417034,0.15408547736823397,1129,0,2.3429689203509296,0.5439365157118746,23.215694881279255,0.2785182843062422,0.06465995507311108,0.09765625,,
3.879504999999888,1200,,,,-0.041015625,0.099609375,-0.91796875,0.004302969318026556,0.15149626512758668,15.206138048652273,0.1564060211543976,1130,0,2.378331549314198,0.5090969128572301,21.40563257482038,0.29757843998176414,0.06369854748437881,0.09765625,,
3.896104999999516,1200,,,,-0.03125,0.017578125,-1.017578125,0.004302969318026556,0.15149626512758668,15.206058812350099,0.153706550492557,1130,0,2.337270846633282,0.5092022572189855,21.786189561747417,0.2975168766041718,0.06481759071517502,0.09765625,,
3.904445000000298,1200,,,,-0.0625,0.07421875,-1.01171875,0.004302969318026556,0.15149626512758668,15.206285666562078,0.1535244066869698,788,0,2.3345359848715157,0.3549255987293864,15.203260991880585,0.4268395000809599,0.06489352321374668,0.09765625,,
3.9160599999995904,1200,,,,-0.0625,0.005859375,-1.013671875,0.004302969318026556,0.15149626512758668,15.20608742266991,0.15404530632486166,1008,0,2.3424263950278124,0.4541675714876614,19.38876595873865,0.33356909352058933,0.06467493085339311,0.09765625,,
3.9234699999997393,1200,,,,-0.0625,0.048828125,-0.91796875,0.004302969318026556,0.15149626512758668,15.206148400796701,0.15384827475214902,1094,0,2.3394396970877223,0.49306034886115396,21.076001637270057,0.30725704364081424,0.06475749954836557,0.09765625,,
3.931410000000149,1200,,,,0,0.091796875,-0.9296875,0.004302969318026556,0.15149626512758668,15.206229070097708,0.15330274558540702,1115,0,2.331156666446609,0.5025593132877869,21.558367162591434,0.30144952271700004,0.06498759491721035,0.09765625,,
3.9387399999992923,1200,,,,0,-0.04296875,-0.98828125,0.004302969318026556,0.15149626512758668,15.206218130060217,0.15335283679367442,1125,0,2.3319166871481376,0.5067718574663205,21.731988122015064,0.2989437217074647,0.064966414092976,0.09765625,,
3.9460849999999628,1200,,,,-0.125,0.12109375,-1.0234375,0.004302969318026556,0.15096416884713396,15.20612132234159,0.15282780684314604,1128,0,2.323918172284265,0.5081315714464218,21.8652953234993,0.29709661302368384,0.06496105183374237,0.09765625,,
3.954754999999888,1200,,,,-0.0625,0.056640625,-1.03125,0.004302969318026556,0.15096416884713396,15.206011808604087,0.1525698949876313,1129,0,2.319979624819407,0.5087755121018721,21.930171569566113,0.29672058748162866,0.06507133391694567,0.09765625,,
3.962219999999739,1200,,,,-0.0625,-0.04296875,-0.984375,0.004302969318026556,0.15096416884713396,15.205916909009689,0.15244906282794568,1130,0,2.3181277822181396,0.509007558033863,21.95770060383861,0.29658531875295,0.06512331632671317,0.09765625,,
3.970539999999106,1200,,,,-0.03125,0.064453125,-0.931640625,0.004302969318026556,0.15096416884713396,15.205921044371518,0.1519035327134149,1130,0,2.3098331248012927,0.5091040414326702,22.0407282225839,0.2965291110679568,0.06535717547133234,0.09765625,,
3.9782949999999255,1200,,,,0.03125,0.025390625,-0.951171875,0.004302969318026556,0.15096416884713396,15.205632111011495,0.15138760048326247,1129,0,2.301944159117275,0.5085385682124712,22.091698714684725,0.29685883880504416,0.06558116027672195,0.09765625,,
3.9864399999994786,1200,,,,-0.0625,-0.04296875,-0.98046875,0.004302969318026556,0.15096416884713396,15.205552381020107,0.15089532927367036,1127,0,2.2944468333220716,0.5080119452250185,22.1409333982902,0.2971665730817924,0.06579545302802103,0.09765625,,
3.9939599999999627,1200,,,,-0.0625,0.1328125,-1.0390625,0.004302969318026556,0.15096416884713396,15.205476502684773,0.14915415764025583,1127,0,2.2679600392766504,0.5078038524854006,22.3903350892973,0.2972883488540965,0.06656385748987133,0.09765625,,
4.0025849999999625,1200,,,,-0.125,0.05078125,-1,0.004302969318026556,0.15096416884713396,15.205668121748614,0.14941189735818342,1127,0,2.2719077246693056,0.5077208960961658,22.34777806260017,0.29733692272248,0.06644819558818482,0.09765625,,
4.0103599999994035,1200,,,,-0.0625,0.041015625,-0.96875,0.004302969318026556,0.15096416884713396,15.205781866003608,0.14901725024327808,1127,0,2.2659238014709597,0.5076887930641997,22.40537800673728,0.29735572443105673,0.0666236740834503,0.09765625,,
4.019714999999851,1200,,,,-0.0625,0.171875,-0.921875,0.00430545108697282,0.15096416884713396,15.20583043567592,0.1497848018876127,1126,0,2.277602299344349,0.5078654778424203,22.298251015491992,0.2972522753239291,0.06628205850099107,0.09765625,,
4.028339999999851,1200,,,,-0.01953125,0.0234375,-0.97265625,0.00430545108697282,0.15096416884713396,15.205948975969305,0.14967831872964465,1126,0,2.2760008774118474,0.5078238344546332,22.312110662808912,0.29727665108365536,0.06632869536447751,0.09765625,,
4.036389999999665,1200,,,,-0.0625,0.0703125,-1.00390625,0.00430545108697282,0.15096416884713396,15.206116016178049,0.1503369581205374,1126,0,2.2860412267001924,0.507809573301108,22.21349148782021,0.29728499970129363,0.06603737810321321,0.09765625,,
4.045349999999628,1200,,,,-0.0625,0.017578125,-0.9765625,0.00430545108697282,0.15096416884713396,15.206146334255925,0.14984190970762074,1126,0,2.2785180060184445,0.5078036686580973,22.286576946804548,0.29728845647386937,0.06625542060601645,0.09765625,,
4.053100000000558,1200,,,,-0.0625,0.08984375,-0.927734375,0.00430545108697282,0.15096416884713396,15.205648477623184,0.15134089176776527,1126,0,2.301236400510655,0.5076939795822613,22.061791629473685,0.2973526866939602,0.06560133014306321,0.09765625,,
4.06018499999959,1200,,,,0,0.12109375,-0.921875,0.00430545108697282,0.15096416884713396,15.205634901176674,0.15203375139974595,1126,0,2.311769716440795,0.507452990034525,21.950845122056563,0.2974938995568101,0.06530242513928189,0.09765625,,
4.070030000000261,1200,,,,-0.03125,-0.03125,-0.9375,0.00430545108697282,0.15096416884713396,15.205751089456038,0.1515076302725059,1125,0,2.3037873140770593,0.5073403303778449,22.022012504270386,0.2975599608544869,0.06552869178707717,0.09765625,,
4.078689999999479,1200,,,,-0.03125,0.0703125,-1.037109375,0.00430545108697282,0.15096416884713396,15.205725716606588,0.15036095433553975,1125,0,2.286347430113426,0.5072911243512692,22.18784064354132,0.2975888234594859,0.06602853392218024,0.09765625,,
4.093554999999702,1200,,,,-0.0625,0.02734375,-1.0078125,0.00430545108697282,0.15096416884713396,15.205689411358602,0.1499261185915549,1125,0,2.2797299939537004,0.5072724353533661,22.251426120582437,0.297599787266131,0.06622019679853364,0.09765625,,
4.101174999999814,1200,,,,-0.0625,0.05078125,-0.923828125,0.00430545108697282,0.14418858278873684,15.205763905202598,0.14963078388865336,1127,0,2.275250372761256,0.5079495794504508,22.32499708741946,0.28386396725583285,0.06337262242209801,0.09765625,,
4.109714999999851,1200,,,,0.03125,0.01953125,-0.9453125,0.00430545108697282,0.14418858278873684,15.205809992220631,0.14898609563705661,1127,0,2.2654542617398943,0.5082207031402906,22.43350094165977,0.28371253256271745,0.063646653664064,0.09765625,,
4.119394999999553,1200,,,,-0.09375,0.056640625,-1.015625,0.00430545108697282,0.14418858278873684,15.205718926709693,0.148600571380844,1127,0,2.2595785207655745,0.508323492153287,22.49638538699954,0.28365516253822126,0.06381215853471818,0.09765625,,
4.127349999999628,1200,,,,-0.0625,0.109375,-1.041015625,0.00430545108697282,0.14418858278873684,15.205624521030684,0.14891621954888692,1128,0,2.264364119551744,0.5083650003265617,22.450673720585108,0.28363200199878724,0.06367729533591115,0.099609375,,
4.13547000000067,1200,,,,-0.125,-0.01171875,-0.96484375,0.00430545108697282,0.14418858278873684,15.205545068883527,0.15024277723193621,1126,0,2.284523320474434,0.507669104022927,22.22210206711734,0.28402079552634174,0.0631153910737023,0.099609375,,
4.1446500000003725,1200,,,,-0.03125,0.09375,-0.943359375,0.00430545108697282,0.14418858278873684,15.205460254885129,0.14903954814788437,1125,0,2.2662149257686943,0.5073772602963958,22.38875291690592,0.2841841644706462,0.06362529041230652,0.099609375,,
4.152419999999926,1200,,,,0,-0.001953125,-0.935546875,0.00430545108697282,0.14418858278873684,15.205584411818437,0.14898069988973403,1125,0,2.2653386079051407,0.5072785143792858,22.393054734028873,0.2842394832455467,0.0636499030588961,0.09765625,,
4.161304999999702,1200,,,,-0.0625,0.095703125,-1.048828125,0.00430545108697282,0.14418858278873684,15.205497062706506,0.14712354671013747,1125,0,2.2370866573559587,0.5072369710480453,22.673997423396873,0.2842627628085086,0.064453731514878,0.099609375,,
4.169219999999739,1200,,,,-0.0625,0.0234375,-1.00390625,0.004528315744508976,0.14418858278873684,15.205423576287785,0.14651953867855194,1125,0,2.2278916478096638,0.5336483457148883,23.95306550206519,0.2701940031231209,0.06471974655073322,0.099609375,,
4.1775,1200,,,,-0.0625,0,-0.96875,0.004528315744508976,0.14418858278873684,15.205647655877746,0.1469026879323675,1126,0,2.2337505124009436,0.533879032025203,23.900566740166695,0.2700772537212701,0.06454999427566149,0.099609375,,
4.185515000000596,1200,,,,-0.03125,0.091796875,-0.900390625,0.004528315744508976,0.14418858278873684,15.205566974157888,0.147267302295306,1126,0,2.2392828281548307,0.5339702005790835,23.84558993019542,0.27003114149884444,0.06439051868564019,0.09765625,,
4.193480000000447,1200,,,,0.0625,-0.046875,-0.90625,0.004528315744508976,0.14418858278873684,15.20548907247145,0.14805054796972617,1126,0,2.2511809893270813,0.5340064785447861,23.72117040240333,0.2700127968141196,0.06405019564057239,0.09765625,,
4.201150000000372,1200,,,,-0.09375,0.076171875,-1.01953125,0.004528315744508976,0.14418858278873684,15.205416645173345,0.1467730580963536,1126,0,2.2317455006412894,0.5340204766296442,23.928376980089983,0.2700057190667148,0.0646079863260862,0.099609375,,
4.208125,1200,,,,-0.0625,0.109375,-1.01953125,0.004528315744508976,0.14418858278873684,15.205413164948496,0.14672605382170897,1125,0,2.231030270421555,0.5334310680769172,23.9096293380244,0.270304058795364,0.06462869854360707,0.099609375,,
4.216179999999702,1200,,,,-0.0625,-0.017578125,-0.9609375,0.004528315744508976,0.14418858278873684,15.20553884992453,0.1467799559453101,1124,0,2.2318683225166236,0.533150502103556,23.888080525395104,0.27044630403579833,0.06460443088602638,0.099609375,,
4.225609999999404,1200,,,,-0.0625,0.09765625,-0.93359375,0.004528315744508976,0.14418858278873684,15.205461427769464,0.1480337109580642,1124,0,2.250920881982419,0.5330368573764145,23.680834881542403,0.2705039638317454,0.0640575970230228,0.099609375,,
4.233319999999367,1200,,,,0,0.07421875,-0.9453125,0.004528315744508976,0.14418858278873684,15.205746969195543,0.1479038392864957,1124,0,2.2489883559630166,0.5329909895030779,23.699144021350488,0.27052724272725104,0.06411264087091963,0.099609375,,
4.251174999999813,1200,,,,-0.09375,0.08203125,-1.037109375,0.004528315744508976,0.1416073964794067,15.205780840804177,0.14653944484546286,1124,0,2.2282466828532197,0.5329332248912234,23.91715553723228,0.2657132073315753,0.06355104108046135,0.099609375,,
4.259854999999516,1200,,,,-0.0625,0.08203125,-1,0.004528315744508976,0.1416073964794067,15.205757801658658,0.1467185545427761,1124,0,2.230966805386899,0.5329184081455983,23.887330230947946,0.2657205949634193,0.0634735560105516,0.099609375,,
4.268504999999888,1200,,,,0,0.1328125,-0.93359375,0.004528315744508976,0.1416073964794067,15.205660948562969,0.14666056489234924,1124,0,2.23007082427778,0.5329126272690431,23.896668279207216,0.2657234774208411,0.0634990579392325,0.099609375,,
4.2767049999991436,1200,,,,0,-0.0234375,-0.947265625,0.004528315744508976,0.1416073964794067,15.205645024544474,0.1468238400999386,1124,0,2.2325511937001448,0.5329106845622957,23.870032009392357,0.26572444610622775,0.06342851034233711,0.099609375,,
4.284535000000149,1200,,,,-0.0625,0.0703125,-1.01953125,0.004528315744508976,0.1416073964794067,15.205762403255601,0.1461178888921375,1124,0,2.2218339013591435,0.5329326639086346,23.986161322978656,0.2657134870301058,0.06373446565595313,0.099609375,,
4.299704999999143,1200,,,,-0.0625,0.0234375,-0.982421875,0.004528315744508976,0.1416073964794067,15.205843432794186,0.14601242862783373,1124,0,2.2202421289568752,0.5329596360245418,24.00457270284027,0.26570003975476664,0.06378015921440845,0.09765625,,
4.30740499999933,1200,,,,-0.0625,0.17578125,-0.921875,0.004528315744508976,0.1416073964794067,15.205818420525478,0.14599538848614024,1124,0,2.2199793675543247,0.5329630631178108,24.0075683092928,0.2656983312333308,0.06378770836749295,0.09765625,,
4.316820000000298,1200,,,,0.03125,-0.037109375,-0.94921875,0.004528315744508976,0.1416073964794067,15.206158422682435,0.14573856977301183,1124,0,2.2161237802635756,0.5329644924688078,24.049400905098338,0.2656976186602044,0.06389868550689193,0.09765625,,
4.325745000000111,1200,,,,-0.0625,0.087890625,-1.03125,0.004798644554650267,0.1416073964794067,15.205966735810705,0.14573457530236084,1124,0,2.2160351043051993,0.5647816449237072,25.48613258997921,0.25072945934447916,0.06390124245067197,0.099609375,,
4.333035000000149,1200,,,,-0.0625,-0.0078125,-0.984375,0.004798644554650267,0.1416073964794067,15.206064624806272,0.14552242575164462,1124,0,2.2128234103380806,0.5647818268043094,25.52313140604476,0.25072937860033534,0.06399398877372306,0.099609375,,
4.340450000000186,1200,,,,-0.0625,0.0234375,-0.97265625,0.004798644554650267,0.1416073964794067,15.206203921090314,0.14571343689418906,1124,0,2.2157482354559637,0.5647818947959814,25.48944350980195,0.2507293484160999,0.0639095156270163,0.099609375,,
4.348100000000559,1200,,,,0,0.0859375,-0.9296875,0.004798644554650267,0.1416073964794067,15.206193850020217,0.14614248920930942,1124,0,2.2222710206412466,0.5647819274058729,25.41462864610017,0.2507293339392613,0.06372192912750364,0.09765625,,
4.356745000000112,1200,,,,0,-0.09765625,-0.8828125,0.004798644554650267,0.1416073964794067,15.206217325192787,0.14590395110232054,1124,0,2.218647189066188,0.5647819401068634,25.45614025024754,0.2507293283007826,0.06382600946075082,0.09765625,,
4.3654550000000745,1200,,,,-0.0625,0.068359375,-1.001953125,0.004798644554650267,0.1416073964794067,15.206387174725661,0.14589097433114925,1125,0,2.2184746409774188,0.5651608586078645,25.475200309653534,0.25056122398182684,0.06383097370769003,0.09765625,,
4.373064999999478,1200,,,,-0.0625,0.041015625,-1.005859375,0.004798644554650267,0.1416073964794067,15.206270195278819,0.1456672080208624,1125,0,2.2150549237571195,0.5652905037321517,25.5203831593178,0.25050375965010674,0.06392951929120379,0.099609375,,
4.382434999999591,1200,,,,-0.0625,-0.00390625,-0.97265625,0.004798644554650267,0.1416073964794067,15.206159716316435,0.14630066437982434,1125,0,2.2246712691628154,0.5653414733038358,25.41236007046489,0.2504811749469892,0.06365317808625998,0.09765625,,
4.390469999999739,1200,,,,-0.0625,0.107421875,-0.884765625,0.004798644554650267,0.14180059318081686,15.206483720600684,0.1467469552732091,1125,0,2.231505186409771,0.5653631020039567,25.335504727800313,0.2508133139184319,0.06354481900575697,0.099609375,,
4.398809999999591,1200,,,,0,-0.03125,-0.96875,0.004798644554650267,0.14180059318081686,15.206427024524125,0.14776438671197392,1125,0,2.2469683633591937,0.5651722077198994,25.152655325995465,0.25089802938628136,0.06310751655124618,0.099609375,,
4.405850000000559,1200,,,,-0.0625,0.08984375,-1.037109375,0.004798644554650267,0.14180059318081686,15.206308309279658,0.14808640001227208,1124,0,2.251847454997924,0.5649003976688496,25.086086378323095,0.25101875262609,0.06297078110957013,0.099609375,,
4.4135400000000375,1200,,,,-0.0625,0.0546875,-1.03125,0.004798644554650267,0.14180059318081686,15.206382460688898,0.14779025157573192,1124,0,2.2473550894220096,0.5647993733793176,25.13173712680076,0.25106365173954254,0.06309665697612837,0.099609375,,
4.422674999999813,1200,,,,-0.0625,-0.013671875,-0.955078125,0.004798644554650267,0.14180059318081686,15.206325272392002,0.14791119128133423,1124,0,2.2491856860509603,0.5647503563171591,25.10910325544209,0.25108544261135946,0.06304530304467003,0.099609375,,
4.43068499999959,1200,,,,0,0.15625,-0.8984375,0.004798644554650267,0.14180059318081686,15.206342004222842,0.14822544517528288,1124,0,2.253966813063534,0.5647336725433181,25.055101489082997,0.25109286036054457,0.06291157099517589,0.099609375,,
4.4385849999999625,1200,,,,-0.03125,0.01953125,-0.9296875,0.004798644554650267,0.14180059318081686,15.206423326077507,0.1476741945252277,1124,0,2.24559631628813,0.5650501529982165,25.16258816866155,0.25095222508729137,0.06314607489880768,0.09765625,,
4.445825000000187,1200,,,,-0.03125,0.041015625,-1.013671875,0.004798644554650267,0.14180059318081686,15.206694198641788,0.1473658712114139,1125,0,2.2409477388284005,0.5651743928484559,25.220329017754654,0.25089705934153816,0.06327706386180706,0.09765625,,
4.455094999999739,1200,,,,-0.125,0.12109375,-1.0234375,0.004798644554650267,0.14180059318081686,15.206484461476695,0.1465991595500893,1125,0,2.2292578417639755,0.5652255700921255,25.354876385446364,0.2508743423580517,0.06360887938768552,0.09765625,,
4.462794999999925,1200,,,,-0.0625,0,-1.01171875,0.004798644554650267,0.14180059318081686,15.206743624008132,0.14543455608817718,1125,0,2.2115860085043413,0.5652437750726063,25.558299469206318,0.25086626237078397,0.06411715060392982,0.09765625,,
4.470995000000112,1200,,,,-0.03125,0.12890625,-0.93359375,0.004798644554650267,0.14180059318081686,15.20660982921569,0.14555175365666462,1125,0,2.213348727815017,0.5651260515135604,25.532625944192894,0.2509185212768665,0.06406608746232238,0.09765625,,
4.479700000000186,1200,,,,0.0625,-0.0625,-0.9921875,0.004855769746790292,0.14180059318081686,15.206758857008024,0.14555798942513573,1124,0,2.213465244898963,0.5716690882847922,25.826883417403145,0.2480466341223178,0.06406271501556354,0.09765625,,
4.487870000000112,1200,,,,-0.0625,0.064453125,-1.005859375,0.004855769746790292,0.14180059318081686,15.20701875554644,0.14502535660527366,1124,0,2.205403317926207,0.5716059117502622,25.918429844739542,0.24807404938591734,0.06429689845309351,0.09765625,,
4.495774999999441,1200,,,,-0.0625,0.048828125,-1.015625,0.004855769746790292,0.14180059318081686,15.207066682436798,0.14526858524529995,1124,0,2.2091090626885306,0.5715814076711757,25.873842868380137,0.24808468448713628,0.06418904144471829,0.09765625,,
4.503619999999181,1200,,,,-0.0625,-0.05859375,-0.95703125,0.004855769746790292,0.14180059318081686,15.20691635152573,0.1459262449091579,1124,0,2.219088199825822,0.5715716885009838,25.757051411739607,0.2480889029908149,0.06390038629016499,0.09765625,,
4.51186999999918,1200,,,,-0.03125,0.138671875,-0.921875,0.004855769746790292,0.14180059318081686,15.206773261413591,0.14601995930940143,1124,0,2.2204924128589063,0.5717132312208644,25.747137342603114,0.24802748202627556,0.06385997644470542,0.09765625,,
4.520614999999292,1200,,,,-0.03125,-0.03125,-0.9296875,0.004855769746790292,0.14180059318081686,15.206620988988764,0.14576206784995208,1125,0,2.2165485203654853,0.5718492851994563,25.79908718195641,0.2479684715026932,0.06397360214674454,0.09765625,,
4.5289500000001865,1200,,,,-0.0625,0.1015625,-1.03125,0.004855769746790292,0.14180059318081686,15.206689993317346,0.147494321764239,1125,0,2.2429004268433816,0.5718958264941704,25.498047958332528,0.24794829164968965,0.06322197431670407,0.09765625,,
4.5401000000005585,1200,,,,-0.09375,0.072265625,-1.013671875,0.004855769746790292,0.14188082195346396,15.206753153005488,0.14845232399755848,1125,0,2.2574778460208647,0.571913532400636,25.334181392243444,0.24808089670113598,0.06284926436976987,0.09765625,,
4.548674999999814,1200,,,,-0.0625,0.03125,-0.9921875,0.004855769746790292,0.14188082195346396,15.206625491674469,0.14793331142147043,1125,0,2.24956646452955,0.5720089467099121,25.427519290012878,0.24803951541236507,0.0630702956283336,0.09765625,,
4.566514999999665,1200,,,,0,-0.033203125,-0.970703125,0.004855769746790292,0.14188082195346396,15.206618106232101,0.148376196314951,1125,0,2.256300153416783,0.5722471608379648,25.36219128343336,0.24793626192168802,0.06288206900957286,0.099609375,,
4.5761150000002235,1200,,,,-0.0625,0.123046875,-1.037109375,0.004855769746790292,0.14188082195346396,15.206448522549904,0.1484817510239202,1125,0,2.257880103483314,0.5722738573481903,25.34562647792159,0.24792469572332568,0.06283806732455777,0.099609375,,
4.584954999999143,1200,,,,-0.0625,-0.03125,-1.01953125,0.004855769746790292,0.14188082195346396,15.20637467629275,0.14795065064331767,1125,0,2.2497930272835815,0.5722812426159608,25.43706179527713,0.24792149626451332,0.06306394420857994,0.099609375,,
4.595394999999553,1200,,,,-0.0625,0.052734375,-0.994140625,0.004855769746790292,0.14188082195346396,15.206317388297263,0.1480638116085901,1126,0,2.251505313041274,0.5725932108236211,25.431572713020927,0.24778642022210118,0.06301598363177525,0.099609375,,
4.603519999999553,1200,,,,0,0.025390625,-0.923828125,0.004855769746790292,0.14188082195346396,15.206258691113257,0.14817987957241388,1126,0,2.2532615815961345,0.5727092189322428,25.416898934856686,0.24773622854890673,0.0629668668353012,0.09765625,,
4.610609999999404,1200,,,,-0.0625,0.03125,-1.05078125,0.004855769746790292,0.14188082195346396,15.206334283366001,0.14844721428343177,1126,0,2.2573379638283275,0.5727419685814351,25.372450991347996,0.2477220628774137,0.06285315899832805,0.09765625,,
4.61925,1200,,,,-0.0625,0.109375,-1.0546875,0.004855769746790292,0.14188082195346396,15.206419262058672,0.14941234800773928,1126,0,2.2720268067343,0.5727575098397986,25.209100004548457,0.24771534116269958,0.06244680808031332,0.099609375,,
4.628040000000038,1200,,,,-0.0625,-0.0390625,-1.015625,0.00469425226745287,0.14188082195346396,15.206432448575818,0.1503645834986723,1126,0,2.286508881630798,0.5536383852692076,24.213261960930506,0.25626984278641407,0.062051288360739205,0.099609375,,
4.638734999999404,1200,,,,-0.03125,0.033203125,-0.94921875,0.00469425226745287,0.14188082195346396,15.206446212866634,0.14907563375456212,1126,0,2.2669106063377544,0.5536122376664985,24.421441062507164,0.2562819466410249,0.06258774455278396,0.099609375,,
4.646884999999776,1200,,,,0.03125,0.029296875,-0.900390625,0.00469425226745287,0.14188082195346396,15.20660585839579,0.1481839482314883,1126,0,2.2533748952971684,0.5536030829101861,24.567731009410156,0.2562861846932345,0.06296370046971396,0.099609375,,
4.654709999999962,1200,,,,-0.0625,0.03125,-1.005859375,0.00469425226745287,0.14188082195346396,15.20684007040522,0.1487337316414214,1126,0,2.2617700701456633,0.5536006528228902,24.476433751165384,0.25628730968793667,0.06272999356841188,0.099609375,,
4.664065000000409,1200,,,,-0.0625,0.1015625,-1.0078125,0.00469425226745287,0.14188082195346396,15.206963068330523,0.14922482228995387,1126,0,2.269256361441514,0.5534935612324932,24.390966601979425,0.2563368969234809,0.06252304691715664,0.099609375,,
4.671264999999665,1200,,,,-0.0625,0.017578125,-1.013671875,0.00469425226745287,0.14188082195346396,15.206800228468616,0.15093771721726076,1125,0,2.295279712663972,0.5532253833595258,24.102743570082595,0.2564611570999799,0.06181417505267483,0.099609375,,
4.679839999999851,1200,,,,-0.03125,0.091796875,-0.919921875,0.00469425226745287,0.14188082195346396,15.206859769658791,0.14960037778891322,1125,0,2.274951966523981,0.5531341719534156,24.314103334611435,0.25650344735058783,0.06236651324566256,0.09765625,,
4.690479999999516,1200,,,,-0.03125,-0.01171875,-0.923828125,0.00469425226745287,0.14188082195346396,15.207013449049764,0.14983242637329927,1125,0,2.2785037229625207,0.5530987308546171,24.27464679037152,0.2565198834107568,0.06226929564503405,0.09765625,,
4.698620000000112,1200,,,,-0.0625,0.068359375,-1.0078125,0.00469425226745287,0.14191670823520522,15.206721663319227,0.1492610613568,1125,0,2.269771415224471,0.5530824966293142,24.367321436842428,0.256592296990227,0.06252466978978596,0.09765625,,
4.718605000000447,1200,,,,-0.0625,0.05859375,-0.953125,0.00469425226745287,0.14191670823520522,15.206538859235442,0.14892039615165575,1125,0,2.2645637910128893,0.5530247933300356,24.42080878996479,0.25661907015172786,0.06266845244033907,0.09765625,,
4.727009999999776,1200,,,,0,0.09765625,-0.9375,0.00469425226745287,0.14191670823520522,15.206419711755961,0.14897137032425667,1125,0,2.2653211821860735,0.553020484453666,24.412453686589018,0.2566210696072244,0.06264749976789304,0.09765625,,
4.736224999999627,1200,,,,0,-0.052734375,-0.966796875,0.00469425226745287,0.14191670823520522,15.206433750730058,0.1495209228259483,1125,0,2.2736800073008046,0.5530185488509299,24.3226200289919,0.25662196779851565,0.06241718613855491,0.099609375,,
4.74506500000041,1200,,,,-0.0625,0.083984375,-1.02734375,0.00469425226745287,0.14191670823520522,15.20658793014341,0.15554498173971046,1124,0,2.3653084419174584,0.5523593161083177,23.352527996752197,0.25692824235334405,0.059999239727128,0.099609375,,
4.754125,1200,,,,-0.03125,-0.009765625,-0.99609375,0.00469425226745287,0.14191670823520522,15.206221567177348,0.16308229764389273,1123,0,2.4798655516573973,0.5521108761520171,22.263742313893527,0.25704385543770764,0.057227581608348226,0.09765625,,
4.7622000000001865,1200,,,,-0.03125,0.0078125,-0.984375,0.00469425226745287,0.14191670823520522,15.206110999973175,0.16815480311397582,1123,0,2.556980601329751,0.5520275558051301,21.589039647702045,0.25708265238357575,0.055501675750454185,0.09765625,,
4.770990000000223,1200,,,,-0.125,-0.03125,-0.87890625,0.004627868246691581,0.14191670823520522,15.205924063130459,0.16575734120232605,1123,0,2.5204935432289757,0.544187534515583,21.590514920281468,0.26078640033813816,0.05630512667507068,0.09765625,,
4.778375,1200,,,,-0.0625,0.052734375,-0.951171875,0.004627868246691581,0.14191670823520522,15.206023757082997,0.16333324165975752,1130,0,2.483649152999651,0.5476639568099688,22.050777830214965,0.2591309989831012,0.05714040087498024,0.09765625,,
4.78669000000041,1200,,,,-0.09375,0.138671875,-0.91796875,0.004627868246691581,0.14191670823520522,15.206022654827542,0.161615341337519,1140,0,2.457526541746,0.5526015790433567,22.48608792850512,0.25681560389473757,0.05774778250589211,0.09765625,,
4.7940300000002605,1200,,,,0,0.1328125,-0.9375,0.004627868246691581,0.14191670823520522,15.206285596148705,0.16091382615210126,1144,0,2.4469015968378742,0.5544350654239323,22.658658040863905,0.25596632876510583,0.05799853513463879,0.09765625,,
4.802194999999367,1200,,,,-0.03125,0.12109375,-0.8984375,0.004627868246691581,0.14191670823520522,15.206369936053957,0.1605911510713728,1146,0,2.4420084516480225,0.5552737955902725,22.738405971344548,0.2555796966509892,0.0581147490048328,0.099609375,,
4.811209999999963,1200,,,,0,0.001953125,-0.908203125,0.004627868246691581,0.14191670823520522,15.20638624300553,0.15882418072915644,1146,0,2.4151418368964688,0.555622498454548,23.005791625411945,0.25541929750854847,0.05876123135590766,0.099609375,,
4.819540000000037,1200,,,,0,-0.0078125,-0.9921875,0.004627868246691581,0.14191670823520522,15.206328515128705,0.15715029080289522,1147,0,2.389678948196834,0.5557480815862934,23.25618184006019,0.2553615800708242,0.05938735341092178,0.09765625,,
4.828089999999851,1200,,,,-0.03125,-0.03125,-1.017578125,0.004627868246691581,0.14191670823520522,15.20634530136871,0.15572356574132426,1147,0,2.3679863122229676,0.5557908783818801,23.471034250199132,0.2553419168165894,0.05993138875113669,0.099609375,,
4.835650000000372,1200,,,,-0.0625,0.109375,-1.048828125,0.004627868246691581,0.14191670823520522,15.206426903739032,0.154371499211246,1147,0,2.3474389187764197,0.5558076179968983,23.677191919720226,0.25533422652007837,0.06045597484989213,0.099609375,,
4.846129999999889,1200,,,,-0.0625,0.11328125,-1.015625,0.004627868246691581,0.1457266411776382,15.206503451109619,0.15373675191504824,1147,0,2.3377984485585643,0.5558141434343714,23.775109602672305,0.2621859175392594,0.062334989257730955,0.099609375,,
4.856075000000186,1200,,,,-0.0625,0.0078125,-1.021484375,0.004627868246691581,0.1457266411776382,15.20661506090342,0.1523263342879726,1143,0,2.3163679291556933,0.5536946186588216,23.90356953615055,0.26318955660183646,0.06291169867420629,0.099609375,,
4.86371999999974,1200,,,,-0.09375,0.048828125,-0.94140625,0.004627868246691581,0.1457266411776382,15.206743059657075,0.152217050585885,1140,0,2.314725577558377,0.5523653958077086,23.863105033399066,0.26382290107899714,0.06295633598664159,0.099609375,,
4.873025000000372,1200,,,,0,0.126953125,-0.916015625,0.004627868246691581,0.1457266411776382,15.207000916641919,0.1510443201994214,1139,0,2.296931115726157,0.5518112981307772,24.02385053486144,0.2640878171057337,0.06344406246225971,0.099609375,,
4.882240000000223,1200,,,,0,-0.033203125,-0.966796875,0.004627868246691581,0.1457266411776382,15.206877623663898,0.15004338940884604,1138,0,2.2816914609800696,0.5515670497911496,24.17360362799585,0.2642047621097335,0.06386781195869633,0.099609375,,
4.890620000000112,1200,,,,-0.0625,0.06640625,-1.001953125,0.004627868246691581,0.1457266411776382,15.206937525618278,0.14934696983683277,1137,0,2.271110039949113,0.550964974009389,24.259721647909853,0.26449347608647594,0.06416538107546008,0.099609375,,
4.902290000000037,1200,,,,-0.0625,0.0546875,-1.02734375,0.004627868246691581,0.1457266411776382,15.206874057785797,0.14902405758768855,1134,0,2.2661900753161976,0.5495434407472859,24.24966231795932,0.26517765543607374,0.06430468598592957,0.099609375,,
4.912754999999888,1200,,,,-0.0625,-0.005859375,-0.962890625,0.004627868246691581,0.1457266411776382,15.206935755110877,0.14931565256960933,1133,0,2.2706335358585052,0.5491591017362535,24.185281026804777,0.2653632448536323,0.06417884650969903,0.099609375,,
4.921394999999553,1200,,,,-0.03125,0.166015625,-0.935546875,0.004627868246691581,0.1457266411776382,15.207080083750798,0.14883487418144523,1133,0,2.2633438509322117,0.5490147653067434,24.256798854518667,0.2654330090671029,0.06438555110290345,0.099609375,,
