Time (s),ESC signal (µs),Servo 1 (µs),Servo 2 (µs),Servo 3 (µs),AccX (g),AccY (g),AccZ (g),Torque (N·m),Thrust (N),Voltage (V),Current (A),Motor Electrical Speed (RPM),Motor Optical Speed (RPM),Electrical Power (W),Mechanical Power (W),Motor Efficiency (%),Propeller Mech. Efficiency (N/W),Overall Efficiency (N/W),Vibration (g),App message,90% settling time (s),Max acceleration (RPM/s),
0,1000,,,,-0.0625,0.05078125,-0.95703125,0.0001403814537246958,0.0021130416516355046,22.966102915349282,0.06539123321794658,0,0,1.5017817918449679,0,0,0,0,0.078125,,
0,1200,,,,-0.0625,0.05078125,-0.95703125,0.0001403814537246958,0.0021130416516355046,22.966042417462855,0.06608011314825181,0,0,1.517598681513496,0,0,0,0,0.078125,,
0.0071749999999301504,1200,,,,-0.0625,0.046875,-0.953125,0.0001403814537246958,0.0021130416516355046,22.96586591046406,0.06638091757826685,0,0,1.524495252116043,0,0,0,0,0.076171875,,
0.016020000000018627,1200,,,,-0.0625,0.046875,-0.95703125,0.0001403814537246958,0.0021130416516355046,22.9658717786902,0.06624131958489957,0,0,1.5212896520380434,0,0,0,0,0.076171875,,
0.02392999999993481,1200,,,,-0.0625,0.046875,-0.955078125,0.0001403814537246958,0.0021130416516355046,22.965879436157223,0.06586415130986831,0,0,1.5126281581472525,0,0,0,0,0.076171875,,
0.031775000000023285,1200,,,,-0.0625,0.048828125,-0.95703125,0.00025067996693434527,0.0021130416516355046,22.96579606998629,0.0657460367080696,0,0,1.509910071447359,0,0,0,0,0.076171875,,
0.04267000000004191,1200,,,,0,0.0390625,-1.03515625,0.00025067996693434527,0.0021130416516355046,22.96445887447452,0.12616176573785823,0,0,2.897236680818134,0,0,0,0,0.076171875,,
0.050520000000018626,1200,,,,0.01953125,0.19140625,-0.84765625,0.00025067996693434527,-0.0007152956174140842,22.96302830129812,0.172820908380162,0,0,3.9684914101897095,0,0,0,0,0.08203125,,
0.05860499999998137,1200,,,,-0.4375,0.1875,-0.92578125,0.00025067996693434527,-0.0007152956174140842,22.961574684458864,0.21326676844391756,0,0,4.896940831338208,0,0,0,0,0.087890625,,
0.06676500000001397,1200,,,,-0.03125,-0.05078125,-0.984375,0.00025067996693434527,-0.0007152956174140842,22.960211737394143,0.2434830650552475,0,0,5.590422728138195,0,0,0,0,0.08984375,,
0.07513000000000465,1200,,,,0,0.1015625,-1.0234375,0.00025067996693434527,-0.0007152956174140842,22.959417647267884,0.26868369203488324,0,0,6.168821100438787,0,0,0,0,0.091796875,,
0.08354999999993015,1200,,,,-0.09375,0.029296875,-0.900390625,0.00025067996693434527,-0.0007152956174140842,22.95878791040589,0.28620221337860435,0,0,6.570855916448108,0,0,0,0,0.08984375,,
0.0922050000000745,1200,,,,-0.09375,0.111328125,-1.029296875,0.00025067996693434527,-0.0007152956174140842,22.958200422846424,0.2994743642943739,0,0,6.875392476974759,0,0,0,0,0.091796875,,
0.10088000000000466,1200,,,,0.03125,0.04296875,-0.884765625,0.00025067996693434527,-0.0007152956174140842,22.95726544480631,0.33004866992616266,0,0,7.577014925200178,0,0,0,0,0.091796875,,
0.11018000000005122,1200,,,,-0.25,0.2421875,-1.01953125,0.00025067996693434527,-0.0007152956174140842,22.956039236064896,0.35977330126290635,0,0,8.258970019879875,0,0,0,0,0.095703125,,
0.1280250000000233,1200,,,,0,0.13671875,-1.044921875,0.00025067996693434527,-0.0007152956174140842,22.95556304451132,0.3743565746730568,2,0,8.593565951034664,0.0000654131595642228,0.000761187613348648,10.935041544840914,0.00008323618175385769,0.099609375,,
0.1363499999999767,1200,,,,-0.03125,-0.0859375,-0.947265625,0.00025067996693434527,-0.0007152956174140842,22.95551931151081,0.3747403707913051,2,0,8.602359818502526,0.0000654131595642228,0.0007604094800071934,10.935041544840914,0.00008315109254969536,0.1015625,,
0.1456700000000419,1200,,,,0.0625,0.0078125,-1.09375,0.00025067996693434527,-0.0007152956174140842,22.955617037343345,0.37046919111744275,2,0,8.504348875426377,0.0000654131595642228,0.0007691730492529121,10.935041544840914,0.00008410939248752561,0.1015625,,
0.15355500000005123,1200,,,,-0.09375,0.087890625,-0.939453125,0.00025067996693434527,-0.0007152956174140842,22.955710878614124,0.36399630849468445,2,0,8.35579401868681,0.0000654131595642228,0.0007828479186769503,10.935041544840914,0.00008560474514024694,0.1015625,,
0.16160999999998604,1200,,,,-0.03125,0.1015625,-1.009765625,0.00025067996693434527,-0.0007152956174140842,22.95592102190475,0.3581916037840219,2,0,8.222618167175405,0.0000654131595642228,0.0007955271451780573,10.935041544840914,0.00008699122382570747,0.1015625,,
0.1697950000000419,1200,,,,-0.09375,0.03515625,-0.9609375,0.00025067996693434527,-0.0007152956174140842,22.95592497484944,0.35253406751325017,2,0,8.092745604912679,0.0000654131595642228,0.0008082937825762609,10.935041544840914,0.00008838726092908023,0.103515625,,
0.17789500000001862,1200,,,,0,0.05078125,-1.01171875,0.00029539054397084333,-0.0007152956174140842,22.956319343727284,0.34667094328583326,129,0,7.958288881260758,0.0040033539108599945,0.050304204466447816,0.17867409011071556,0.00008988057961785958,0.1015625,,
0.18579999999993016,1200,,,,-0.0625,-0.01953125,-0.947265625,0.00029539054397084333,-0.0007152956174140842,22.956303650107564,0.3391087793092645,435,0,7.784684108240788,0.013461891316572699,0.17292790727785698,0.053134853089587514,0.00009188498948298744,0.1015625,,
0.1938300000000745,1200,,,,-0.03125,0.0546875,-0.966796875,0.00029539054397084333,-0.001820510933292363,22.956584124425703,0.3300199207605728,555,0,7.576130073676394,0.017170006213187716,0.2266329385347498,0.10602855413611258,0.00024029562792457992,0.1015625,,
0.202,1200,,,,0,-0.015625,-0.9609375,0.00029539054397084333,-0.001820510933292363,22.956749146013028,0.32247884667284166,602,0,7.403065987964024,0.018613791391303362,0.25143354687862896,0.09780441260037612,0.0002459131036049344,0.1015625,,
0.20992500000004657,1200,,,,-0.03125,0.04296875,-0.986328125,0.00029539054397084333,-0.001820510933292363,22.957042753642156,0.3154254867030696,621,0,7.241236383830754,0.019198765491345113,0.2651310421824483,0.09482437472935733,0.00025140885296293526,0.1015625,,
0.21776500000001398,1200,,,,-0.0625,0.015625,-0.95703125,0.00029539054397084333,-0.001820510933292363,22.957382443930182,0.3081996514160247,628,0,7.075457266643647,0.01942547382423086,0.27454725669547625,0.09371771055702653,0.0002572994033721231,0.099609375,,
0.22558500000007917,1200,,,,-0.0625,0.048828125,-0.986328125,0.00029539054397084333,-0.001820510933292363,22.957702080401187,0.30265226714605986,631,0,6.948200583097234,0.0195147193109749,0.28086004538280046,0.09328911701376738,0.00026201185638208085,0.099609375,,
0.23378000000002794,1200,,,,-0.0625,0.02734375,-0.97265625,0.00029539054397084333,-0.001820510933292363,22.9580170899438,0.295454305432854,658,0,6.783044993424938,0.020362490211855704,0.30019689139013284,0.08940512257348576,0.00026839139870914213,0.099609375,,
0.24231499999994413,1200,,,,-0.03125,0.048828125,-0.9921875,0.00029539054397084333,-0.001820510933292363,22.958505806489956,0.28950272567627716,721,0,6.646550008433478,0.022293065572962168,0.33540807704261005,0.08166265547167924,0.00027390314237949116,0.099609375,,
0.25109999999997673,1200,,,,-0.0625,0.0546875,-1.00390625,0.00029539054397084333,-0.001820510933292363,22.95866185875867,0.2815668243882395,747,0,6.464397511774075,0.02310348712854062,0.35739582979636647,0.07879810191265094,0.0002816211301945053,0.099609375,,
0.26256000000005586,1200,,,,-0.03125,0.04296875,-0.958984375,0.00029539054397084333,-0.001820510933292363,22.958810648204345,0.27375861418223546,756,0,6.285172186324773,0.023394279743984628,0.3722138240681093,0.07781863571843758,0.0002896517198452281,0.09765625,,
0.2706950000000652,1200,,,,-0.0625,0.064453125,-1.01171875,0.00029539054397084333,-0.001820510933292363,22.95897837074275,0.26409143627316356,760,0,6.063269573293949,0.023505712607208663,0.38767388325831736,0.07744972312535015,0.00030025234921285995,0.099609375,,
0.28190499999991153,1200,,,,-0.0625,0.064453125,-0.982421875,0.00029539054397084333,-0.001820510933292363,22.959177967626225,0.25650576320999363,761,0,5.889161467260036,0.023536413364025812,0.3996564450622247,0.07734869816974407,0.00030912905740710923,0.09765625,,
0.2891150000001071,1200,,,,-0.0625,0.048828125,-0.9609375,0.00029539054397084333,-0.001820510933292363,22.95928779007207,0.24956499528129875,767,0,5.729834548991317,0.023723494213852784,0.4140345416785042,0.07673873489636776,0.0003177248693180586,0.09765625,,
0.2971550000000279,1200,,,,-0.03125,-0.001953125,-0.90625,0.00029539054397084333,-0.001820510933292363,22.95695881159194,0.28653738287610236,784,0,6.578026896668031,0.024256154337374235,0.3687451376895511,0.0750535681778415,0.0002767563833183028,0.09765625,,
0.30542000000004194,1200,,,,0.1875,0.1484375,-0.9765625,0.00029539054397084333,-0.001820510933292363,22.954271831852274,0.3685434300740548,791,0,8.459646075763095,0.0244660247439383,0.28920860902246864,0.07440975607381467,0.00021519942051809128,0.099609375,,
0.3130549999999348,1200,,,,0.0625,0.08203125,-0.923828125,0.00029539054397084333,-0.001820510933292363,22.95190439170353,0.4154001429486254,793,0,9.53422436525683,0.024542737876897532,0.2574172469271066,0.07417717381099681,0.00019094483867260269,0.1015625,,
0.32089500000001864,1200,,,,-0.25,0.15234375,-1.21484375,0.00029539054397084333,-0.001820510933292363,22.950209973107057,0.46028229947484856,795,0,10.563575419852318,0.024578139233479474,0.23266875330192968,0.07407033201327655,0.00017233851806189068,0.103515625,,
0.3292350000001024,1200,,,,0.0625,0.27734375,-0.798828125,0.00029539054397084333,-0.001820510933292363,22.948931687180245,0.49315029785444153,795,0,11.31727249697417,0.024592063970510673,0.2172967380354737,0.07402839125156029,0.00016086127940977848,0.10546875,,
0.3373050000000512,1200,,,,-0.21875,0.03125,-1.046875,0.019129597035523246,-0.001820510933292363,22.947793670549487,0.5210854313831103,942,0,11.957760964108887,1.887303085594076,15.783080889965934,0.0009646097371367947,0.00015224513508478807,0.109375,,
0.34455500000005124,1200,,,,0.0625,0.0234375,-0.921875,0.019129597035523246,0.10674029967728423,22.947285524056163,0.5373541561445966,989,0,12.330819248588316,1.9815041085195226,16.06952521622903,0.053868321149752776,0.00865638345071876,0.109375,,
0.35307000000006517,1200,,,,-0.0625,0.181640625,-0.984375,0.019129597035523246,0.10674029967728423,22.946925637692807,0.5530169400016556,1011,0,12.690038598602415,2.0258883082242884,15.964398315127305,0.05268814635237378,0.008411345548550168,0.111328125,,
0.36134500000008846,1200,,,,-0.0625,0.01171875,-0.923828125,0.019129597035523246,0.10674029967728423,22.94648229081528,0.563605539890689,1020,0,12.932764540107078,2.0433238114133014,15.799590297005311,0.05223856301241622,0.008253478933004718,0.111328125,,
0.37001500000001397,1200,,,,-0.0625,-0.0234375,-0.91796875,0.019129597035523246,0.10674029967728423,22.946126019281174,0.5713527378752559,1200,0,13.110331924746944,2.4041490344738277,18.33781973083212,0.04439837054471351,0.008141693153916432,0.111328125,,
0.3780749999999534,1200,,,,0,0.025390625,-0.94140625,0.019129597035523246,0.10674029967728423,22.946021828631924,0.5754843285078546,1261,0,13.205075963976816,2.5261658062597916,19.130263340787447,0.042253877165459114,0.008083277973445184,0.111328125,,
0.3859649999999674,1200,,,,-0.125,0.05859375,-1.046875,0.019129597035523246,0.10674029967728423,22.946053240322616,0.5780058426930401,1285,0,13.262952839652037,2.5740890947710624,19.408114662636436,0.04146721257399898,0.008048004163760914,0.111328125,,
0.3938649999999907,1200,,,,-0.03125,0.068359375,-0.978515625,0.019129597035523246,0.10674029967728423,22.946149562469337,0.5789474459879833,1381,0,13.284614684449904,2.7673043161090622,20.830896355227274,0.03857194131340252,0.008034881117193967,0.111328125,,
0.40194999999995346,1200,,,,-0.0625,0.087890625,-1.00390625,0.019129597035523246,0.10674029967728423,22.9464369112343,0.5785578455526916,1419,0,13.275841102474477,2.842770446526864,21.413109908320624,0.03754798415316772,0.008040191115076615,0.111328125,,
0.40994000000006053,1200,,,,-0.0625,-0.0546875,-0.953125,0.019129597035523246,0.10674029967728423,22.946708987394846,0.5746874601311743,1434,0,13.187185906335134,2.872444292646196,21.782086891383486,0.03716009391393674,0.008094243945253408,0.111328125,,
0.4200799999999581,1200,,,,-0.0625,0.046875,-1.005859375,0.019129597035523246,0.10674029967728423,22.946871211662554,0.5716169201634403,1440,0,13.116819849397661,2.884228724902729,21.988780497242068,0.0370082645511701,0.008137666057995442,0.111328125,,
0.429484999999986,1200,,,,-0.03125,0.138671875,-1.01171875,0.019129597035523246,0.10674029967728423,22.94736172307975,0.5632886057683651,1486,0,12.925987391055942,2.975831647013748,23.02208378350157,0.03586906530293752,0.008257806266401166,0.111328125,,
0.43765499999991153,1200,,,,0.03125,-0.072265625,-0.9453125,0.019129597035523246,0.10674029967728423,22.947677516867845,0.5564704039157362,1497,0,12.769703376739509,2.9996450491374174,23.490326757326116,0.03558431011961853,0.008358870721438656,0.111328125,,
0.44535499999998135,1200,,,,-0.0625,0.01171875,-0.984375,0.019129597035523246,0.10674029967728423,22.947862638067402,0.5515185306639423,1501,0,12.656171484024913,3.007518004406836,23.763252640840367,0.035491158995849904,0.008433853777346158,0.111328125,,
0.4529199999999255,1200,,,,0,0,-0.96484375,0.019129597035523246,0.10674029967728423,22.948196801126215,0.5446927765066937,1523,0,12.499717031427464,3.051348027876686,24.411336834304503,0.03498135863301068,0.008539417285120296,0.111328125,,
0.46272499999997674,1200,,,,0,0.0546875,-1.0234375,0.019129597035523246,0.10674029967728423,22.94830986512731,0.5361453508281112,1533,0,12.303629643550888,3.070747476202283,24.958061687201845,0.03476036388680656,0.008675513061565015,0.111328125,,
0.46985499999998137,1200,,,,-0.03125,-0.01953125,-1.01171875,0.019129597035523246,0.10674029967728423,22.948569253377634,0.5303923987668121,1535,0,12.171746694565273,3.0757064365812146,25.269228104742997,0.0347043197646427,0.008769513723526972,0.111328125,,
0.4777700000000186,1200,,,,0,0.12109375,-1.03515625,0.019129597035523246,0.10674029967728423,22.948836033945106,0.5250376349875313,1542,0,12.049002596979177,3.0889007109281974,25.63615275261556,0.0345560798699837,0.008858849420784857,0.109375,,
0.48596999999997204,1200,,,,-0.0625,0.146484375,-0.9765625,0.03764145662769718,0.10674029967728423,22.94905917833148,0.5185979719653193,1550,0,11.901335548394803,6.109505117219688,51.33461780298858,0.017471185902837836,0.008968766508871424,0.109375,,
0.4940400000000372,1200,,,,-0.0625,0.02734375,-0.994140625,0.03764145662769718,0.10674029967728423,22.949400260787016,0.51286005245318,1553,0,11.769830621516252,6.121743557173183,52.012163590375835,0.01743625793540645,0.009068975001403494,0.111328125,,
0.5021900000000605,1200,,,,-0.0625,0.109375,-0.953125,0.03764145662769718,0.27489726031800515,22.949660495011024,0.5066202601603943,1554,0,11.626762970575209,6.126578249700473,52.693757197987956,0.04486962364864022,0.023643490541065463,0.109375,,
0.5098450000000885,1200,,,,-0.0625,-0.015625,-0.9609375,0.03764145662769718,0.27489726031800515,22.949774678978784,0.5015049251044739,1560,0,11.509425031545806,6.151158944308942,53.444537215798626,0.04469031979288072,0.023884534593565557,0.109375,,
0.5181500000000233,1200,,,,0,0.03515625,-1.046875,0.03764145662769718,0.27489726031800515,22.949818559795546,0.496073521055454,1563,0,11.384797300541585,6.160934027435658,54.115447686912944,0.04461941307825115,0.024145995142568592,0.109375,,
0.5271450000000186,1200,,,,-0.03125,0.0859375,-0.978515625,0.03764145662769718,0.27489726031800515,22.950084825346075,0.4898184106504758,1564,0,11.241374073444618,6.165011096189441,54.8421487970317,0.04458990519707541,0.02445406215663547,0.109375,,
0.5363599999999861,1200,,,,-0.03125,0.072265625,-1.025390625,0.03764145662769718,0.27489726031800515,22.950190122969527,0.4853399642153683,1567,0,11.138644453017928,6.175749010834873,55.444349955542414,0.04451237571923976,0.02467959736730118,0.109375,,
0.5449799999999814,1200,,,,-0.0625,0.052734375,-0.970703125,0.03764145662769718,0.27489726031800515,22.95050850045859,0.4808787685542538,1569,0,11.03641226539446,6.184225807406782,56.034748056647985,0.04445136204256378,0.024908208728299068,0.109375,,
0.5606000000000931,1200,,,,-0.0625,-0.02734375,-0.89453125,0.03764145662769718,0.27489726031800515,22.950996386470113,0.47211196733081,1570,0,10.835440056218717,6.187887105341605,57.107852318284294,0.04442506070944702,0.025370198062259142,0.109375,,
0.5828350000000792,1200,,,,-0.0625,0.005859375,-0.96484375,0.03764145662769718,0.27489726031800515,22.951046203448925,0.4574188678458314,1573,0,10.498241570258974,6.198579671524475,59.04398017554444,0.04434842736326355,0.026185076660531055,0.107421875,,
0.5914500000000699,1200,,,,-0.03125,0.02734375,-0.98046875,0.03764145662769718,0.27489726031800515,22.951231066188395,0.45313710969265986,1573,0,10.400054509220993,6.202015473139,59.63445160446141,0.04432385915652554,0.026432290337927863,0.107421875,,
0.5993250000000698,1200,,,,-0.03125,0.095703125,-0.974609375,0.03764145662769718,0.27489726031800515,22.95140751711107,0.4499414856183883,1574,0,10.326790395282,6.204649057488488,60.08303470866616,0.0443050457440824,0.026619816012107445,0.10546875,,
0.6077600000000093,1200,,,,-0.0625,0.08984375,-0.9921875,0.03764145662769718,0.27489726031800515,22.95143771440162,0.44650059072315207,1574,0,10.247830497425955,6.205644385803361,60.555689200383355,0.04429793962201363,0.02682492263968005,0.10546875,,
0.6156049999999814,1200,,,,0,-0.05859375,-0.88671875,0.03764145662769718,0.27489726031800515,22.951530960269817,0.44377004155148475,1575,0,10.185201847909125,6.207123774944415,60.94257008974886,0.04428738177054749,0.02698986867643056,0.10546875,,
0.6227900000000373,1200,,,,-0.0625,0.046875,-0.998046875,0.03764145662769718,0.27489726031800515,22.951551744122668,0.44047409309881375,1575,0,10.109563939702928,6.207674675632269,61.40398055402856,0.044283451482580484,0.027191801937016393,0.10546875,,
0.6310050000000047,1200,,,,0,0.109375,-1,0.036965819165196805,0.27489726031800515,22.95157404663021,0.43694195156702664,1575,0,10.028505555469723,6.096497724775382,60.79168716669101,0.045091013353594486,0.02741158777820803,0.10546875,,
0.6499149999999209,1200,,,,-0.03125,0.029296875,-1.017578125,0.036965819165196805,0.497382786407171,22.951904852939787,0.4266264947709379,1575,0,9.79189071572578,6.0972314672558285,62.26817316765671,0.08157518524239778,0.05079537760857298,0.10546875,,
0.657045000000042,1200,,,,-0.0625,0.119140625,-1.01171875,0.036965819165196805,0.497382786407171,22.951989538930373,0.4248345917556442,1575,0,9.750799105751302,6.097405619377167,62.53236840640827,0.08157285531841939,0.05100943840734041,0.10546875,,
0.6720900000000838,1200,,,,-0.0625,0.068359375,-0.970703125,0.036965819165196805,0.497382786407171,22.95240931521144,0.4212099799568478,1576,0,9.667783867621576,6.100097567522219,63.097165297127574,0.08153685755049347,0.05144744578671832,0.10546875,,
0.6795400000000372,1200,,,,-0.0625,0.05859375,-1,0.036965819165196805,0.497382786407171,22.952453994245918,0.419332302655268,1576,0,9.624705384996243,6.1012613554874155,63.391668746542074,0.08152130476427301,0.05167771547402696,0.10546875,,
0.6872449999999953,1200,,,,-0.03125,0.083984375,-1.056640625,0.036965819165196805,0.497382786407171,22.952782311218403,0.417149463071734,1576,0,9.57474081712715,6.101701544284292,63.727067508393134,0.081515423656388,0.051947389063259054,0.10546875,,
0.6944099999999161,1200,,,,0,0.06640625,-0.99609375,0.036965819165196805,0.497382786407171,22.952940178777524,0.41607455682869326,1577,0,9.550134412800366,6.103537396875499,63.91048683770065,0.0814909050384109,0.05208123413849674,0.10546875,,
0.7020350000000326,1200,,,,-0.09375,-0.00390625,-0.947265625,0.036965819165196805,0.497382786407171,22.953072794230962,0.4134810951970566,1577,0,9.490661677096384,6.105736450116723,64.33414927066224,0.08146155512455218,0.0524075984720322,0.103515625,,
0.7106149999999907,1200,,,,0,-0.0078125,-0.98828125,0.036965819165196805,0.497382786407171,22.95315250565354,0.4112679672253808,1578,0,9.439896372414287,6.106771410596286,64.69108525853932,0.08144774922213845,0.05268943289045487,0.103515625,,
0.7195600000000559,1200,,,,-0.03125,0.037109375,-0.978515625,0.036965819165196805,0.497382786407171,22.95330976540458,0.40930455327673365,1578,0,9.394894199751409,6.107194596396631,65.00546431441695,0.081442105463716,0.05294181880412573,0.103515625,,
0.7306750000000466,1200,,,,-0.0625,0.080078125,-1.0078125,0.036965819165196805,0.497382786407171,22.95331106619508,0.4075778684460951,1577,0,9.355261598139958,6.10463762003931,65.25352130455714,0.0814762181418343,0.05316610136332929,0.103515625,,
0.7464199999999255,1200,,,,0.03125,0.005859375,-0.962890625,0.036965819165196805,0.497382786407171,22.953354430243582,0.4041195958404321,1577,0,9.275900315532228,6.1031390457025525,65.79565150654996,0.08149622394026836,0.053620971494736505,0.103515625,,
0.7549649999999674,1200,,,,-0.03125,0.091796875,-0.98046875,0.036965819165196805,0.497382786407171,22.953279989737375,0.4033917260244738,1577,0,9.259163232983177,6.105892413033326,65.9443219586279,0.08145947435062614,0.05371789803158281,0.1015625,,
0.7632999999999301,1200,,,,-0.0625,0.0703125,-1,0.036965819165196805,0.497382786407171,22.95328283436835,0.4016766231132324,1578,0,9.219797138272002,6.10683408247652,66.23610032726901,0.081446913358004,0.05394725924527139,0.1015625,,
0.7715899999999674,1200,,,,-0.03125,0.005859375,-0.94140625,0.036965819165196805,0.497382786407171,22.9533178866161,0.4007283653246119,1578,0,9.198045555479846,6.107193425299515,66.39664250913697,0.08144212108081018,0.05407483398588401,0.1015625,,
0.778859999999986,1200,,,,-0.0625,0.09765625,-1.02734375,0.03499081294430817,0.497382786407171,22.953446201083846,0.3996353586471304,1578,0,9.173008704757756,5.782049405886786,63.03329247783027,0.08602188454162611,0.05422242607806465,0.1015625,,
0.786030000000028,1200,,,,-0.03125,0.037109375,-0.974609375,0.03499081294430817,0.497382786407171,22.953557047755456,0.3977509819938938,1578,0,9.129799855997595,5.782970208704009,63.341697517115136,0.08600818756744671,0.05447904600892513,0.1015625,,
0.7946600000000326,1200,,,,-0.0625,0.04296875,-1.01953125,0.03499081294430817,0.5883692563645384,22.953750871188465,0.3976410877344674,1578,0,9.127354464005359,5.783371400792244,63.36306345501921,0.10173464845849946,0.06446218985849972,0.1015625,,
0.8034249999999301,1200,,,,-0.03125,0.02734375,-0.99609375,0.03499081294430817,0.5883692563645384,22.953726024106732,0.3959333447574431,1578,0,9.088145519370544,5.782152853100519,63.6230223292133,0.10175608831389535,0.06474029878928364,0.099609375,,
0.811234999999986,1200,,,,-0.0625,0.076171875,-0.99609375,0.03499081294430817,0.5883692563645384,22.95373979184735,0.3942776804204033,1578,0,9.050147282103085,5.7804843498689,63.8717157819074,0.10178545961773644,0.06501211947434875,0.099609375,,
0.8195700000000652,1200,,,,-0.0625,0.0546875,-0.970703125,0.03499081294430817,0.5883692563645384,22.953852119242278,0.39216927044274397,1577,0,9.001795439453877,5.779835770333739,64.20758846620038,0.10179688138968779,0.06536132267411686,0.099609375,,
0.8274750000000931,1200,,,,-0.0625,-0.0078125,-0.98828125,0.03499081294430817,0.5883692563645384,22.95376141832529,0.391255723785152,1577,0,8.980790537318558,5.779584206851945,64.35496054423719,0.10180131222363738,0.06551419431503754,0.099609375,,
0.8429700000000885,1200,,,,0,0.08203125,-0.9609375,0.03499081294430817,0.5883692563645384,22.95387066242296,0.38916442328663725,1577,0,8.932829838537893,5.778732399492075,64.6909490491081,0.10181631812822022,0.06586594248400476,0.099609375,,
0.8522449999999954,1200,,,,-0.03125,0.05859375,-0.94140625,0.03499081294430817,0.5883692563645384,22.953765323287342,0.38950619050051877,1577,0,8.940633688716561,5.778626890892002,64.63330332149567,0.10181817713337715,0.0658084512630334,0.09765625,,
0.860234999999986,1200,,,,-0.03125,-0.029296875,-0.982421875,0.03499081294430817,0.5883692563645384,22.953875782046474,0.3893601238460435,1577,0,8.937323917244314,5.7780749845379775,64.65106376405744,0.1018279025348414,0.06583282219740258,0.09765625,,
0.8682099999999627,1200,,,,-0.03125,0.087890625,-1.001953125,0.03499081294430817,0.5883692563645384,22.953784984886745,0.3890137788466723,1577,0,8.9293386358048,5.77734923577469,64.7007518855732,0.10184069412339126,0.0658916948233209,0.09765625,,
0.876765000000014,1200,,,,0,0.0078125,-0.9765625,0.03499081294430817,0.5883692563645384,22.953828503585214,0.3891063169286493,1577,0,8.931479668441892,5.777057428028406,64.68197479574201,0.10184583824802605,0.06587589942610038,0.09765625,,
0.8877950000000419,1200,,,,-0.0625,0.029296875,-0.958984375,0.03499081294430817,0.5883692563645384,22.95393512773613,0.3890874265750768,1577,0,8.931087548622108,5.777458143645326,64.68930141141294,0.10183877437722169,0.0658787917105697,0.09765625,,
0.8979299999999348,1200,,,,0,-0.01953125,-0.966796875,0.03499081294430817,0.5883692563645384,22.954016835874963,0.388062006871718,1577,0,8.90758183909684,5.778901679538158,64.876212017201,0.10181333564608425,0.0660526354955381,0.09765625,,
0.9058850000000093,1200,,,,-0.0625,0.076171875,-0.994140625,0.03499081294430817,0.5883692563645384,22.954016019900102,0.3869967389504877,1577,0,8.883129345518592,5.779238512396083,65.05858788729249,0.10180740163302231,0.06623445786718866,0.09765625,,
0.9134800000000978,1200,,,,-0.0625,0.056640625,-0.994140625,0.03499081294430817,0.5883692563645384,22.953930988787075,0.38651991884499054,1577,0,8.872151542959493,5.779655471634131,65.14378664125258,0.1018000569847434,0.06631641192281477,0.095703125,,
0.9207900000000373,1200,,,,0,-0.01953125,-0.94140625,0.03499081294430817,0.5883692563645384,22.954164660083745,0.38523730842190584,1577,0,8.842800610723893,5.7800293694166385,65.36423949678394,0.10179347175599573,0.06653652867068018,0.095703125,,
0.9282249999999768,1200,,,,-0.0625,0.064453125,-1.00390625,0.03499081294430817,0.5883692563645384,22.954419784870947,0.38510501720227636,1577,0,8.839862226121,5.780166758872218,65.38752088004657,0.10179105221513307,0.06655864552118924,0.095703125,,
0.9365649999999441,1200,,,,0,-0.04296875,-0.94140625,0.03348407761138809,0.5883692563645384,22.95436625383761,0.3841074133693094,1577,0,8.81694224729333,5.5313282917061635,62.735221991549274,0.10637033734677376,0.06673166726765836,0.095703125,,
0.9457099999999627,1200,,,,-0.0625,0.08203125,-0.98828125,0.03348407761138809,0.6153556431865002,22.95467647019937,0.38292772712330486,1577,0,8.789982087584251,5.530307917805756,62.91603171316188,0.1112696891985452,0.07000647294329336,0.095703125,,
0.9543950000000186,1200,,,,0,-0.01171875,-0.94140625,0.03348407761138809,0.6153556431865002,22.954676008858144,0.38122575938004,1577,0,8.750913792799732,5.529944023078199,63.192760824912334,0.11127701123527238,0.0703190155630165,0.095703125,,
0.9621650000000372,1200,,,,-0.03125,0.052734375,-0.955078125,0.03348407761138809,0.6153556431865002,22.9546756161502,0.3819164191756483,1577,0,8.766767514658653,5.529819848291814,63.077067334631224,0.11127951001452356,0.07019185146150872,0.095703125,,
0.9704100000000326,1200,,,,-0.0625,0.01953125,-0.89453125,0.03348407761138809,0.6153556431865002,22.954740393098064,0.3819308131930876,1577,0,8.767122664972158,5.5282960398804954,63.05713118362137,0.11131018287504772,0.0701890080362477,0.095703125,,
0.9789150000000373,1200,,,,-0.0625,-0.001953125,-0.94921875,0.03348407761138809,0.6153556431865002,22.954804073872985,0.38260297211031236,1576,0,8.782576262873711,5.527682374460386,62.93919015343336,0.11132254017156175,0.07006550524221149,0.095703125,,
0.9877850000000326,1200,,,,-0.03125,0.076171875,-1.0078125,0.03348407761138809,0.6153556431865002,22.954725744115734,0.3832749946985664,1576,0,8.797972387883004,5.527439895793779,62.82629283318095,0.11132742368754979,0.0699428932095761,0.09375,,
0.9961899999999442,1200,,,,-0.0625,0.083984375,-0.978515625,0.03348407761138809,0.6153556431865002,22.954796686560684,0.38297442052022695,1577,0,8.791099959195204,5.528923708736237,62.892285770828515,0.11129754643099495,0.0699975709573019,0.09375,,
1.0042299999999813,1200,,,,-0.125,0.12109375,-0.984375,0.03348407761138809,0.6153556431865002,22.95466871831391,0.38293946733255035,1577,0,8.790248611786286,5.529399282369672,62.90378721434172,0.11128797393028635,0.07000435031625941,0.09375,,
1.0124000000000233,1200,,,,-0.03125,-0.041015625,-0.97265625,0.03348407761138809,0.6153556431865002,22.954808196326066,0.382219676761175,1577,0,8.77377936891452,5.529612104032044,63.02428943704063,0.1112836907199692,0.07013575533557452,0.095703125,,
1.0206300000000046,1200,,,,-0.0625,0.109375,-1.017578125,0.03348407761138809,0.6153556431865002,22.954866601792645,0.3825379575935527,1577,0,8.781107786682213,5.529852793879508,62.97443247725884,0.11127884703686532,0.0700772223887029,0.095703125,,
1.0301199999999953,1200,,,,-0.0625,0.01171875,-0.94921875,0.03348407761138809,0.6153556431865002,22.95485564683938,0.38251992446812816,1577,0,8.780689648205785,5.5303029211622485,62.98255766609735,0.11126978973100753,0.07008055948227708,0.095703125,,
1.0422750000000234,1200,,,,-0.0625,0.0390625,-0.9296875,0.03348407761138809,0.6153556431865002,22.954845285175047,0.3817836897733953,1577,0,8.763785531151555,5.530463770910727,63.105877605656424,0.11126655352543185,0.07021573508379121,0.09375,,
1.0513499999999767,1200,,,,-0.01953125,0.06640625,-1.021484375,0.03348407761138809,0.6153556431865002,22.95462737791694,0.38056877675906176,1577,0,8.735814462173918,5.531009070097656,63.314177447871955,0.1112555838162159,0.07044055775806485,0.09375,,
1.0594599999999628,1200,,,,-0.0625,0.12109375,-0.984375,0.03348407761138809,0.6153556431865002,22.95456250126604,0.37999715604777423,1578,0,8.722668468801977,5.531728598852918,63.41784763043594,0.11124111246421288,0.0705467192049564,0.09375,,
1.0670599999999395,1200,,,,-0.03125,0,-0.951171875,0.03348407761138809,0.6153556431865002,22.954698862726868,0.3798925512639364,1578,0,8.72031911445669,5.532003628381401,63.43808702149849,0.11123558199229633,0.07056572530314324,0.09375,,
1.0756199999999954,1200,,,,-0.03125,0.02734375,-0.966796875,0.03348407761138809,0.6153556431865002,22.954763475693042,0.38194669175532797,1578,0,8.76749596956699,5.531616034019764,63.09231339507488,0.11124337614939768,0.07018601951143998,0.09375,,
1.084469999999972,1200,,,,-0.0625,0.12109375,-1.03125,0.03262297349332169,0.6153556431865002,22.954542274660643,0.38172652522137346,1577,0,8.762357660553329,5.388197439325012,61.49255312393578,0.11420436057064508,0.07022717709375507,0.09375,,
1.0924250000000466,1200,,,,-0.0625,0.03125,-0.9296875,0.03262297349332169,0.6162566759076163,22.954614525347726,0.3833615218300985,1577,0,8.799915957460588,5.387792563685088,61.22550021761634,0.11438017863963851,0.07002983652192185,0.09375,,
1.1,1200,,,,-0.0625,0.025390625,-0.978515625,0.03262297349332169,0.6162566759076163,22.954487549074308,0.3839387119658323,1577,0,8.813116383427325,5.387635361198175,61.132011955831935,0.11438351606827468,0.06992494471835863,0.09375,,
1.1069949999999953,1200,,,,-0.0625,0.0703125,-1.02734375,0.03262297349332169,0.6162566759076163,22.95426804680546,0.38349530249568786,1577,0,8.802853968176763,5.388909647412441,61.21775581980472,0.1143564684190837,0.07000646360094677,0.09375,,
1.11479999999993,1200,,,,0,0.015625,-1.00390625,0.03262297349332169,0.6162566759076163,22.954254954314134,0.3847153850280423,1578,0,8.83085503278081,5.389518102166369,61.03053534635169,0.11434355803720299,0.06978448560417132,0.09375,,
1.1226300000000047,1200,,,,-0.125,0.08203125,-0.9453125,0.03262297349332169,0.6162566759076163,22.954388184528863,0.3870480737239722,1578,0,8.884451730334204,5.389740438375904,60.664862638329176,0.11433884116566355,0.06936350093540716,0.09375,,
1.1307100000000792,1200,,,,0,-0.017578125,-0.9921875,0.03262297349332169,0.6162566759076163,22.954269998385314,0.39067732303867925,1579,0,8.967712755276242,5.39468587477126,60.156764851742636,0.11423402404013862,0.06871949322250934,0.095703125,,
1.1387700000000187,1200,,,,-0.0625,0.17578125,-0.9453125,0.03262297349332169,0.6162566759076163,22.95442038274349,0.3885592330942585,1580,0,8.919151980042026,5.3990210847229285,60.53289703779091,0.11414229843468779,0.06909363998803758,0.095703125,,
1.1476999999999535,1200,,,,-0.0625,0.044921875,-0.958984375,0.03262297349332169,0.6162566759076163,22.954434046992855,0.3843775284940313,1581,0,8.823168626962358,5.400834976974857,61.211965965046474,0.11410396328250658,0.06984527916925705,0.09375,,
1.1549750000000931,1200,,,,-0.09375,0.013671875,-0.970703125,0.03262297349332169,0.6162566759076163,22.95450969158852,0.38301517962817433,1582,0,8.791925652800446,5.403839720216385,61.46366488546372,0.11404051707938882,0.07009348125132557,0.095703125,,
1.1629850000001025,1200,,,,-0.03125,0.037109375,-0.96875,0.03262297349332169,0.6162566759076163,22.954387360230296,0.3826586337745645,1584,0,8.783694506397858,5.409870087346792,61.58991621812845,0.1139133964323813,0.07015916542392817,0.09375,,
1.171219999999972,1200,,,,-0.0625,0.09375,-0.828125,0.03262297349332169,0.6162566759076163,22.954469207547124,0.381975602289525,1584,0,8.768047200789168,5.4123083441041775,61.72763695452099,0.11386207819791475,0.07028437025888161,0.09375,,
1.179859999999986,1200,,,,-0.03125,0.048828125,-1.021484375,0.03262297349332169,0.6162566759076163,22.954478893795365,0.38135238344854117,1585,0,8.753745236968095,5.413225239392189,61.83896255663808,0.11384279217186448,0.07039920162459057,0.09375,,
1.1911949999999487,1200,,,,-0.03125,0.060546875,-1.03125,0.03262297349332169,0.6162566759076163,22.954562256093602,0.37997416608571294,1583,0,8.722140651121748,5.406957928244128,61.99118019896576,0.11397474958858084,0.07065429239877713,0.09375,,
1.2003399999999673,1200,,,,-0.0625,0.029296875,-0.943359375,0.03262297349332169,0.6162566759076163,22.954456573658156,0.37968487659101424,1582,0,8.715460011383193,5.404484081657536,62.01031356461715,0.11402692034918764,0.0707084508566075,0.09375,,
1.207469999999972,1200,,,,-0.0625,-0.0234375,-1.015625,0.03262297349332169,0.6162566759076163,22.954530900167388,0.3793885591172087,1581,0,8.708686403425949,5.401947711981902,62.029420531858925,0.11408045926485284,0.07076344782207157,0.09375,,
1.2157850000000325,1200,,,,-0.03125,0.068359375,-0.970703125,0.03262297349332169,0.6162566759076163,22.954505264154722,0.37952546072644383,1579,0,8.7118191861259,5.39518251867128,61.92945931733105,0.11422350843088573,0.07073800118453358,0.09375,,
1.2233300000000744,1200,,,,-0.0625,0.103515625,-0.986328125,0.03262297349332169,0.6162566759076163,22.954447033295725,0.37793420752600604,1578,0,8.6752707487263,5.392452515529563,62.158895920583,0.11428133565068531,0.07103601648376161,0.09375,,
1.2302999999999302,1200,,,,-0.125,0.05078125,-0.98828125,0.031815118973546865,0.6162566759076163,22.954513246651704,0.37756195896797146,1578,0,8.666750988562068,5.2579643699802,60.66822938514549,0.11720442219541648,0.07110584770704964,0.09375,,
1.2387650000000139,1200,,,,0,0.0078125,-0.93359375,0.031815118973546865,0.6162566759076163,22.954782872943348,0.37747066902740084,1579,0,8.664757248428648,5.260562964049649,60.71217938625634,0.11714652597432537,0.07112220899429979,0.09375,,
1.247969999999972,1200,,,,-0.01953125,0.05078125,-0.994140625,0.031815118973546865,0.6156124180225898,22.955069997860974,0.377014054341601,1580,0,8.654384007588812,5.264891058113727,60.83496010226812,0.11692785495986079,0.07113301391326925,0.09375,,
1.2564149999999208,1200,,,,-0.0625,0.08984375,-0.95703125,0.031815118973546865,0.6156124180225898,22.954975293236984,0.3777723035475887,1581,0,8.67175389440412,5.26643152659781,60.73086933424433,0.11689365273496383,0.0709905315024962,0.09375,,
1.2649599999999628,1200,,,,-0.0625,0.044921875,-0.990234375,0.031815118973546865,0.6156124180225898,22.954828299434805,0.3764899029199668,1581,0,8.642261077998716,5.266958636669546,60.944220373972,0.11688195417685295,0.07123279573094624,0.09375,,
1.275189999999944,1200,,,,-0.0625,0.060546875,-1.013671875,0.031815118973546865,0.6156124180225898,22.954672256806802,0.3777634131285791,1579,0,8.67143533897924,5.26019927258917,60.6612292770481,0.1170321476660662,0.07099313942356593,0.09375,,
1.2837449999999953,1200,,,,-0.03125,0.0546875,-0.984375,0.031815118973546865,0.6156124180225898,22.954366970289854,0.3765639222185527,1578,0,8.643786458376345,5.257591654788127,60.82509881642445,0.11709019232445468,0.071220225185691,0.091796875,,
1.2916049999999815,1200,,,,-0.125,0.0546875,-1,0.031815118973546865,0.6156124180225898,22.954262434980446,0.3756626122492616,1578,0,8.62305818857985,5.2569329698472815,60.96367268876167,0.11710486353043112,0.07139142570531305,0.091796875,,
1.2997249999999767,1200,,,,0,0.044921875,-1.021484375,0.031815118973546865,0.6156124180225898,22.954349736455622,0.3746839209056807,1578,0,8.60062576109547,5.2580542057251165,61.13571676969924,0.11707989190227323,0.07157763110764381,0.09375,,
1.3073699999999953,1200,,,,-0.03125,0.044921875,-0.978515625,0.031815118973546865,0.6156124180225898,22.954428660599024,0.37587327717680696,1578,0,8.627956326380579,5.258477347199623,60.946962968756125,0.11707047066589177,0.07135089640408956,0.091796875,,
1.3144899999999906,1200,,,,0,0,-0.94140625,0.031815118973546865,0.6156124180225898,22.954410103330975,0.37671542985876005,1578,0,8.647280469230592,5.258638945797713,60.81263311059934,0.1170668730764523,0.07119144801803394,0.091796875,,
1.322609999999986,1200,,,,-0.0625,0.009765625,-0.91796875,0.031815118973546865,0.6156124180225898,22.954389937040972,0.3756992014247653,1577,0,8.623945968538962,5.2549487547823635,60.93438866561728,0.117149081132778,0.07138407641564627,0.091796875,,
1.3357750000000232,1200,,,,0,0.01953125,-0.9921875,0.031815118973546865,0.6156124180225898,22.95451592858248,0.375529623098163,1577,0,8.620100715061358,5.253188257593135,60.94114710765004,0.11718834121978457,0.07141591941576379,0.091796875,,
1.3465400000000372,1200,,,,-0.01953125,0.10546875,-0.9921875,0.031815118973546865,0.6156124180225898,22.954553522182813,0.37503962449393796,1577,0,8.608867133385443,5.252793323328167,61.01608076813822,0.11719715209212497,0.07150910897848876,0.091796875,,
1.35425,1200,,,,-0.0625,0,-0.966796875,0.031815118973546865,0.6156124180225898,22.954642982826694,0.37387302346187495,1576,0,8.582121774477327,5.250551326687893,61.18010749163094,0.1172471955265934,0.07173196025409254,0.091796875,,
1.3630350000000326,1200,,,,-0.0625,0.072265625,-1.0078125,0.031815118973546865,0.6156124180225898,22.95451233660624,0.3742854229219714,1576,0,8.591539357874277,5.249901395728066,61.105480369084866,0.11726171057679752,0.07165333153695812,0.091796875,,
1.369820000000065,1200,,,,-0.03125,0.0234375,-1,0.031815118973546865,0.6156124180225898,22.954768718030074,0.3743515254875873,1576,0,8.593152686809308,5.249654212429669,61.091131552777036,0.117267231918818,0.07163987891982525,0.091796875,,
1.3780600000000558,1200,,,,-0.0625,0.08203125,-0.95703125,0.031815118973546865,0.6156124180225898,22.954633174463556,0.37409885770514006,1576,0,8.58730204960733,5.251886793158898,61.158752339438806,0.11721738153695274,0.07168868807295999,0.091796875,,
1.384984999999986,1200,,,,-0.0625,-0.03125,-0.90625,0.03109857030842209,0.6156124180225898,22.954462121336963,0.3744490767803918,1577,0,8.5952771493251,5.1344063795226145,59.73520446546354,0.11989943384259896,0.0716221719588097,0.091796875,,
1.3944100000000326,1200,,,,-0.03125,0.021484375,-0.96484375,0.03109857030842209,0.6150182886002048,22.95443951941848,0.37483066893371997,1577,0,8.604027920062245,5.134782932769669,59.678826945653626,0.11977493433563079,0.07148027578643137,0.091796875,,
1.4010749999999534,1200,,,,-0.03125,0.060546875,-1.021484375,0.03109857030842209,0.6150182886002048,22.954515832930177,0.37646279166245844,1577,0,8.641521111724996,5.134322319135462,59.41456663421335,0.11978567966176382,0.07117014246088402,0.091796875,,
1.4093249999999535,1200,,,,-0.0625,0.16796875,-0.99609375,0.03109857030842209,0.6150182886002048,22.95445709071116,0.37610047584732675,1576,0,8.63318223463351,5.133830554917642,59.46625954821606,0.11979715380576503,0.07123888641351182,0.091796875,,
1.4169050000000278,1200,,,,-0.03125,-0.021484375,-1.0234375,0.03109857030842209,0.6150182886002048,22.95443745970393,0.3774895320960797,1576,0,8.66505985619236,5.133653533122061,59.24544802138174,0.11980128472483376,0.07097680787059893,0.091796875,,
1.4248400000000838,1200,,,,-0.0625,0.03125,-0.9609375,0.03109857030842209,0.6150182886002048,22.954514574176574,0.3766522254190953,1576,0,8.645868997778663,5.133570541335618,59.375992657933615,0.11980322149039634,0.07113435199610567,0.091796875,,
1.4328850000000093,1200,,,,-0.03125,0.05078125,-0.97265625,0.03109857030842209,0.6150182886002048,22.954878862619644,0.37628916071880086,1576,0,8.637672101616888,5.133993379444094,59.437234002933046,0.11979335444074893,0.07120185639891093,0.091796875,,
1.4417150000000838,1200,,,,-0.0625,0.04296875,-0.947265625,0.03109857030842209,0.6150182886002048,22.954940656579957,0.37709264953583665,1577,0,8.656139392127635,5.134172308226631,59.31249574025954,0.11978917957520503,0.07104995203283533,0.091796875,,
1.449530000000028,1200,,,,0,0.0390625,-0.90234375,0.03109857030842209,0.6150182886002048,22.955057701052123,0.37776773755633003,1577,0,8.671680213201471,5.13423262414905,59.206895295018704,0.11978777231624525,0.07092262093151473,0.091796875,,
1.4568349999999628,1200,,,,-0.03125,0.060546875,-0.98046875,0.03109857030842209,0.6150182886002048,22.955098522886832,0.37739664682071183,1577,0,8.663177209976565,5.135962888669707,59.28498014279452,0.11974741678079064,0.07099223226000112,0.091796875,,
1.464844999999972,1200,,,,-0.0625,0.03515625,-0.9296875,0.03109857030842209,0.6150182886002048,22.955339978515365,0.377633760819227,1578,0,8.668711366970712,5.138609111688909,59.277658398777675,0.11968575060539415,0.07094691039587853,0.091796875,,
1.4734099999999162,1200,,,,-0.0625,0.04296875,-0.970703125,0.03109857030842209,0.6150182886002048,22.955267171522266,0.37681979499638174,1578,0,8.649999069660192,5.139703979690061,59.41854950849111,0.11966025495446767,0.07110038783210705,0.091796875,,
1.4805500000000467,1200,,,,-0.0625,0.03515625,-1.0234375,0.03109857030842209,0.6150182886002048,22.955068766171433,0.37649086095069856,1578,0,8.642373602958372,5.140053051735961,59.47501563663562,0.1196521285694694,0.0711631221762593,0.091796875,,
1.4887550000000047,1200,,,,-0.03125,0.0703125,-0.99609375,0.03109857030842209,0.6150182886002048,22.954917243454126,0.3761301979881488,1578,0,8.634037567581972,5.138377297360195,59.513029184088175,0.11969115014504017,0.07123182911658854,0.091796875,,
1.4991750000000466,1200,,,,-0.125,0.11328125,-0.9609375,0.03109857030842209,0.6150182886002048,22.9551003764772,0.3755796724601978,1578,0,8.62146908068827,5.137724367761834,59.59221473368294,0.11970636113905182,0.07133567177986175,0.091796875,,
1.5073699999999954,1200,,,,-0.03125,-0.041015625,-0.970703125,0.03109857030842209,0.6150182886002048,22.95502704903109,0.3742856384319935,1578,0,8.591736954270282,5.137425138541103,59.79495375481311,0.11971333343357568,0.0715825323649518,0.091796875,,
1.5166450000000187,1200,,,,0,0.04296875,-0.984375,0.03109857030842209,0.6150182886002048,22.955074682754336,0.37403650034419117,1577,0,8.586035799476976,5.135975788929735,59.81777748052944,0.11974711600584978,0.07163006339173068,0.091796875,,
1.525414999999921,1200,,,,-0.09375,0.0546875,-0.982421875,0.03109857030842209,0.6150182886002048,22.955049902993757,0.3747994936980868,1577,0,8.603541081456376,5.1353376445979855,59.68865140501769,0.11976199641851415,0.07148432055793669,0.091796875,,
1.5331999999999535,1200,,,,0,0.06640625,-0.9921875,0.03049378770494986,0.6150182886002048,22.954975930399897,0.3745578296488759,1577,0,8.597965964132772,5.03529810941605,58.56382928731367,0.12214138572056249,0.07153067262254954,0.091796875,,
1.54075,1200,,,,0,-0.0390625,-0.966796875,0.03049378770494986,0.6147653510445661,22.954827662654843,0.37688514703330966,1577,0,8.651333598763955,5.0347645170543895,58.196397810549385,0.12210409224943002,0.07106018326843848,0.091796875,,
1.5485899999999675,1200,,,,-0.0625,0.10546875,-1.005859375,0.03049378770494986,0.6147653510445661,22.954885045091505,0.3758716569157463,1577,0,8.62809067620903,5.03455885338007,58.350787472161,0.1221090802487747,0.07125160990017305,0.091796875,,
1.5568550000000978,1200,,,,0,0.078125,-0.9296875,0.03049378770494986,0.6147653510445661,22.954874525921205,0.3761789589941852,1577,0,8.635140803003178,5.0344779579138415,58.30221038391085,0.1221110423332371,0.07119343680311033,0.091796875,,
1.5649549999999581,1200,,,,-0.0625,0.03125,-0.96875,0.03049378770494986,0.6147653510445661,22.954732684625846,0.3751910563452587,1576,0,8.612410404067807,5.034145451656045,58.452224353803686,0.12211910779064429,0.07138133486465074,0.091796875,,
1.5728100000000558,1200,,,,-0.0625,0.05859375,-0.99609375,0.03049378770494986,0.6147653510445661,22.95472953767837,0.37468760007495455,1576,0,8.60085252084238,5.033867083253261,58.52753632334387,0.12212586086942503,0.07147725758054913,0.091796875,,
1.5819649999999674,1200,,,,0,0.078125,-1.0234375,0.03049378770494986,0.6147653510445661,22.954577976276397,0.3758290015150279,1576,0,8.626996121022808,5.033748965578963,58.34880293167637,0.12212872657106336,0.07126064998991563,0.08984375,,
1.589625,1200,,,,-0.03125,0.044921875,-0.95703125,0.03049378770494986,0.6147653510445661,22.954647864250536,0.375183337543823,1576,0,8.612201397852704,5.0335600040096695,58.44684502228078,0.1221333113253546,0.07138306719090971,0.08984375,,
1.5966150000001071,1200,,,,-0.125,-0.046875,-0.95703125,0.03049378770494986,0.6147653510445661,22.954764257546405,0.37492387484793693,1576,0,8.606289161660223,5.033211636513522,58.48294824830839,0.12214176463090486,0.07143210499866273,0.08984375,,
1.6047399999999907,1200,,,,0,0.02734375,-1.005859375,0.03049378770494986,0.6147653510445661,22.954824074992406,0.37464644401357783,1576,0,8.599943212653171,5.033050454584787,58.52422894118203,0.12214567618422228,0.0714848151718091,0.08984375,,
1.6127550000000046,1200,,,,-0.0625,0.056640625,-0.96875,0.03049378770494986,0.6147653510445661,22.95488187888399,0.3743785259181875,1576,0,8.593814840442702,5.032985610461161,58.565208861329054,0.12214724988817058,0.07153579201537662,0.08984375,,
1.621265000000014,1200,,,,-0.0625,0.0703125,-0.98046875,0.03049378770494986,0.6147653510445661,22.954641183540332,0.37380198868171216,1576,0,8.580490523882506,5.033859350104042,58.66633540463743,0.12212604848243522,0.07164687721913557,0.08984375,,
1.6292600000000093,1200,,,,-0.0625,-0.0078125,-0.95703125,0.03049378770494986,0.6147653510445661,22.95457021858808,0.3733149798115669,1576,0,8.569284917735406,5.034220076757414,58.747259836562904,0.12211729754980079,0.07174056609697013,0.08984375,,
1.6382850000000326,1200,,,,-0.03125,0.1015625,-1.009765625,0.03049378770494986,0.6147653510445661,22.954640487484752,0.3735386775816351,1577,0,8.574446052056915,5.034343890389313,58.71334264423565,0.12211429422176907,0.07169738398401733,0.08984375,,
1.6452450000001118,1200,,,,-0.0625,0.05078125,-1.02734375,0.03049378770494986,0.6147653510445661,22.954706127302263,0.37395725805638536,1577,0,8.584078962856063,5.034540430723959,58.649745097974794,0.12210952707676712,0.07161692637086643,0.08984375,,
1.6561300000000048,1200,,,,-0.09375,0.03125,-0.931640625,0.03049378770494986,0.6147653510445661,22.954675110732396,0.3743210275305127,1577,0,8.592417574078436,5.034897019818217,58.59697781690068,0.12210087885109554,0.07154742489461724,0.08984375,,
1.6654700000000884,1200,,,,0.03125,-0.017578125,-0.984375,0.03049378770494986,0.6147653510445661,22.954473110280965,0.38229561728769956,1577,0,8.775394467208763,5.0350935187335475,57.377403802738534,0.12209611375782253,0.07005558021827683,0.08984375,,
1.6736999999999533,1200,,,,-0.03125,0.080078125,-0.966796875,0.03049378770494986,0.6147653510445661,22.95448336170019,0.38571299400436737,1579,0,8.853842503264817,5.041441667884906,56.94071998712307,0.12194237115957461,0.0694348641076317,0.08984375,,
1.682405000000028,1200,,,,-0.0625,-0.001953125,-1.005859375,0.030649083731661687,0.6147653510445661,22.95436320415386,0.3842817337549762,1581,0,8.820942489333676,5.075464059634427,57.53879549460505,0.1211249540576682,0.06969383960817602,0.08984375,,
1.6899749999999767,1200,,,,-0.0625,0.15625,-0.9296875,0.030649083731661687,0.622070518137635,22.95457646190799,0.3824608253764508,1582,0,8.77922625978818,5.0788318880074,57.85056379364734,0.12248299054877648,0.07085710058378697,0.08984375,,
1.6981049999999813,1200,,,,-0.0625,0.037109375,-0.953125,0.030649083731661687,0.622070518137635,22.954548255883275,0.3824485416254574,1583,0,8.778933504133745,5.080144942159176,57.867449841909426,0.12245133263328525,0.07085946349231602,0.08984375,,
1.7058949999999022,1200,,,,-0.03125,-0.037109375,-0.9921875,0.030649083731661687,0.622070518137635,22.95461916934361,0.38211921161134227,1587,0,8.771400979828185,5.092036886234603,58.05272040287396,0.12216535976384807,0.0709203147328718,0.091796875,,
1.7134099999999162,1200,,,,-0.0625,0.1796875,-0.9921875,0.030649083731661687,0.622070518137635,22.95455658048781,0.3812763983181441,1588,0,8.752030657998446,5.096746810194328,58.23502006973011,0.12205246626993362,0.07107727822789643,0.091796875,,
1.7216199999999953,1200,,,,-0.0625,0.099609375,-0.958984375,0.030649083731661687,0.622070518137635,22.954431046678323,0.3803626979111774,1589,0,8.731009321930658,5.098618882507024,58.396672074329935,0.12200765196863643,0.07124840842571437,0.091796875,,
1.73,1200,,,,0,-0.05078125,-0.953125,0.030649083731661687,0.622070518137635,22.954508571119824,0.37938311697379495,1586,0,8.708553010313132,5.090199351739928,58.45057549413597,0.12220946079940843,0.07143213314553475,0.091796875,,
1.737835000000079,1200,,,,-0.0625,0.1640625,-1.046875,0.030649083731661687,0.622070518137635,22.95432046422748,0.3820744785232564,1585,0,8.770260021225425,5.086903321066512,58.00173893083439,0.12228864573884071,0.07092954104349533,0.091796875,,
1.746719999999972,1200,,,,-0.09375,0.07421875,-0.994140625,0.030649083731661687,0.622070518137635,22.954012846045828,0.38556764586087516,1585,0,8.850324696110176,5.085607072475502,57.462378467432806,0.12231981536765325,0.07028787524722595,0.091796875,,
1.7541999999999534,1200,,,,0,-0.0078125,-0.96875,0.030649083731661687,0.622070518137635,22.953903190994765,0.3868044365104722,1585,0,8.87867158950866,5.088591783770385,57.312535242132824,0.12224806873321499,0.07006346747555059,0.091796875,,
1.7619000000000233,1200,,,,0,0.060546875,-0.984375,0.030649083731661687,0.622070518137635,22.953907553682598,0.3851706488681728,1586,0,8.84117146651198,5.091125762975435,57.58428939263618,0.12218722284598896,0.07036064400445954,0.091796875,,
1.7700400000000374,1200,,,,-0.09375,0.0234375,-0.97265625,0.030649083731661687,0.622070518137635,22.954010048577537,0.3840696434215124,1587,0,8.815938454450986,5.09228231714529,57.76222626162165,0.12215947180366954,0.0705620305032375,0.091796875,,
1.7782900000000372,1200,,,,0,0.0546875,-0.98046875,0.030649083731661687,0.622070518137635,22.953977227464073,0.3827104939972551,1587,0,8.784727963924519,5.092738206330558,57.972634181097746,0.12214853639332307,0.07081272416086623,0.091796875,,
1.7868150000000604,1200,,,,-0.03125,0.08984375,-1.009765625,0.030649083731661687,0.622070518137635,22.954089140532624,0.38220264093222756,1588,0,8.773113489705334,5.095845442356134,58.08480020617275,0.12207405526216514,0.07090647110260154,0.091796875,,
1.795484999999986,1200,,,,-0.0625,-0.005859375,-0.982421875,0.030649083731661687,0.622070518137635,22.953987134158208,0.3815671894238615,1588,0,8.758488356852224,5.096886133070494,58.193673672956734,0.1220491299778918,0.07102487242001716,0.091796875,,
1.8059399999999441,1200,,,,-0.03125,0.0625,-0.984375,0.030649083731661687,0.622070518137635,22.95402492409694,0.3808802733052946,1588,0,8.742735286546587,5.0973253190214045,58.303553201081385,0.1220386142152413,0.07115284836484569,0.091796875,,
1.81595000000007,1200,,,,-0.0625,0.08203125,-1.04296875,0.030649083731661687,0.622070518137635,22.953951788566158,0.3795797086500665,1586,0,8.712854332271615,5.091542890593815,58.43714007400774,0.12217721258655337,0.0713968688577224,0.091796875,,
1.824969999999972,1200,,,,-0.01953125,0.021484375,-0.9375,0.030649083731661687,0.622070518137635,22.95391720238007,0.38021152747070386,1586,0,8.727343920952991,5.090072916787547,58.32327639302808,0.12221249642337871,0.07127833207582673,0.091796875,,
1.8324300000000513,1200,,,,-0.0625,0.10546875,-1.0234375,0.030466458812035906,0.622070518137635,22.95401704569965,0.3800993141220201,1586,0,8.724806135415594,5.059265507926719,57.98713953528697,0.12295668554318642,0.07129906481389153,0.091796875,,
1.8409200000000419,1200,,,,-0.0625,0.0234375,-0.96875,0.030466458812035906,0.6407699470386043,22.953714506059793,0.37987807279943053,1584,0,8.719612830150327,5.0521948308116515,57.940586689151786,0.12683001517098316,0.07348605488800786,0.091796875,,
1.848765000000014,1200,,,,-0.03125,-0.013671875,-0.978515625,0.030466458812035906,0.6407699470386043,22.953825563430232,0.37904334743856316,1583,0,8.70049487808346,5.0495105517518,58.037049874846936,0.1268974369835321,0.07364752879203498,0.091796875,,
1.857210000000079,1200,,,,-0.0625,0.16015625,-1,0.030466458812035906,0.6407699470386043,22.954066700643377,0.3789849276818407,1582,0,8.699245308547479,5.0484286722690666,58.03294990783525,0.12692463113490005,0.0736581076072212,0.091796875,,
1.8658349999999628,1200,,,,-0.03125,0.09375,-0.966796875,0.030466458812035906,0.6407699470386043,22.95395533567718,0.37822225459751524,1582,0,8.681696738990487,5.04641158767087,58.12701986014856,0.1269753637622623,0.07380699491158609,0.091796875,,
1.873704999999958,1200,,,,-0.0625,-0.03125,-0.94921875,0.030466458812035906,0.6407699470386043,22.954055980145412,0.3780982821895485,1581,0,8.678889135375714,5.044958428913383,58.12908023389545,0.12701193797083826,0.0738308713296941,0.091796875,,
1.8811149999999908,1200,,,,0,0.0234375,-0.97265625,0.030466458812035906,0.6407699470386043,22.954199000219305,0.37808834763669896,1581,0,8.678715171316885,5.044422704684278,58.12407257419938,0.12702542680326573,0.07383235126281668,0.091796875,,
1.8901100000001025,1200,,,,-0.03125,0.048828125,-0.98828125,0.030466458812035906,0.6407699470386043,22.9540781527703,0.3790311511539736,1580,0,8.700310665922803,5.039395136635984,57.922013708937804,0.12715215411077016,0.07364908813525002,0.091796875,,
1.8978699999999953,1200,,,,-0.0625,0.11328125,-0.96484375,0.030466458812035906,0.6407699470386043,22.954172353699303,0.37706090414766286,1578,0,8.655120981647146,5.035449788820335,58.17884925580837,0.12725177966449722,0.07403362106634126,0.091796875,,
1.9057149999999674,1200,,,,-0.125,-0.00390625,-0.953125,0.030466458812035906,0.6407699470386043,22.954262322586274,0.3764602167178452,1578,0,8.641366568559096,5.033888823446832,58.2533883212665,0.12729123934045347,0.07415145995194711,0.091796875,,
1.91225,1200,,,,-0.03125,0.03515625,-1.001953125,0.030466458812035906,0.6407699470386043,22.9543353066743,0.3761550909100828,1578,0,8.634390084062595,5.033326165202264,58.29393988688102,0.1273054687909054,0.07421137344968247,0.08984375,,
1.9301300000000046,1200,,,,-0.0625,0.06640625,-0.974609375,0.030466458812035906,0.6407699470386043,22.954256474959244,0.37708176031582924,1577,0,8.655631438318654,5.031002157384247,58.12403396835845,0.12736427594214308,0.07402925501216502,0.091796875,,
1.9375100000000094,1200,,,,-0.03125,0.013671875,-0.984375,0.030466458812035906,0.6407699470386043,22.954515342859054,0.37701955858365055,1577,0,8.654301242066355,5.030800170752851,58.13063388987909,0.1273693896179371,0.07404063356657667,0.091796875,,
1.9446049999999813,1200,,,,-0.0625,0.1015625,-1.0390625,0.030466458812035906,0.6407699470386043,22.95440553333764,0.3768670367858702,1577,0,8.650758794530137,5.029875480776153,58.14374900796605,0.12739280514748014,0.0740709528791581,0.091796875,,
1.9516800000000512,1200,,,,-0.0625,0.12109375,-0.98046875,0.030466458812035906,0.6407699470386043,22.9544753844505,0.3771009579176867,1576,0,8.656154655974245,5.029476013739286,58.10288995088688,0.12740292334393866,0.07402478034474144,0.091796875,,
1.960140000000014,1200,,,,-0.0625,0.03515625,-0.9296875,0.030466458812035906,0.6407699470386043,22.954297287958923,0.3757495989235886,1576,0,8.625067999523383,5.02931298539847,58.31041547355207,0.12740705318975817,0.07429158205755747,0.091796875,,
1.9766549999999115,1200,,,,-0.03125,0.0703125,-0.978515625,0.030466458812035906,0.6407699470386043,22.954169240450746,0.3734892537955032,1576,0,8.573135541111641,5.027836637751231,58.64641488100506,0.12744446433032827,0.07474160929403882,0.08984375,,
1.9857750000000234,1200,,,,0,0.0703125,-1.046875,0.030469521455437003,0.6407699470386043,22.95404893679178,0.3744545476861531,1576,0,8.595248012192188,5.027773237930601,58.49480120642016,0.12744607139488676,0.07454932610783133,0.08984375,,
1.993719999999972,1200,,,,-0.09375,0.06640625,-0.935546875,0.030469521455437003,0.6495546357942047,22.953848227805942,0.3735474174907617,1576,0,8.574350726971806,5.027582022087941,58.635133809875384,0.12919821754085406,0.07575554773505365,0.08984375,,
2.0018549999999813,1200,,,,0,-0.02734375,-0.9921875,0.030469521455437003,0.6495546357942047,22.95369180206701,0.37440061085797194,1576,0,8.593876232139511,5.028853348675148,58.51670669712655,0.12916555539750027,0.07558342920566975,0.08984375,,
2.012795000000042,1200,,,,0,0.07421875,-1.00390625,0.030469521455437003,0.6495546357942047,22.953668649851394,0.37406103118321354,1576,0,8.586072964601213,5.029424628753819,58.57654191257405,0.12915088379704975,0.07565212157783867,0.08984375,,
2.0289350000000557,1200,,,,-0.0625,-0.03125,-0.99609375,0.030469521455437003,0.6495546357942047,22.953848675905085,0.37382597114208227,1576,0,8.580744772718617,5.028398928957013,58.600961363449066,0.12917722817368726,0.07569909757243692,0.08984375,,
2.0372850000000327,1200,,,,-0.03125,0.03125,-0.97265625,0.030469521455437003,0.6495546357942047,22.953562897487227,0.3757214255985123,1576,0,8.62414537440902,5.027830745513172,58.299466523750596,0.1291918261914179,0.07531814546188771,0.08984375,,
2.045089999999967,1200,,,,-0.03125,0.087890625,-1.015625,0.030469521455437003,0.6495546357942047,22.953388944727948,0.379217621677227,1576,0,8.704329565052088,5.027606376329284,57.759834789748076,0.1291975916914268,0.07462431551330141,0.08984375,,
2.053150000000023,1200,,,,-0.0625,0.078125,-0.953125,0.030469521455437003,0.6495546357942047,22.953320282790212,0.3812977358691871,1578,0,8.752049054508197,5.034277132990549,57.52112564311306,0.12902639617067424,0.07421743545411436,0.08984375,,
2.0613150000000604,1200,,,,-0.0625,-0.0234375,-0.9765625,0.030469521455437003,0.6495546357942047,22.95338613946329,0.3809181970059992,1579,0,8.74336246342685,5.036873751079278,57.607971442889706,0.1289598802541003,0.07429117098956686,0.08984375,,
2.0691450000000184,1200,,,,-0.03125,0.08203125,-0.994140625,0.030469521455437003,0.6495546357942047,22.95341608564038,0.38003135461722143,1579,0,8.723017808118634,5.037898464944926,57.754077496621456,0.1289336496783298,0.07446443995444502,0.08984375,,
2.077900000000023,1200,,,,-0.03125,0.099609375,-0.98828125,0.030469521455437003,0.6495546357942047,22.953631230879765,0.38015102649197996,1579,0,8.725846474137311,5.038331405220736,57.74031688677923,0.12892257050045058,0.07444030074554153,0.08984375,,
2.0862249999999767,1200,,,,-0.0625,0.009765625,-1.029296875,0.030469521455437003,0.6495546357942047,22.953747818757066,0.3808924322095233,1581,0,8.742908835010418,5.044796746720163,57.70158241292186,0.12875734512327136,0.07429502560899466,0.08984375,,
2.0934899999999907,1200,,,,-0.0625,0.09375,-1.00390625,0.030469521455437003,0.6495546357942047,22.95366384701143,0.38095587439711304,1582,0,8.744333081455641,5.047311104387272,57.72093831936994,0.1286932036405667,0.07428292469459263,0.08984375,,
2.1021849999999396,1200,,,,-0.0625,0.12109375,-0.9921875,0.030469521455437003,0.6495546357942047,22.953678726703224,0.381582921605564,1582,0,8.758731790130899,5.048268622303342,57.636981509030726,0.12866879407416246,0.07416080904841786,0.08984375,,
2.1118800000000046,1200,,,,-0.03125,-0.044921875,-0.943359375,0.030469521455437003,0.6495546357942047,22.95358574556634,0.38137700688537207,1582,0,8.753969828930833,5.047294226431519,57.657203817984495,0.12869363398563857,0.0742011508478706,0.08984375,,
2.1202399999999906,1200,,,,0,0.0703125,-0.978515625,0.030469521455437003,0.6495546357942047,22.95373614522151,0.38021339888648487,1582,0,8.72731803691823,5.046928747629464,57.8290916668785,0.12870295347428862,0.07442774894262634,0.08984375,,
2.128380000000005,1200,,,,0,0,-0.9921875,0.030469521455437003,0.6495546357942047,22.95365346076297,0.3803086197544223,1582,0,8.729472265984084,5.04682582535005,57.81364178240064,0.12870557817381212,0.07440938191937535,0.08984375,,
2.135689999999944,1200,,,,-0.09375,0.083984375,-1.01171875,0.032116704579970366,0.6495546357942047,22.953670312241506,0.37914206085186647,1581,0,8.70270186629755,5.3181983643000015,61.10973863065998,0.1221380985249694,0.07463827277706678,0.08984375,,
2.1431649999999207,1200,,,,-0.0625,-0.0078125,-0.96484375,0.032116704579970366,0.6564861321789733,22.953684937669003,0.3789905871453083,1581,0,8.699230531675594,5.317645329493589,61.12776653212034,0.1234542906684399,0.07546485057368918,0.08984375,,
2.1511950000000652,1200,,,,-0.03125,0.056640625,-1.00390625,0.032116704579970366,0.6564861321789733,22.953733064017996,0.37766012764807627,1581,0,8.668709758956906,5.317393291693013,61.340077584196884,0.12346014224762257,0.07573054704025152,0.08984375,,
2.1595800000000747,1200,,,,-0.0625,0.078125,-1.00390625,0.032116704579970366,0.6564861321789733,22.953845387180273,0.3775630888473511,1580,0,8.666524765308306,5.315387131976873,61.33239419396942,0.12350673918548923,0.07574964013336195,0.08984375,,
2.1683399999999673,1200,,,,-0.03125,0.00390625,-1.013671875,0.032116704579970366,0.6564861321789733,22.953817279053574,0.37686618859343185,1579,0,8.650517631626979,5.310543941797885,61.38989789908196,0.12361937672936756,0.07588980915764024,0.08984375,,
2.176405000000028,1200,,,,-0.0625,0.1171875,-0.984375,0.032116704579970366,0.6564861321789733,22.953858545715402,0.37670428608458206,1579,0,8.646816896350204,5.308910471220783,61.39728104409912,0.12365741252140845,0.07592228909763016,0.08984375,,
2.1852350000001026,1200,,,,-0.03125,0.013671875,-0.95703125,0.032116704579970366,0.6564861321789733,22.95397708442164,0.3774891405442846,1578,0,8.664877081671529,5.308214877052418,61.26128307440938,0.12367361672131696,0.07576404442800608,0.08984375,,
2.192445000000065,1200,,,,-0.0625,0.041015625,-0.955078125,0.032116704579970366,0.6564861321789733,22.95407302999954,0.3780212046796439,1578,0,8.67712633910495,5.3061279533641175,61.150751366280645,0.12372225810400166,0.07565709043792605,0.08984375,,
2.2003549999999814,1200,,,,-0.0625,0.09375,-0.9921875,0.032116704579970366,0.6564861321789733,22.954234540374518,0.3771540205810698,1577,0,8.657281846263114,5.305261943286743,61.28091977941946,0.12374245403842657,0.07583051399237317,0.08984375,,
2.2079499999999532,1200,,,,0,0.0859375,-0.98828125,0.032116704579970366,0.6564861321789733,22.954489034065606,0.3745021245974388,1577,0,8.59650491230618,5.304943531983709,61.710469383778374,0.12374988126093955,0.0763666325879942,0.08984375,,
2.215280000000028,1200,,,,0,0.01171875,-0.98828125,0.032116704579970366,0.6564861321789733,22.9545574532385,0.37485066733228356,1577,0,8.604531179663695,5.303448187458231,61.635527569388316,0.12378477341052438,0.07629539814214863,0.08984375,,
2.222709999999963,1200,,,,-0.125,0.0234375,-0.96484375,0.032116704579970366,0.6564861321789733,22.9545311265601,0.3742730443940575,1577,0,8.591262247375802,5.30280239212191,61.72320480313179,0.12379984838851996,0.07641323396681282,0.08984375,,
2.231445000000065,1200,,,,0,0.04296875,-0.984375,0.032116704579970366,0.6564861321789733,22.954277850001915,0.3746597338947766,1577,0,8.600043631028482,5.302537092957033,61.65709524804935,0.12380604240391552,0.07633520948782256,0.08984375,,
2.240015000000014,1200,,,,-0.03125,0.052734375,-1.0078125,0.032116704579970366,0.6564861321789733,22.954299111926545,0.37530770726148605,1577,0,8.614925371491516,5.302425664374908,61.549293066677954,0.12380864414369214,0.0762033452258815,0.08984375,,
2.2483950000000186,1200,,,,-0.0625,0.06640625,-0.966796875,0.032116704579970366,0.6564861321789733,22.954185816677786,0.3746850014742757,1576,0,8.600589146562715,5.299547369132394,61.61842263155187,0.12387588721307133,0.07633036772153481,0.08984375,,
2.2560600000000557,1200,,,,-0.0625,0.03125,-0.98046875,0.032116704579970366,0.6564861321789733,22.954078825459977,0.37356476072935657,1575,0,8.574834964195746,5.298420954837843,61.790354881014245,0.12390222252528914,0.07655962300384013,0.08984375,,
2.266795000000042,1200,,,,0,0.0390625,-1.0625,0.032116704579970366,0.6564861321789733,22.953976950967558,0.3727121571109557,1575,0,8.555226263670276,5.2979758666047285,61.92677672480219,0.12391263167449844,0.07673509875089315,0.08984375,,
2.2835500000000466,1200,,,,-0.03125,0.041015625,-0.9453125,0.031640964806434975,0.6564861321789733,22.953910288058925,0.37378207594155305,1576,0,8.579760238446838,5.223313168283107,60.87947708464944,0.12568385448632005,0.07651567339110336,0.08984375,,
2.2922700000000185,1200,,,,-0.03125,0.00390625,-0.939453125,0.031640964806434975,0.6672398983659119,22.953805488188834,0.37519886650100487,1577,0,8.612241801052996,5.223637916885291,60.653637433247766,0.12773471457680366,0.07747575065580838,0.08984375,,
2.300370000000112,1200,,,,-0.0625,0.03125,-0.94921875,0.031640964806434975,0.6672398983659119,22.953651820518385,0.3757546019148491,1577,0,8.624940302310938,5.224678533336066,60.57640227302423,0.12770927323252276,0.07736168309328864,0.08984375,,
2.308890000000014,1200,,,,-0.03125,0.087890625,-0.984375,0.031640964806434975,0.6672398983659119,22.95376739554727,0.3760723969278266,1577,0,8.632278322967258,5.225090777779012,60.52968384808681,0.12769919734285082,0.07729592042817207,0.08984375,,
2.3171599999999164,1200,,,,-0.0625,0.072265625,-0.982421875,0.031640964806434975,0.6672398983659119,22.953890115442878,0.37450213555718637,1577,0,8.596280867578349,5.225262158948825,60.78514929236868,0.1276950089907339,0.07761960185392122,0.08984375,,
2.3260999999999767,1200,,,,0,0.03515625,-0.953125,0.031640964806434975,0.6672398983659119,22.95386360336821,0.3748714458985195,1579,0,8.604748037952042,5.230849779778165,60.79027249498783,0.12755860452069967,0.07754322327893719,0.087890625,,
2.3354799999999813,1200,,,,-0.0625,0.0390625,-0.98046875,0.031640964806434975,0.6672398983659119,22.95405644182325,0.37479694186269097,1579,0,8.603110157738957,5.233269893742608,60.82997657579686,0.12749961532917056,0.07755798613896556,0.087890625,,
2.343224999999977,1200,,,,-0.0625,0.064453125,-0.998046875,0.031640964806434975,0.6672398983659119,22.95393498038614,0.37395285064339495,1580,0,8.583689419398537,5.234155293507084,60.977920306369185,0.12747804773649266,0.07773346235687378,0.087890625,,
2.3521049999999812,1200,,,,-0.03125,0.046875,-1.01171875,0.031640964806434975,0.6672398983659119,22.954030076698704,0.37373351534954036,1579,0,8.578690352003687,5.233214655194209,61.002489196639566,0.12750096113555082,0.07777876004232599,0.087890625,,
2.3601350000000094,1200,,,,-0.125,0.109375,-1.015625,0.031640964806434975,0.6672398983659119,22.953847692031026,0.379138378957418,1579,0,8.702684604792113,5.232132625278337,60.12090363928937,0.12752732894082866,0.07667058254627518,0.087890625,,
2.368534999999916,1200,,,,-0.03125,0.080078125,-0.947265625,0.031640964806434975,0.6672398983659119,22.953756767200773,0.38377880870137365,1579,0,8.809165427337406,5.231759658868892,59.389958129668194,0.12753642022427486,0.07574382657127451,0.087890625,,
2.377535000000033,1200,,,,-0.03125,0.01171875,-0.98046875,0.031640964806434975,0.6672398983659119,22.953806612500493,0.3820312110980483,1580,0,8.769070539483952,5.236728592611603,59.71817160134029,0.12741540573771715,0.0760901506449939,0.087890625,,
2.38625,1200,,,,-0.0625,0.048828125,-0.978515625,0.031640964806434975,0.6672398983659119,22.95392685242321,0.3799009301456572,1584,0,8.720218161730953,5.248766617237742,60.190771834954504,0.12712317902925904,0.07651642263884204,0.087890625,,
2.3945800000000745,1200,,,,-0.0625,0.0390625,-0.9765625,0.031640964806434975,0.6672398983659119,22.95402957909645,0.37872572803135307,1585,0,8.693281563596516,5.252880612594634,60.424600010556354,0.12702361762536463,0.07675351286906514,0.087890625,,
2.402380000000005,1200,,,,-0.03125,0.107421875,-1.021484375,0.031640964806434975,0.6672398983659119,22.95393096766173,0.3769957910668249,1586,0,8.653535363246924,5.25572841580513,60.735042906592,0.1269547901979438,0.077106046298695,0.087890625,,
2.410484999999986,1200,,,,0,-0.046875,-0.96875,0.031640964806434975,0.6672398983659119,22.95396738007941,0.3772532720642235,1587,0,8.659459300990408,5.259392256626449,60.73580432469862,0.12686634991433438,0.07705329803785758,0.087890625,,
2.421180000000051,1200,,,,-0.125,0.052734375,-0.947265625,0.031640964806434975,0.6672398983659119,22.95396908927855,0.37717744556710664,1588,0,8.657719426720409,5.260821437804983,60.76451751911082,0.12683188476442758,0.07706878283749903,0.087890625,,
2.429420000000042,1200,,,,-0.03125,0.111328125,-1.017578125,0.031640964806434975,0.6672398983659119,22.95390469276786,0.37512945324852726,1588,0,8.610685717316812,5.261475412701563,61.104023366226144,0.12681612019988708,0.07748975171908044,0.087890625,,
2.4375899999999673,1200,,,,-0.03125,0.1015625,-0.984375,0.03165804505584646,0.6672398983659119,22.953810733331387,0.3751576478932852,1585,0,8.611297644904248,5.25362583127118,61.0085267971201,0.12700559952219986,0.07748424521834434,0.087890625,,
2.446820000000065,1200,,,,-0.03125,-0.015625,-0.974609375,0.03165804505584646,0.6728424050364001,22.954116538777466,0.3751844682083137,1583,0,8.612028006792881,5.249423540602684,60.95455723625275,0.12817453189520148,0.07812821840635961,0.087890625,,
2.45467499999993,1200,,,,-0.0625,0.05859375,-1.013671875,0.03165804505584646,0.6728424050364001,22.954069316717902,0.3753463408729568,1583,0,8.615725926174276,5.247607423393399,60.90731609104869,0.12821889115350443,0.07809468532330262,0.087890625,,
2.4628100000000557,1200,,,,0,0.0078125,-0.90625,0.03165804505584646,0.6728424050364001,22.95415226015777,0.3745230293190587,1581,0,8.596858639925205,5.241886785371123,60.97444432815203,0.12835882051366418,0.07826607755437677,0.087890625,,
2.471094999999972,1200,,,,-0.0625,0.0234375,-0.96484375,0.03165804505584646,0.6728424050364001,22.95418048799158,0.3737561017676989,1580,0,8.579265018463909,5.239032831189189,61.06621977423449,0.12842874376178973,0.07842657891886297,0.087890625,,
2.478015000000014,1200,,,,-0.03125,0.072265625,-1.0234375,0.03165804505584646,0.6728424050364001,22.954260080728602,0.37355650809149443,1580,0,8.574713241580962,5.238121289780362,61.0880054201624,0.12845109301862173,0.0784682106654735,0.087890625,,
2.4854899999999907,1200,,,,0,0.01953125,-0.8828125,0.03165804505584646,0.6728424050364001,22.95433530513872,0.3744929360819826,1579,0,8.59623642423171,5.23598848464761,60.91024288126855,0.12850341573692048,0.07827174263608455,0.087890625,,
2.4937750000000234,1200,,,,-0.0625,0.12109375,-0.9921875,0.03165804505584646,0.6728424050364001,22.95415470010054,0.3727353972188615,1579,0,8.555825969965172,5.234989538521271,61.186255504710566,0.12852793689182007,0.07864143186156217,0.087890625,,
2.5023199999999486,1200,,,,-0.0625,0.03125,-0.96484375,0.03165804505584646,0.6728424050364001,22.954182672525405,0.37325144276918315,1579,0,8.567681800107492,5.234575779867224,61.09675758268182,0.12853809617662407,0.07853260902242641,0.087890625,,
2.5106849999999397,1200,,,,-0.03125,0.064453125,-1.005859375,0.03165804505584646,0.6728424050364001,22.954173852013184,0.3730527489344301,1579,0,8.563117655012334,5.234434351875394,61.12767058398959,0.1285415691182246,0.07857446693407963,0.087890625,,
2.519530000000028,1200,,,,-0.0625,0.09765625,-1.01953125,0.03165804505584646,0.6728424050364001,22.954053485638568,0.37283872179528726,1578,0,8.558159961606142,5.2323886384629645,61.13917783655194,0.12859182517337822,0.07861998467601969,0.08984375,,
2.5273200000000653,1200,,,,0,-0.0625,-0.9453125,0.03165804505584646,0.6728424050364001,22.954083643744998,0.3724466865371977,1578,0,8.54917239561051,5.231703906909957,61.19544284305374,0.12860865542251346,0.07870263622030416,0.08984375,,
2.5347700000000186,1200,,,,-0.0625,0.001953125,-0.982421875,0.03165804505584646,0.6728424050364001,22.954080093902363,0.3725889223703524,1578,0,8.552435966189838,5.231450652093635,61.169129740053194,0.128614881374658,0.07867260365308008,0.08984375,,
2.543234999999986,1200,,,,-0.03125,0.05078125,-0.986328125,0.03165804505584646,0.6728424050364001,22.95403965304437,0.37382072832431734,1577,0,8.580695821086307,5.228871070054969,60.93761134388982,0.12867833152163127,0.07841350154645373,0.08984375,,
2.551844999999972,1200,,,,-0.0625,0.00390625,-0.95703125,0.03165804505584646,0.6728424050364001,22.954003937692494,0.3722707196853646,1577,0,8.545103565545478,5.227971558977203,61.18090341300007,0.12870047157793538,0.07874011120817226,0.08984375,,
2.5607600000000095,1200,,,,-0.0625,0.0234375,-0.919921875,0.03165804505584646,0.6728424050364001,22.954110875952026,0.3725705440749157,1577,0,8.552025577809387,5.227615051862326,61.12721488376776,0.12870924855048413,0.07867637893673719,0.08984375,,
2.568030000000028,1200,,,,0,0,-0.9296875,0.03165804505584646,0.6728424050364001,22.954009130703795,0.37240748462470147,1577,0,8.54824480241783,5.226875767545398,61.1456022652393,0.12872745306368258,0.07871117645649196,0.08984375,,
2.578744999999995,1200,,,,-0.0625,0.15625,-1.0546875,0.03165804505584646,0.6728424050364001,22.953910794122866,0.3733128908618203,1576,0,8.568990795138347,5.226267600682985,60.990468138303164,0.12874243273506908,0.07852061241775869,0.08984375,,
2.5872399999999907,1200,,,,-0.0625,0.078125,-0.978515625,0.03184836635818802,0.6728424050364001,22.95387326223391,0.37275984611849833,1576,0,8.556282265053825,5.257410077765455,61.44502851709488,0.12797982182937817,0.07863723801918865,0.08984375,,
2.594625,1200,,,,-0.0625,-0.001953125,-0.93359375,0.03184836635818802,0.6833244571237607,22.953969413402593,0.3723040892232177,1576,0,8.54585667651445,5.2567418587781765,61.5121696719376,0.12999011088640097,0.07995973756518278,0.08984375,,
2.6028549999999813,1200,,,,0,0.01171875,-0.9765625,0.03184836635818802,0.6833244571237607,22.953971034134245,0.3715108664071341,1576,0,8.527649666375472,5.256135357479322,61.63638942866364,0.13000511034241358,0.0801304560878139,0.08984375,,
2.610344999999972,1200,,,,-0.0625,0.109375,-1,0.03184836635818802,0.6833244571237607,22.95400507186341,0.3720333948749549,1576,0,8.539656432862278,5.255897226515321,61.546940065288744,0.13001100053411951,0.08001779257701677,0.087890625,,
2.618344999999972,1200,,,,-0.09375,0.12109375,-1.017578125,0.03184836635818802,0.6833244571237607,22.954103269702127,0.37338808121167677,1576,0,8.570788575808754,5.2558025926251535,61.322275612535535,0.13001334146046298,0.07972713958345204,0.08984375,,
2.6264149999999207,1200,,,,-0.03125,0.033203125,-1.02734375,0.03184836635818802,0.6833244571237607,22.954000823984437,0.3728661097740125,1576,0,8.558768990988554,5.2552988566526,61.402508493754816,0.13002580362461233,0.07983910511467554,0.08984375,,
2.634640000000014,1200,,,,-0.0625,0.046875,-0.9609375,0.03184836635818802,0.6833244571237607,22.954033486656275,0.37268626775455743,1576,0,8.554653070055059,5.255098922734336,61.42971409477058,0.13003075054735846,0.07987751829652663,0.08984375,,
2.642484999999986,1200,,,,-0.03125,0.013671875,-0.984375,0.03184836635818802,0.6833244571237607,22.9541308740325,0.3728351754417498,1576,0,8.558107411532793,5.255019511632417,61.403991080444044,0.1300327155039417,0.07984527702969953,0.08984375,,
2.6498699999999955,1200,,,,-0.0625,0.12109375,-0.953125,0.03184836635818802,0.6833244571237607,22.95409541994377,0.37325458947233514,1575,0,8.56772146267992,5.2532105897248345,61.31397493029225,0.13007749174577704,0.0797556806789587,0.08984375,,
2.659689999999944,1200,,,,-0.0625,-0.001953125,-0.966796875,0.03184836635818802,0.6833244571237607,22.954445713392204,0.3730135042200264,1575,0,8.56231823298079,5.252325007173343,61.3423241727008,0.1300994238152652,0.0798060103035759,0.08984375,,
2.667640000000014,1200,,,,-0.03125,0.099609375,-1.017578125,0.03184836635818802,0.6833244571237607,22.954456683544294,0.3734675926877078,1575,0,8.572745679057553,5.252053752128528,61.26454637466762,0.13010614311531485,0.07970893838517347,0.08984375,,
2.675304999999935,1200,,,,-0.0625,0.0546875,-0.9921875,0.03184836635818802,0.6833244571237607,22.954336277806213,0.37325781318452644,1575,0,8.56788536215619,5.252571037278469,61.30533749294481,0.13009332996623568,0.07975415499161108,0.08984375,,
2.682935000000056,1200,,,,-0.0625,0.109375,-0.90625,0.03184836635818802,0.6833244571237607,22.954287763883617,0.37390301417336197,1575,0,8.582677383118805,5.253084180535589,61.20565816522284,0.1300806219050712,0.07961670078241387,0.08984375,,
2.6910400000000374,1200,,,,-0.03125,0.01171875,-0.982421875,0.03184836635818802,0.6833244571237607,22.954361277417192,0.3745383088846722,1575,0,8.59728765437164,5.253274648952464,61.10386042836689,0.13007590556111887,0.0794813997850004,0.08984375,,
2.698155000000028,1200,,,,0,0.0078125,-1.0625,0.03184836635818802,0.6833244571237607,22.95431139711451,0.3744892398959594,1575,0,8.596142627440571,5.253364250858031,61.1130419601027,0.13007368697347674,0.07949198689915349,0.08984375,,
2.715630000000005,1200,,,,-0.09375,0.0390625,-0.974609375,0.03184836635818802,0.6833244571237607,22.95430098571939,0.37504973404866854,1575,0,8.609004479967147,5.2540787354223975,61.03003834704065,0.13005599868857415,0.07937322587226349,0.08984375,,
2.7237699999999023,1200,,,,0,-0.0625,-0.88671875,0.03184836635818802,0.6833244571237607,22.95438488068342,0.37583186237990346,1575,0,8.626989219492348,5.254149557224487,60.903629569316486,0.13005424563603932,0.07920775600134233,0.08984375,,
2.733869999999995,1200,,,,-0.03125,0.072265625,-1.03125,0.032296588136071495,0.6833244571237607,22.95427077322214,0.375825574366557,1575,0,8.626801997511684,5.327810260969496,61.75881007244921,0.12825615471512997,0.07920947499674373,0.08984375,,0.23220999999996275,5589,
2.752179999999935,1200,,,,-0.0625,0.029296875,-0.95703125,0.032296588136071495,0.6876939664138559,22.95438367093202,0.37725510209778695,1575,0,8.659658355369233,5.32740746945556,61.51983428021056,0.1290860461409639,0.07941352166479712,0.08984375,,
2.760189999999944,1500,,,,-0.03125,0.021484375,-0.97265625,0.032296588136071495,0.6876939664138559,22.954399360678785,0.37585227100477464,1576,0,8.627463129261669,5.328509164453909,61.76217834395913,0.12905935697763488,0.07970987022609372,0.08984375,,
2.770890000000014,1500,,,,0,0.14453125,-1.046875,0.032296588136071495,0.6876939664138559,22.95427490427238,0.37415478972152033,1576,0,8.588451900018004,5.329256636359601,62.051423218058986,0.12904125534543925,0.0800719354802947,0.08984375,,
2.7788450000000884,1500,,,,-0.0625,0.052734375,-0.99609375,0.032296588136071495,0.6876939664138559,22.954219781369112,0.3751386440045633,1576,0,8.611014882965533,5.3295558318105885,61.89230775054882,0.12903401111012067,0.07986212725915325,0.08984375,,
2.786875,1500,,,,-0.0625,-0.02734375,-0.95703125,0.032296588136071495,0.6876939664138559,22.954110331824978,0.375701415964951,1576,0,8.623891753882356,5.329172420609708,61.79544656518432,0.12904329455626382,0.0797428801334694,0.08984375,,
2.7945650000000604,1500,,,,-0.21875,0.412109375,-0.921875,0.032296588136071495,0.6876939664138559,22.946033349861754,0.7071929267053949,1576,0,16.22727248096833,5.329023080895618,32.83991864403338,0.12904691084548264,0.04237890053429479,0.091796875,,
2.8026999999999536,1500,,,,0.6875,0.453125,-1.5546875,0.032296588136071495,0.6876939664138559,22.923775782715087,1.3204599989863763,1576,0,30.26992894680788,5.328963312899993,17.604809453845643,0.12904835819551114,0.022718717563635936,0.1015625,,
2.809930000000051,1500,,,,-0.28125,-0.5625,-0.697265625,0.032296588136071495,0.6876939664138559,22.906285159719634,1.7845732284520184,1660,0,40.87794325932342,5.612797001522345,13.730624767287383,0.12252250815900421,0.01682310585078194,0.111328125,,
2.818015000000014,1500,,,,-0.125,-0.00390625,-0.62890625,0.032296588136071495,0.6876939664138559,22.893324714802148,2.09088901104438,1732,0,47.86740107245052,5.8563512385773135,12.234529361043299,0.11742703577678819,0.014366645169913967,0.11328125,,
2.826859999999986,1500,,,,-0.0625,-0.41015625,-0.88671875,0.032296588136071495,0.6876939664138559,22.88036413125038,2.4297524259077115,1886,0,55.593620253557404,6.378203923510902,11.472906233521938,0.10781937590281886,0.012370015898898953,0.12109375,,
2.8351800000000513,1500,,,,-0.0625,0.091796875,-0.91796875,0.032296588136071495,0.6876939664138559,22.871420561803898,2.6754348146210702,2162,0,61.19099483089035,7.312132020142716,11.949686453620814,0.09404835204280594,0.011238483183912797,0.126953125,,
2.843819999999949,1500,,,,0,0.017578125,-1.064453125,0.032296588136071495,0.6876939664138559,22.86325638955284,2.8960052739267703,2438,0,66.21211108328495,8.246149847309352,12.454141262671609,0.08339576398047685,0.010386226253212793,0.130859375,,
2.851689999999944,1500,,,,-0.125,0.3515625,-0.875,0.032296588136071495,0.6876939664138559,22.85796005071892,3.037484522687899,2605,0,69.43069987427701,8.811669135264898,12.691315442910412,0.07804355291344951,0.009904753483100577,0.1328125,,
2.860834999999963,1500,,,,-0.15625,-0.234375,-0.82421875,0.032296588136071495,0.6876939664138559,22.85336210139687,3.1616483749453947,2842,0,72.25429514992008,9.61275495626541,13.304060244889182,0.0715397375198491,0.009517689778676315,0.134765625,,
2.868569999999949,1500,,,,0.15625,0.453125,-1.08984375,0.032296588136071495,0.6876939664138559,22.85001012463047,3.2505539671517107,2955,0,74.27519106007432,9.994977767552538,13.456684021813592,0.06880395158520208,0.009258730359342247,0.140625,,
2.8769300000000513,1500,,,,-0.3125,0.0234375,-0.84765625,0.032296588136071495,0.6876939664138559,22.847312936433323,3.3244489856816304,3071,0,75.95472631707655,10.384904013359506,13.672492176467385,0.06622054142524401,0.009053998345580832,0.142578125,,
2.887790000000037,1500,,,,0,-0.064453125,-0.958984375,0.03257441189073606,0.6876939664138559,22.844937415812502,3.3836025574688597,4566,0,77.29818866535923,15.575429933233416,20.149799370672007,0.04415248692085976,0.00889663753171544,0.142578125,,
2.89575,1500,,,,0.09375,-0.03125,-0.875,0.03257441189073606,0.6895418510496852,22.843146744335098,3.432075681451781,5163,0,78.39940842906691,17.610951299432735,22.463117582534466,0.039154151262226024,0.008795243036477234,0.14453125,,
2.9048350000000793,1500,,,,-0.0625,0.376953125,-1.24609375,0.03257441189073606,0.6895418510496852,22.841992300005916,3.460810300512724,4037,0,79.0518022360928,13.772387423268613,17.421977783803815,0.05006698039039303,0.008722658200635686,0.1484375,,
2.9137849999999164,1500,,,,-0.03125,-0.20703125,-0.826171875,0.03257441189073606,0.6895418510496852,22.841008167992424,3.4800908136248805,3600,0,79.4887826993613,12.280983309048974,15.449957707237166,0.056147120608950864,0.008674706387914352,0.154296875,,
2.922359999999986,1500,,,,-0.09375,0.345703125,-1.310546875,0.03257441189073606,0.6895418510496852,22.84051788299747,3.4964505127011867,3497,0,79.86074046236713,11.930298633202618,14.938878057140661,0.057797534852200246,0.008634303251603569,0.158203125,,
2.9301300000000046,1500,,,,-0.125,0.59375,-1.43359375,0.03257441189073606,0.6895418510496852,22.8402963347417,3.5054926291617945,3464,0,80.06649044930819,11.817702616322295,14.759860898117342,0.05834821482961574,0.008612115345385958,0.1640625,,
2.937275000000023,1500,,,,-0.09375,0.595703125,-1.361328125,0.03257441189073606,0.6895418510496852,22.84011009575167,3.5086740293750047,3463,0,80.13850112102973,11.81352121368835,14.741380295904083,0.058368867213842365,0.008604376690403778,0.169921875,,
2.9446300000000045,1500,,,,-0.0625,0.1875,-1.44921875,0.03257441189073606,0.6895418510496852,22.839845557187825,3.511852012789976,3468,0,80.21015759182225,11.830336161721837,14.749174564554139,0.05828590511914299,0.008596689892552797,0.173828125,,
2.95320000000007,1500,,,,-0.125,0.173828125,-1.158203125,0.03257441189073606,0.6895418510496852,22.839654342275896,3.510973706446792,3475,0,80.18942586006398,11.85466329311601,14.78332481617116,0.05816629574372656,0.008598912433329838,0.177734375,,
2.9619749999999767,1500,,,,0.0625,0.0859375,-1.05859375,0.03257441189073606,0.6895418510496852,22.839528094821492,3.5104151484543777,3499,0,80.17622540761072,11.93605687713954,14.887277140395927,0.0577696519166498,0.008600328183873704,0.177734375,,
2.9698399999999676,1500,,,,0.1875,-0.181640625,-0.814453125,0.03257441189073606,0.6895418510496852,22.839649445125303,3.5083397480189378,3520,0,80.12924997915178,12.007020392288378,14.984566054733314,0.05742822353267177,0.008605370089313101,0.1796875,,
2.9780499999999304,1500,,,,-0.15625,0.24609375,-1.404296875,0.03257441189073606,0.6895418510496852,22.839863025580215,3.5054107980507467,3514,0,80.06310247586889,11.985396550235631,14.969937686149551,0.0575318345254191,0.008612479778153912,0.185546875,,
2.985715000000084,1500,,,,0.125,0.005859375,-0.71875,0.03257441189073606,0.6895418510496852,22.839968131395302,3.5019764841967227,3519,0,79.98503129594891,12.003949581243113,15.007745057731933,0.057442914632625214,0.008620886181794983,0.1875,,
2.9940699999999487,1500,,,,0,-0.328125,-0.6640625,0.03257441189073606,0.6895418510496852,22.839904332009272,3.495524195324292,3525,0,79.83743821143052,12.024787594243623,15.06158998037841,0.05734337057061825,0.0086368233562755,0.19140625,,
3.00275,1500,,,,-0.25,0.296875,-1.08203125,0.03257441189073606,0.6895418510496852,22.8399822444756,3.4896539657491106,3562,0,79.70363461707355,12.149193399851711,15.242960321974072,0.05675618358813035,0.00865132254460547,0.1953125,,
3.0114599999999627,1500,,,,0.03125,-0.3984375,-0.71484375,0.03257441189073606,0.6895418510496852,22.84042088259939,3.4836075644394753,3550,0,79.56706296160459,12.108427272967237,15.217888938303789,0.05694726784122718,0.008666171973476341,0.19921875,,
3.0189899999999907,1500,,,,-0.03125,0.263671875,-1.2265625,0.03257441189073606,0.6895418510496852,22.840497713593614,3.476845239485561,3541,0,79.4128757429888,12.077512558007635,15.20850673774263,0.05709303531980226,0.008682998123393907,0.203125,,
3.026890000000014,1500,,,,0.125,-0.421875,-0.7109375,0.03257441189073606,0.6895418510496852,22.840535121433742,3.471695936106887,3550,0,79.29539295958814,12.110197589917702,15.272258750378482,0.056938943062643396,0.008695862714257577,0.20703125,,
3.035209999999963,1500,,,,-0.1875,-0.3046875,-0.83203125,0.09301807677337477,0.6895418510496852,22.84061037612934,3.4659988882143633,3555,0,79.16553016980174,34.62752759255117,43.740662783763035,0.019913112456750006,0.008710127369458531,0.20703125,,
3.0452850000000327,1500,,,,0.125,0.21484375,-1.033203125,0.09301807677337477,1.8279043604894716,22.840766253312207,3.460258860477241,3557,0,79.03496380811312,34.64745078938638,43.83813077147224,0.0527572539636716,0.023127793984032075,0.212890625,,
3.053340000000084,1500,,,,-0.0625,-0.01953125,-0.984375,0.09301807677337477,1.8279043604894716,22.84088502445876,3.454106038447001,3572,0,78.89483888645668,34.79886086789367,44.10790535737737,0.05252770679559639,0.02316887119980233,0.216796875,,
3.06175,1500,,,,0,-0.0859375,-0.859375,0.09301807677337477,1.8279043604894716,22.841124467296364,3.448439286291718,3567,0,78.76623095610377,34.74829266656272,44.11572350837488,0.052604148872281466,0.02320670087042959,0.21875,,
3.070969999999972,1500,,,,-0.25,-0.03125,-0.890625,0.09301807677337477,1.8279043604894716,22.841267124339407,3.4422113174057016,3566,0,78.62446819928789,34.737645155928014,44.181723516245846,0.05262027268355402,0.023248543390542473,0.220703125,,
3.079039999999921,1500,,,,0.0625,0.275390625,-1.134765625,0.09301807677337477,1.8279043604894716,22.84148806080474,3.4372525858591554,3566,0,78.51196390187211,34.74065075263789,44.24886224481452,0.052615720226561295,0.02328185756216812,0.224609375,,
3.0870400000000373,1500,,,,-0.125,-0.10546875,-0.966796875,0.09301807677337477,1.8279043604894716,22.841513276167582,3.431093635348713,3554,0,78.37137082359172,34.62315136399989,44.17831537224747,0.05279428037246983,0.02332362368145827,0.23046875,,
3.095,1500,,,,0.125,-0.2734375,-0.818359375,0.09301807677337477,1.8279043604894716,22.84137147388186,3.426020389121178,3557,0,78.2550043850101,34.646851327447,44.2742947875723,0.052758166772904354,0.023358306281554695,0.232421875,,
3.103105000000098,1500,,,,-0.1875,0.01171875,-0.97265625,0.09301807677337477,1.8279043604894716,22.841500157014597,3.423303762753202,3568,0,78.19339343443593,34.75139770666388,44.442882167279826,0.05259944868746833,0.023376711000810364,0.232421875,,
3.1131199999999954,1500,,,,0.03125,0.060546875,-0.7890625,0.09301807677337477,1.8279043604894716,22.84165996166341,3.4199285946628515,3578,0,78.11684605245827,34.85691634999128,44.621510098581815,0.05244021995909942,0.023399618044768065,0.23828125,,
3.121155000000028,1500,,,,-0.15625,0.123046875,-0.96484375,0.09301807677337477,1.8279043604894716,22.84176556190519,3.4151550016469017,3572,0,78.00816990518646,34.79066394135888,44.59874393110943,0.05254008269490001,0.023432216942291594,0.2421875,,
3.1299500000000697,1500,,,,0,-0.1875,-1.083984375,0.09301807677337477,1.8279043604894716,22.841961016108613,3.406173644180598,3565,0,77.80368559446983,34.73016004428863,44.63819390936051,0.05263161350706387,0.02349380169490835,0.2421875,,
3.1381149999999907,1500,,,,-0.3125,-0.2890625,-0.84375,0.09301807677337477,1.8279043604894716,22.84219379298025,3.4022644587716524,3564,0,77.71518410223115,34.71654529559152,44.67150878768212,0.05265225398800231,0.023520556267163158,0.24609375,,
3.147084999999963,1500,,,,0.09375,0.173828125,-0.91015625,0.09301807677337477,1.8279043604894716,22.842588202081945,3.395595286343385,3568,0,77.56418482687248,34.75548913229927,44.80868226730601,0.052593256666059914,0.02356634527352353,0.248046875,,
3.156665000000037,1500,,,,-0.15625,0.0546875,-0.791015625,0.09301807677337477,1.8279043604894716,22.842739099463845,3.400296358660419,3579,0,77.67208258173689,34.859078160026954,44.87980365833966,0.05243696784229759,0.023533608212009866,0.248046875,,
3.1645050000000046,1500,,,,-0.125,-0.03515625,-1.322265625,0.09301807677337477,1.8279043604894716,22.842231635350497,3.4094607381374864,3584,0,77.87969193216955,34.910662577135426,44.826400453074946,0.052359486344628954,0.023470873024016473,0.251953125,,
3.171540000000037,1500,,,,0.25,0.20703125,-0.80859375,0.09301807677337477,1.8279043604894716,22.841789326374748,3.407916766552547,3580,0,77.84291682341352,34.874584765931104,44.801230720894004,0.05241365231322114,0.0234819613020934,0.25390625,,
3.1796600000000326,1500,,,,0,0.125,-1.119140625,0.09301807677337477,1.8279043604894716,22.841799825576913,3.4005738750949295,3568,0,77.67522774700477,34.75187998454659,44.7399782305584,0.0525987187254992,0.023532655307340986,0.2578125,,
3.1884400000000603,1500,,,,-0.25,-0.15625,-0.64453125,0.13203439547924442,2.7889097139689,22.841709244375885,3.3939151290579455,3569,0,77.52282257803004,49.35075990244645,63.65965306896919,0.05651199129419375,0.03597533760024982,0.26171875,,
3.1988499999999767,1500,,,,-0.125,0.423828125,-1.103515625,0.13203439547924442,2.7889097139689,22.841820033070178,3.3880638664525047,3576,0,77.38954509805602,49.448099286196225,63.895063892084224,0.05640074652469894,0.036037293027568855,0.267578125,,
3.206234999999986,1500,,,,-0.0625,0.013671875,-0.923828125,0.13203439547924442,2.7889097139689,22.841898172334517,3.3789275377819368,3590,0,77.18111874971198,49.643773658738766,64.32113768618315,0.05617843907557115,0.03613461114774664,0.2734375,,
3.214030000000028,1500,,,,0.09375,-0.3203125,-0.96484375,0.13203439547924442,2.7889097139689,22.84199031682816,3.382548056160767,3589,0,77.26412994503015,49.62601646732638,64.22904975780223,0.056198540856187994,0.036095788769679796,0.275390625,,
3.2221149999999907,1500,,,,0,0.263671875,-0.927734375,0.13203439547924442,2.7889097139689,22.84208968478532,3.3854903212383287,3583,0,77.33167354469857,49.54716029003801,64.07097896491169,0.056287982956909045,0.03606426172009427,0.279296875,,
3.2301999999999533,1500,,,,0.1875,-0.16796875,-1.00390625,0.13203439547924442,2.7889097139689,22.841988611013985,3.3877074701877024,3568,0,77.3819754514745,49.328631364730946,63.746926951566984,0.05653734224547974,0.03604081826158339,0.28125,,
3.23925,1500,,,,-0.1875,0.09765625,-0.6953125,0.13203439547924442,2.7889097139689,22.842324458647635,3.377902600981169,3571,0,77.15914720132162,49.36970115217869,63.98424936367502,0.05649030982327154,0.03614490070363466,0.28125,,
3.2471900000000606,1500,,,,0,-0.091796875,-1.27734375,0.13203439547924442,2.7889097139689,22.842405115482357,3.372220608882429,3578,0,77.02962928687103,49.46537695574854,64.21603922242872,0.05638104641280392,0.03620567487846191,0.287109375,,
3.2549150000000373,1500,,,,-0.125,-0.0703125,-0.75390625,0.13203439547924442,2.7889097139689,22.842482752472968,3.368337757278214,3583,0,76.94119712513108,49.54390705631004,64.39191084554578,0.05629167903127045,0.03624728777527646,0.287109375,,
3.2620500000000465,1500,,,,-0.1875,0.6875,-1.375,0.13203439547924442,2.7889097139689,22.84254856051775,3.3625080622052796,3583,0,76.80825369605654,49.53572114761695,64.49270587981118,0.056300981379839424,0.0363100263287471,0.291015625,,
3.2700899999999673,1500,,,,0.03125,-0.28515625,-0.888671875,0.13203439547924442,2.7889097139689,22.842521639286627,3.354898917406183,3579,0,76.63435111847001,49.491730513039705,64.58165273237562,0.056351024404654816,0.0363924228921504,0.29296875,,
3.2795849999999627,1500,,,,-0.09375,0.4765625,-1.029296875,0.13203439547924442,2.7889097139689,22.842807210111314,3.3479081621513007,3574,0,76.47562070518025,49.41226059103548,64.6117810295699,0.056441653966239944,0.03646795787013451,0.30078125,,
3.3044499999999535,1500,,,,0,-0.25,-0.9921875,0.13203439547924442,2.7889097139689,22.843226356117714,3.3414530218126774,3574,0,76.32956773560053,49.419178837253575,64.74447622766269,0.056433752635860084,0.036537737559702396,0.314453125,,
3.312255000000121,1500,,,,0.125,0.265625,-0.826171875,0.13203439547924442,2.7889097139689,22.84319922295926,3.3372851935570282,3573,0,76.23427054025535,49.39605965991965,64.79508403485826,0.056460165713012184,0.03658341181996647,0.3203125,,
3.3200200000000186,1500,,,,0.125,-0.7265625,-1.046875,0.13203439547924442,2.7889097139689,22.8430405171788,3.339255581268288,3571,0,76.27875054012694,49.37169916204245,64.72536428880038,0.05648802373228926,0.03656207914026824,0.32421875,,
3.3278249999999536,1500,,,,-0.09375,0.423828125,-0.880859375,0.13203439547924442,2.7889097139689,22.84282824367171,3.3382437781752783,3569,0,76.25492926036361,49.34744356547345,64.71377528524395,0.05651578911618017,0.0365735007693272,0.328125,,
3.3359400000000607,1500,,,,-0.09375,-0.548828125,-1.021484375,0.14676320295975837,2.7889097139689,22.84268979928409,3.3371134520317187,3575,0,76.22864740977866,54.93757670982172,72.06946282871378,0.05076506611676411,0.036586110454993284,0.333984375,,
3.344695000000065,1500,,,,0.0625,0.83203125,-0.5078125,0.14676320295975837,3.2242924321383044,22.842655852183075,3.3329857319384226,3572,0,76.1342460349059,54.89208148567171,72.09906756087777,0.0587387532932219,0.04235009342129737,0.337890625,,
3.3542950000000418,1500,,,,0,-0.2421875,-1.13671875,0.14676320295975837,3.2242924321383044,22.84272137755634,3.3337552009114266,3562,0,76.15204119539908,54.74756641978457,71.89244774057649,0.05889380374308502,0.04234019707843509,0.33984375,,
3.3619499999999536,1500,,,,0.03125,0.228515625,-0.857421875,0.14676320295975837,3.2242924321383044,22.842718052391792,3.334009382357745,3570,0,76.15783630522687,54.86741139729898,72.04434114619576,0.05876516405687457,0.04233697526825633,0.341796875,,
3.3713850000000094,1500,,,,-0.25,-0.40625,-1.20703125,0.14676320295975837,3.2242924321383044,22.8429151770201,3.3311729464568307,3574,0,76.0937010558975,54.92557507008156,72.18150031857947,0.05870293443490234,0.04237265880614453,0.345703125,,
3.380145000000019,1500,,,,-0.01953125,0.078125,-1.19140625,0.14676320295975837,3.2242924321383044,22.842980655179627,3.3309268982364477,3583,0,76.08829870023266,55.06145004424179,72.36520067450716,0.058558073380697205,0.042375667313066696,0.349609375,,
3.388329999999958,1500,,,,-0.3125,-0.30859375,-0.7734375,0.14676320295975837,3.2242924321383044,22.842965104312167,3.329232347346068,3590,0,76.04953833457351,55.18092506938719,72.5591848126985,0.05843128632011734,0.04239726502945096,0.353515625,,
3.3977750000000233,1500,,,,0,0.525390625,-1.12890625,0.14676320295975837,3.2242924321383044,22.84321150113611,3.3266340841743407,3567,0,75.9910059716827,54.828602130952625,72.15143612045874,0.05880675973531852,0.04242992168493999,0.357421875,,
3.406555000000051,1500,,,,-0.1875,0.09375,-0.826171875,0.14676320295975837,3.2242924321383044,22.843000263888158,3.324377725472375,4041,0,75.93876126022938,62.11118545086984,81.79114910503378,0.05191162282176582,0.04245911282499322,0.361328125,,
3.4140499999999303,1500,,,,0.125,0.5625,-1.41796875,0.14676320295975837,3.2242924321383044,22.842956641181047,3.323832968988332,4037,0,75.92617239312854,62.037082441379695,81.70711164019401,0.05197363101633631,0.042466152717980404,0.365234375,,
3.422180000000051,1500,,,,0.03125,-0.451171875,-0.78515625,0.14676320295975837,3.2242924321383044,22.842608639205814,3.320198216164569,3760,0,75.84198845643651,57.78707978054808,76.19404627522506,0.05579607836877829,0.042513289772067774,0.37109375,,
3.430125,1500,,,,0.0625,0.10546875,-1.064453125,0.14676320295975837,3.2242924321383044,22.84267542245658,3.316677218479639,3651,0,75.7617811827865,56.10797871215184,74.05842079766187,0.05746584543135553,0.04255829762448723,0.375,,
3.438045000000042,1500,,,,-0.5,-0.41796875,-0.83984375,0.14676320295975837,3.2242924321383044,22.842609364909634,3.3175096794389605,3603,0,75.78057767173075,55.37449695120774,73.07214942472613,0.05822702886094537,0.0425477415348484,0.37890625,,
3.446079999999958,1500,,,,0.0625,0.490234375,-1.146484375,0.14676320295975837,3.2242924321383044,22.842579508885077,3.31339801792917,3581,0,75.68655766912929,55.03634603867661,72.7161437031831,0.05858478376948287,0.042600595554016255,0.3828125,,
3.454030000000028,1500,,,,-0.1875,-0.033203125,-0.9375,0.14676320295975837,3.2242924321383044,22.842583786559267,3.3141768668869402,3561,0,75.70436276534141,54.726911309196346,72.29030046634398,0.05891603152828565,0.04259057621464364,0.384765625,,
3.4617899999999207,1500,,,,0.3125,0.09765625,-0.609375,0.14676320295975837,3.2242924321383044,22.842653455541736,3.3147046794140738,3562,0,75.71665029931826,54.73738570453019,72.29240264610998,0.0589047575187986,0.04258366448320463,0.38671875,,
3.469314999999944,1500,,,,0.125,-0.6484375,-1.1953125,0.14676320295975837,3.2242924321383044,22.84271215175034,3.313023715764629,3570,0,75.67844709113376,54.865039570852325,72.49757583527389,0.05876770448646949,0.042605161126727874,0.390625,,
3.478280000000028,1500,,,,-0.03125,0.318359375,-0.9765625,0.14676320295975837,3.2242924321383044,22.842895733912677,3.3147772046962776,3567,0,75.71911006802759,54.821693881380455,72.40139752319796,0.05881417015524574,0.04258228113406952,0.390625,,
3.486390000000014,1500,,,,0.09375,-0.359375,-0.947265625,0.15145679503173862,3.3977934323927537,22.842884716804434,3.318502239355625,3570,0,75.8041640860579,56.628124113928294,74.70318391696834,0.06000187160635664,0.0448233084997198,0.392578125,,
3.4944550000000745,1500,,,,0.03125,0.228515625,-0.9140625,0.15145679503173862,3.3977934323927537,22.84333072603412,3.3204087505753273,3574,0,75.84919523500994,56.68388683982385,74.732351034438,0.05994284481574398,0.04479669720773021,0.39453125,,
3.505405000000028,1500,,,,-0.0625,-0.1328125,-0.9375,0.15145679503173862,3.3977934323927537,22.843220171760613,3.318976773663941,3572,0,75.8161171857651,56.646515905311084,74.71566470031095,0.059982390409896016,0.044816241697889385,0.39453125,,
3.512545000000042,1500,,,,-0.041015625,0.068359375,-0.9921875,0.15145679503173862,3.3977934323927537,22.843106641090998,3.320770738819037,3575,0,75.85672011745781,56.69913298333835,74.7450362941404,0.0599267264526114,0.044792253436894636,0.392578125,,
3.527555000000051,1500,,,,-0.0625,-0.48828125,-1.1015625,0.15145679503173862,3.3977934323927537,22.843414577497064,3.3183136572332956,3570,0,75.80161457035067,56.62901641804924,74.70687364514175,0.06000092615611425,0.04482481608936308,0.39453125,,
3.53520000000007,1500,,,,-0.08203125,0.109375,-0.99609375,0.15145679503173862,3.3977934323927537,22.84344284890867,3.316876349950307,3566,0,75.76887533698662,56.56167271502794,74.65027356347379,0.060072364717919484,0.04484418459797461,0.3984375,,
3.550744999999995,1500,,,,0.0625,0.01953125,-1.46875,0.15145679503173862,3.3977934323927537,22.843309492011652,3.3205133740637507,3564,0,75.85151467610211,56.533296236064814,74.53153239914967,0.0601025176066979,0.04479532738274068,0.3984375,,
3.5605550000000514,1500,,,,-0.34375,-0.099609375,-0.708984375,0.15145679503173862,3.3977934323927537,22.843146599731103,3.3165619305356193,3568,0,75.76071038631235,56.589623802134206,74.69521274758034,0.060042693414487945,0.04484901758532918,0.40234375,,
3.56854999999993,1500,,,,0.0625,0.205078125,-1.177734375,0.15145679503173862,3.3977934323927537,22.843193147625588,3.3148906140286303,3570,0,75.72268655950718,56.629075454286976,74.7848208076778,0.06000086360469675,0.04487153832983164,0.40625,,
3.577210000000079,1500,,,,-0.125,0.345703125,-1.212890625,0.15145679503173862,3.3977934323927537,22.843312272861706,3.314121122278671,3563,0,75.70550370629857,56.50563592575438,74.63874244198868,0.06013193864161243,0.04488172280808777,0.40625,,
3.5851999999999533,1500,,,,0.4375,-0.47265625,-0.78125,0.15145679503173862,3.3977934323927537,22.843213805303126,3.311850847751981,3574,0,75.6533170064729,56.68290683885981,74.9245493545379,0.05994388117836163,0.04491268283850711,0.41015625,,
3.5932350000001025,1500,,,,-0.34375,0.40234375,-1.00390625,0.15145679503173862,3.3977934323927537,22.843251884520395,3.310279070990942,3573,0,75.61753862670226,56.66792870220572,74.9401920921491,0.05995972519568197,0.0449339332395688,0.4140625,,
3.6011450000000185,1500,,,,-0.0625,0.02734375,-1.005859375,0.15145679503173862,3.3977934323927537,22.843288840146414,3.3100380438475794,3562,0,75.61215510748347,56.494107145014624,74.71564203494485,0.06014420979644769,0.044937132496260086,0.416015625,,
3.609320000000065,1500,,,,0.25,0.21484375,-1.07421875,0.15145679503173862,3.3977934323927537,22.843323782989113,3.310235473686363,3572,0,75.61678072335393,56.65398231402519,74.92249970452372,0.059974485351431336,0.04493438361021576,0.4140625,,
3.6184899999999907,1500,,,,0.09375,-0.3359375,-0.98828125,0.15145679503173862,3.3977934323927537,22.84325107373315,3.3103268836873565,3574,0,75.61862814019892,56.692552627467656,74.97167565954538,0.05993368220196379,0.04493328583127897,0.41796875,,
3.6263649999999905,1500,,,,-0.25,0.369140625,-1.001953125,0.15145679503173862,3.3977934323927537,22.843287733126175,3.3109335245083877,3572,0,75.63260716559867,56.65224587037465,74.90452596237196,0.05997632362478984,0.04492498090080693,0.421875,,
3.6349749999999768,1500,,,,0.3125,-0.07421875,-1.21484375,0.15268911220555698,3.467808581750851,22.843473046533546,3.3062305669057697,3570,0,75.52578884073728,57.08396211771324,75.58207996752913,0.06074926219381651,0.04591555593101434,0.421875,,
3.6438500000000933,1500,,,,-0.21875,0.265625,-0.873046875,0.15268911220555698,3.467808581750851,22.843392482371364,3.30992762626499,3567,0,75.60997585501497,57.03698934261487,75.4357989109605,0.06079929220878243,0.045864431809904384,0.421875,,
3.6522149999999676,1500,,,,0.03125,-0.509765625,-0.71875,0.15268911220555698,3.467808581750851,22.84321882888449,3.308030010633495,3564,0,75.566053425418,56.985441621282966,75.4114301834306,0.06085428985173805,0.04589109030516593,0.42578125,,
3.662505000000005,1500,,,,0.03125,0.314453125,-1.17578125,0.15268911220555698,3.467808581750851,22.843192423670573,3.3071767483947037,3578,0,75.54647484266937,57.21715559210776,75.73769088665797,0.06060784647304597,0.045902983414815794,0.4296875,,
3.6721699999999253,1500,,,,-0.125,-0.01171875,-1.0390625,0.15268911220555698,3.467808581750851,22.842978295430004,3.3072750838317293,3564,0,75.54801295698464,56.992850741963764,75.43924520478683,0.06084637874057961,0.04590204885633914,0.427734375,,
3.6811600000000326,1500,,,,-0.01953125,0.115234375,-0.873046875,0.15268911220555698,3.467808581750851,22.842556369108088,3.308342501118407,3569,0,75.57100007011324,57.07184188301501,75.52082390078854,0.06076216339502608,0.045888086415867044,0.427734375,,
3.6887050000000743,1500,,,,-0.1875,-0.390625,-0.9609375,0.15268911220555698,3.467808581750851,22.842503459716195,3.3084024188255907,3567,0,75.57219369815698,57.03754335683785,75.47424597021968,0.06079870165612802,0.04588736163464608,0.4296875,,
3.6961999999999535,1500,,,,-0.0625,0.130859375,-0.81640625,0.15268911220555698,3.467808581750851,22.842478725743067,3.306010862540552,3560,0,75.51748279465805,56.91790422440188,75.37049980753349,0.060926498067793045,0.04592060610892285,0.431640625,,
3.704555000000051,1500,,,,0.0625,-0.29296875,-1.015625,0.15268911220555698,3.467808581750851,22.842455466007312,3.307090557774041,3560,0,75.54206878800682,56.916709409257244,75.34438799787469,0.06092777705780066,0.04590566074490941,0.4296875,,
3.7133950000000184,1500,,,,-0.15625,0.3125,-0.962890625,0.15268911220555698,3.467808581750851,22.842393957200862,3.309612993639531,3561,0,75.59948384658507,56.9404214596076,75.31853203542694,0.06090240452840422,0.045870797065071446,0.431640625,,
3.7214749999999768,1500,,,,0.09375,-0.361328125,-0.9609375,0.15268911220555698,3.467808581750851,22.842079446520955,3.3097254919848607,3576,0,75.60101263409385,57.17976477911173,75.63359641207414,0.06064747896650446,0.045869869475623534,0.43359375,,
3.729399999999907,1500,,,,-0.375,-0.08203125,-0.47265625,0.15268911220555698,3.467808581750851,22.84204272409709,3.30897835522877,3575,0,75.58382496324809,57.15807725474904,75.62210206025112,0.06067049047670204,0.045880300228746555,0.43359375,,
3.7375449999999253,1500,,,,0.25,0.013671875,-1.03125,0.15268911220555698,3.467808581750851,22.842236478673055,3.3102367871922516,3570,0,75.61321149344835,57.08416408371336,75.49496041265161,0.06074904726055626,0.04586246918041995,0.43359375,,
3.7460050000000047,1500,,,,-0.09375,0.173828125,-0.94921875,0.15268911220555698,3.467808581750851,22.842257651380436,3.31074585672101,3567,0,75.62490987746156,57.03952099760897,75.42424988014223,0.060796593679252976,0.04585537473525452,0.431640625,,
3.7547249999999766,1500,,,,0.125,-0.3359375,-1.28515625,0.15268911220555698,3.467808581750851,22.842135412649473,3.3141031762379645,3564,0,75.7011935231193,56.98483372585606,75.27600434523238,0.060854939025247724,0.045809166544934,0.43359375,,
3.7630850000000793,1500,,,,-0.15625,-0.146484375,-0.7578125,0.15268911220555698,3.467808581750851,22.84194425364668,3.3260616956098823,3561,0,75.97371583531049,56.93448401195962,74.9397122228133,0.06090875577308131,0.04564484629484332,0.43359375,,
3.771890000000014,1500,,,,-0.03125,0,-1.0625,0.15268911220555698,3.467808581750851,22.841846357232757,3.331577389583912,3558,0,76.0993788601063,56.888278341948876,74.7552466184077,0.06095822694626569,0.045569472887889574,0.43359375,,
3.780479999999981,1500,,,,-0.0625,0.484375,-1.115234375,0.15268911220555698,3.467808581750851,22.84181843580195,3.3260145412167486,3580,0,75.9722202653101,57.247246186149546,75.3528671219964,0.06057598946287579,0.045645744847795336,0.43359375,,
3.789679999999935,1500,,,,0.3125,-0.2734375,-0.98828125,0.15331860667064678,3.50961834418965,22.84182845212123,3.3223837359746544,3579,0,75.8893193492507,57.46574920232238,75.72310530004744,0.06107322001203135,0.04624653869984015,0.435546875,,
3.7975299999999117,1500,,,,-0.25390625,0.5859375,-1.6484375,0.15331860667064678,3.50961834418965,22.841738880603128,3.317399449821827,3570,0,75.77517199548664,57.321152376174524,75.64635073291383,0.06122728170497178,0.04631620426277212,0.439453125,,
3.8054250000000467,1500,,,,-0.1875,0.091796875,-0.974609375,0.15331860667064678,3.50961834418965,22.84191588909586,3.3190514173637906,3562,0,75.8134933070081,57.194613235513444,75.44120543806474,0.06136274284674151,0.04629279289344164,0.4375,,
3.8238249999999536,1500,,,,0.5,-0.87109375,-0.5859375,0.15331860667064678,3.50961834418965,22.84156840174006,3.3173335688668844,3580,0,75.77310162466141,57.482458096873785,75.86129756389083,0.06105546736145096,0.04631746977409456,0.439453125,,
3.8326450000000185,1500,,,,-0.34375,0.392578125,-1.03515625,0.15331860667064678,3.50961834418965,22.84185208814879,3.3169101382286628,3576,0,75.76437076710027,57.41192834222921,75.7769486645821,0.06113047315305308,0.046322807259605164,0.44140625,,
3.8488300000000746,1500,,,,0.03125,0.166015625,-1.060546875,0.15331860667064678,3.50961834418965,22.841888964995146,3.3146847883607893,3579,0,75.71366188969559,57.46553891404247,75.8985069270086,0.06107344350218959,0.04635383174707204,0.44140625,,
3.8569199999999255,1500,,,,0,-0.296875,-0.98046875,0.15331860667064678,3.50961834418965,22.841795881124316,3.315670439575132,3582,0,75.7358673898529,57.510436473216274,75.93553550681527,0.06102576435538178,0.046340240960386345,0.44140625,,
3.8651300000000046,1500,,,,0.0625,-0.017578125,-0.751953125,0.15331860667064678,3.50961834418965,22.841906039088695,3.315969754196742,3576,0,75.74306955382201,57.418561676250384,75.80701708352277,0.06112341099692345,0.04633583461646959,0.44140625,,
3.8751549999999115,1500,,,,-0.0625,-0.11328125,-0.927734375,0.15331860667064678,3.50961834418965,22.841790126304122,3.320610203817988,3576,0,75.84868136687444,57.41790234853719,75.70059401667257,0.06112411287485954,0.0462713165336901,0.439453125,,
3.8883600000001026,1500,,,,-0.0625,0.171875,-0.98046875,0.15331860667064678,3.50961834418965,22.841942745324786,3.3243503536175854,3575,0,75.93462044273309,57.39733168919569,75.5878298390686,0.061146019177234515,0.046218948929052275,0.439453125,,
3.904594999999972,1500,,,,-0.0625,-0.375,-1.06640625,0.15331860667064678,3.50961834418965,22.84200351035062,3.3247041570918094,3564,0,75.94290402716841,57.2223170773986,75.34912946827454,0.061333034442533296,0.04621390752892583,0.44140625,,
3.912585000000079,1500,,,,-0.1875,0.45703125,-1.005859375,0.15331860667064678,3.50961834418965,22.84191413334086,3.3223901433702743,3574,0,75.88975037232184,57.38967226104846,75.62242856181453,0.06115417994069465,0.046246276038215316,0.443359375,,
3.920484999999986,1500,,,,0,-0.25390625,-1.08203125,0.15331860667064678,3.50961834418965,22.842015457153984,3.3193530608868733,3569,0,75.82071392452934,57.30289906775439,75.57683923260433,0.061246785089178676,0.04628838430198724,0.4453125,,
3.928469999999972,1500,,,,-0.3125,-0.125,-0.958984375,0.15331860667064678,3.50961834418965,22.841851328615473,3.3174974524627587,3573,0,75.77778359221492,57.369035840527005,75.70693298348311,0.061176177928902245,0.04631460802649041,0.44921875,,
3.9386550000000278,1500,,,,0.125,0.138671875,-1.12109375,0.15282596779545274,3.4934582463139248,22.841860495460296,3.315563747397051,3589,0,75.73364458184899,57.43735906703077,75.84127158300886,0.06082205559341569,0.04612822036497104,0.453125,,
3.9465100000000093,1500,,,,-0.1875,0.392578125,-1.0546875,0.15282596779545274,3.4934582463139248,22.842028612468564,3.312859639059202,3568,0,75.67243466448257,57.108537510291264,75.46808525918301,0.06117225897589104,0.046165532558893684,0.453125,,
3.954454999999958,1500,,,,0.6875,-0.77734375,-0.53515625,0.15282596779545274,3.4934582463139248,22.842125558506847,3.3113187437816074,3565,0,75.63755850969665,57.05152953055959,75.42751333419316,0.061233384539544335,0.046186819288542576,0.458984375,,
3.9624000000000232,1500,,,,-0.3125,0.29296875,-1.005859375,0.15282596779545274,3.4934582463139248,22.842217685337797,3.311187377240605,3568,0,75.63486286787261,57.103760572435945,75.49925842027524,0.06117737625847747,0.04618846539613202,0.458984375,,
3.9733399999999675,1500,,,,0.1875,-0.09765625,-0.96484375,0.15282596779545274,3.4934582463139248,22.84217400015887,3.312719707808006,3577,0,75.66971997950593,57.24035482424019,75.64499358494116,0.061031386982851335,0.046167188767978505,0.45703125,,
3.98445000000007,1500,,,,-0.0625,0.04296875,-0.962890625,0.15282596779545274,3.4934582463139248,22.84230673624402,3.3086364104515082,3574,0,75.57688776623871,57.190440239885326,75.67186468008163,0.06108465386278917,0.04622389661134608,0.455078125,,
3.993609999999986,1500,,,,0.03125,-0.26171875,-0.8828125,0.15282596779545274,3.4934582463139248,22.842054074797385,3.3070544763835183,3570,0,75.53991717785308,57.13947182271941,75.64142768145852,0.061139141382907915,0.046246519414216966,0.45703125,,
4.002205000000075,1500,,,,0.15625,-0.1328125,-0.875,0.15282596779545274,3.4934582463139248,22.841958775669006,3.305667782846867,3569,0,75.5079272218453,57.11980433464381,75.64742727849428,0.06116019280890818,0.046266112378505704,0.455078125,,
4.009155000000028,1500,,,,-0.0625,-0.046875,-0.7578125,0.15282596779545274,3.4934582463139248,22.841993004423646,3.3064937816585314,3570,0,75.52690782981446,57.13060940378927,75.64272263406076,0.061148625627687,0.04625448527809148,0.453125,,
4.016655000000028,1500,,,,-0.03125,0.283203125,-1.076171875,0.15282596779545274,3.4934582463139248,22.842080572723955,3.3092836737121307,3573,0,75.59092431293242,57.17790921151749,75.64123567904997,0.061098041087697355,0.046215313254427945,0.455078125,,
4.024775000000023,1500,,,,-0.125,-0.2890625,-1.0234375,0.15282596779545274,3.4934582463139248,22.841978388276456,3.3081312545223183,3568,0,75.56426262138068,57.10768231666798,75.57498787860803,0.061173175036982566,0.04623161961915925,0.453125,,
4.032755000000004,1500,,,,0.125,-0.017578125,-0.853515625,0.15282596779545274,3.4934582463139248,22.842077499902924,3.3091124445974383,3561,0,75.5870029153879,56.988162123611986,75.39412852154562,0.06130147237835689,0.046217710870538185,0.451171875,,
4.040655000000028,1500,,,,-0.15625,0.07421875,-1.048828125,0.15282596779545274,3.4934582463139248,22.841910031419577,3.309995706139885,3572,0,75.60662412403236,57.159784264266435,75.60155598336998,0.06111741482722614,0.04620571658619383,0.44921875,,
4.049554999999935,1500,,,,0.0625,0.50390625,-0.796875,0.15282596779545274,3.4934582463139248,22.84180453674678,3.3101008594174757,3570,0,75.6086768277315,57.12984169317903,75.55990144272057,0.06114944734270151,0.046204462144913576,0.44921875,,
4.0577150000000834,1500,,,,0,0.041015625,-1.123046875,0.15282596779545274,3.4934582463139248,22.841231337779103,3.326323248516837,3557,0,75.97731882360596,56.929385769200906,74.92944822305718,0.061364762663641874,0.045980278067255465,0.447265625,,
4.065525000000023,1500,,,,-0.09375,0.138671875,-0.904296875,0.15282596779545274,3.4934582463139248,22.840579720364893,3.340995107500749,3576,0,76.31026509821993,57.23001753361885,74.99648633110809,0.0610424109037141,0.04577966334958278,0.453125,,
4.073760000000009,1500,,,,-0.375,-0.203125,-1.08203125,0.15282596779545274,3.4934582463139248,22.840288777285476,3.348210840364774,3579,0,76.47410248116913,57.278286648529225,74.89893282844784,0.06099096971511156,0.045681585438340375,0.453125,,
4.082614999999991,1500,,,,-0.125,0.263671875,-0.978515625,0.15282596779545274,3.4934582463139248,22.840056886096736,3.349240250459238,3580,0,76.49683784569388,57.2982209951945,74.90273141848556,0.06096975064211706,0.04566800856998531,0.455078125,,
4.090834999999963,1500,,,,0.21875,-0.361328125,-0.86328125,0.15542218327025542,3.576607693170876,22.83985576709614,3.3515850816946404,3598,0,76.54971985705671,58.55362500204142,76.4909722875278,0.0610826006595865,0.04672267514302559,0.45703125,,
4.099579999999958,1500,,,,-0.6875,0.46484375,-1.109375,0.15542218327025542,3.576607693170876,22.840057117926847,3.3490253369907617,3583,0,76.4919299862532,58.3086960029105,76.22855903020029,0.06133918160324402,0.04675797425707063,0.458984375,,
4.114494999999995,1500,,,,0.1875,-0.08203125,-0.966796875,0.15542218327025542,3.576607693170876,22.839920406220507,3.338548191253954,3584,0,76.25217496057175,58.330565231340174,76.49691993900709,0.06131618438782445,0.046904992480808025,0.4609375,,
4.124094999999972,1500,,,,-0.08203125,0.05078125,-1.1484375,0.15542218327025542,3.576607693170876,22.839924131265427,3.3337726348301833,3593,0,76.14311405041023,58.481137984190916,76.8042372754465,0.06115831217473457,0.04697217519634142,0.4609375,,
4.132604999999981,1500,,,,-0.103515625,0.189453125,-0.85546875,0.15542218327025542,3.576607693170876,22.840173816716927,3.330574388756564,3577,0,76.07089794870566,58.21674186634888,76.52958415924606,0.061436067675890806,0.04701676711615222,0.46484375,,
4.142365000000107,1500,,,,0.0625,-0.421875,-0.84375,0.15542218327025542,3.576607693170876,22.840325136140017,3.3260134556653016,3574,0,75.9672287345721,58.16998530823006,76.57247246898365,0.06148544948428665,0.04708092887878624,0.46484375,,
4.150599999999977,1500,,,,-0.125,0.404296875,-1.21875,0.15542218327025542,3.576607693170876,22.840439619956907,3.3212913087911327,3570,0,75.85975359873152,58.10935271780154,76.60103013935074,0.0615496047691338,0.04714763129985545,0.46484375,,
4.158704999999958,1500,,,,0.125,-0.478515625,-0.6640625,0.15542218327025542,3.576607693170876,22.84051852154073,3.3209813284404763,3590,0,75.85293554193564,58.43325853693205,77.0349336112733,0.061208424495278205,0.04715186917444392,0.46875,,
4.166860000000103,1500,,,,-0.25,0.52734375,-0.96875,0.15542218327025542,3.576607693170876,22.840589408778907,3.318054664017511,3585,0,75.78632421670781,58.35634850383416,77.00115965113525,0.06128909338691545,0.047193312647592155,0.470703125,,
4.1747249999999765,1500,,,,0,0.021484375,-1.078125,0.15542218327025542,3.576607693170876,22.840625829078725,3.317009658926401,3571,0,75.76257649097796,58.12455186188942,76.71934423826131,0.06153350999882639,0.04720810535788456,0.470703125,,
4.182704999999958,1500,,,,0.03125,0.052734375,-0.7890625,0.15542218327025542,3.576607693170876,22.840791697282977,3.312283197072036,3577,0,75.65517054673288,58.21326142516313,76.94551608895559,0.061439740801481006,0.047275125643416176,0.466796875,,
4.1906999999999535,1500,,,,0,-0.71484375,-1.30859375,0.15542218327025542,3.576607693170876,22.84081819871848,3.3103521278121204,3580,0,75.61115112509752,58.26371467746904,77.05703961717577,0.06138653728087772,0.04730264835213832,0.46875,,
4.199880000000005,1500,,,,-0.0625,0.125,-0.943359375,0.15542218327025542,3.576607693170876,22.840699506188713,3.312712368648535,3571,0,75.66466776273583,58.12658073404872,76.82129909869973,0.06153136220991942,0.04726919180278649,0.46875,,
4.208905000000028,1500,,,,-0.21875,0.103515625,-1.03515625,0.15542218327025542,3.576607693170876,22.840661274323125,3.31171660963353,3561,0,75.64179731718924,57.9627185781388,76.62789705416881,0.061705313016836794,0.047283483735494326,0.466796875,,
4.216815000000061,1500,,,,0.1875,0.5625,-0.875,0.15542218327025542,3.576607693170876,22.840564094262596,3.3122550553013967,3560,0,75.65377388715686,57.94626699932345,76.59402039315917,0.061722831829919854,0.04727599839904415,0.466796875,,
4.2242750000000235,1500,,,,0,-0.09765625,-1.13671875,0.15542218327025542,3.576607693170876,22.840342596622424,3.312079762727726,3571,0,75.64903648804118,58.12576030010471,76.83608807006208,0.06153223071328037,0.04727895898232989,0.46484375,,
