Time (s),ESC signal (µs),Servo 1 (µs),Servo 2 (µs),Servo 3 (µs),AccX (g),AccY (g),AccZ (g),Torque (N·m),Thrust (N),Voltage (V),Current (A),Motor Electrical Speed (RPM),Motor Optical Speed (RPM),Electrical Power (W),Mechanical Power (W),Motor Efficiency (%),Propeller Mech. Efficiency (N/W),Overall Efficiency (N/W),Vibration (g),App message,90% settling time (s),Max acceleration (RPM/s),
0,1000,,,,-0.0625,0.05078125,-0.95703125,0.0007565112067001473,0.0016586015722682694,22.9744362576932,0.06684172885035261,0,0,1.5356510388264386,0,0,0,0,0.080078125,,
0,1200,,,,-0.0625,0.05078125,-0.953125,0.0007104832271360087,0.0016586015722682694,22.974524019006864,0.0671214184201693,0,0,1.5420826396839895,0,0,0,0,0.080078125,,
0.007925000000046567,1200,,,,-0.0625,0.044921875,-0.955078125,0.0007104832271360087,0.0016586015722682694,22.974375802992732,0.06727356529145125,0,0,1.5455681706129691,0,0,0,0,0.080078125,,
0.016570000000065192,1200,,,,-0.0625,0.046875,-0.95703125,0.0007104832271360087,0.0016586015722682694,22.974318350150174,0.06728829417074217,0,0,1.5459026915171847,0,0,0,0,0.080078125,,
0.025474999999976718,1200,,,,-0.0625,0.046875,-0.95703125,0.0007104832271360087,0.0016586015722682694,22.97420026063736,0.06707989368586169,0,0,1.54110691100125,0,0,0,0,0.078125,,
0.033669999999925496,1200,,,,-0.0625,0.048828125,-0.955078125,0.0007104832271360087,0.0016586015722682694,22.974295849609423,0.06756443975133394,0,0,1.5522454277602573,0,0,0,0,0.078125,,
0.04069499999994878,1200,,,,-0.0625,0.03515625,-0.97265625,0.0007104832271360087,0.0016586015722682694,22.97428342854255,0.06793141591771024,0,0,1.5606756029956819,0,0,0,0,0.078125,,
0.047880000000004655,1200,,,,-0.0625,0.04296875,-0.97265625,0.0007104832271360087,0.0016586015722682694,22.972794079467157,0.11388990978694796,0,0,2.6163694452646467,0,0,0,0,0.078125,,
0.05606500000006054,1200,,,,-0.0625,0.080078125,-0.97265625,0.0007104832271360087,0.0016586015722682694,22.9709775510659,0.1600835484544647,0,0,3.677275597842479,0,0,0,0,0.078125,,
0.06367500000004657,1200,,,,0.0625,0.06640625,-0.921875,0.0007104832271360087,0.0016586015722682694,22.9694666741281,0.20394176606516848,0,0,4.6844335990967165,0,0,0,0,0.080078125,,
0.07036999999999534,1200,,,,-0.5625,0.26171875,-0.92578125,0.0007104832271360087,0.0016586015722682694,22.968659055808757,0.23791633630007544,0,0,5.464619212283569,0,0,0,0,0.083984375,,
0.07835000000009314,1200,,,,0.09375,-0.109375,-1.005859375,0.0007104832271360087,0.0016586015722682694,22.9680443304043,0.26942786183677075,0,0,6.188231074512996,0,0,0,0,0.08984375,,
0.08623999999999069,1200,,,,0.3125,0.01171875,-0.99609375,0.0007104832271360087,0.0016586015722682694,22.96738911771264,0.29387378484471227,0,0,6.74951356802347,0,0,0,0,0.091796875,,
0.09557999999995809,1200,,,,-0.15625,0.0234375,-0.919921875,0.0007104832271360087,0.0016586015722682694,22.966825866619686,0.3074121264108505,1,0,7.060280776565281,0.00004517418516974743,0.0006398355334491949,0,0.00023492005838826623,0.09375,,
0.10414000000001397,1200,,,,0.03125,0.029296875,-0.953125,0.0007104832271360087,0.0016586015722682694,22.9662353869875,0.3183644350390193,1,0,7.311632553951408,0.00004517418516974743,0.0006178399261233945,0,0.00022684421844638725,0.09375,,
0.11216500000003725,1200,,,,-0.125,0.091796875,-0.943359375,0.0007104832271360087,0.006875552017708586,22.965894376506466,0.33443922332056936,1,0,7.680695878141054,0.00004517418516974743,0.0005881522440995394,0,0.0008951730581178363,0.095703125,,
0.11917999999993481,1200,,,,0.3125,-0.22265625,-1.2578125,0.0007104832271360087,0.006875552017708586,22.96494520439631,0.3585086704981649,1,0,8.23313197329133,0.00004517418516974743,0.0005486877328857915,0,0.000835107713566745,0.099609375,,
0.136875,1200,,,,-0.09375,0.134765625,-0.837890625,0.0006354872813612397,0.006875552017708586,22.964142023950075,0.3847578978562114,1,0,8.835635011206515,0.00004040576754634137,0.0004573046249091713,0,0.0007781616158870423,0.1015625,,
0.14605999999993946,1200,,,,0.0625,-0.0625,-0.88671875,0.0006354872813612397,0.006875552017708586,22.964000300845044,0.3839725804473775,1,0,8.817546452909824,0.00004040576754634137,0.00045824275224552193,0,0.0007797579581153926,0.1015625,,
0.15547499999997672,1200,,,,-0.125,0.130859375,-1.00390625,0.0006354872813612397,0.006875552017708586,22.964000220735116,0.3836478791234454,1,0,8.81008998087536,0.00004040576754634137,0.00045863058872330277,0,0.0007804179108991848,0.1015625,,
0.17105999999993945,1200,,,,0,0.1171875,-1.12109375,0.0006354872813612397,0.006875552017708586,22.96433685537011,0.3714527953120371,334,0,8.530167117414464,0.022235784071014175,0.26067231467973806,0.30921113443763504,0.0008060278213860598,0.10546875,,
0.1794549999999581,1200,,,,-0.0625,0.03515625,-0.984375,0.0006354872813612397,0.006875552017708586,22.964582304482626,0.3644153296581812,466,0,8.36864583095047,0.031001648418895706,0.37044999926080857,0.22178020745238478,0.0008215847768679792,0.10546875,,
0.1879649999999674,1200,,,,-0.03125,0.064453125,-1.009765625,0.0006354872813612397,0.006875552017708586,22.964988370592796,0.3550514268978493,521,0,8.153751889671486,0.03465693962748042,0.42504285262077973,0.1983888967581193,0.0008432378260636038,0.10546875,,
0.19590999999991618,1200,,,,0,0.001953125,-0.990234375,0.0006354872813612397,0.006875552017708586,22.965235262697632,0.34644893337334925,539,0,7.9562812614296226,0.03590164301529486,0.4512364738705062,0.1915107900432149,0.0008641665360725515,0.10546875,,
0.20390000000002328,1200,,,,-0.0625,0.10546875,-1.0234375,0.0006354872813612397,0.006875552017708586,22.965305445051413,0.3387399474693279,547,0,7.779266360073786,0.03638954953169764,0.4677761095630165,0.18894303738823529,0.0008838303895848826,0.103515625,,
0.21188000000000465,1200,,,,-0.09375,0.0390625,-0.96875,0.0006354872813612397,0.006875552017708586,22.965631772133893,0.33101647166742715,550,0,7.602002398825124,0.03658177702443428,0.48121238464865423,0.1879501920619154,0.0009044396011728688,0.10546875,,
0.21916500000003725,1200,,,,0.0625,0.01953125,-1.01953125,0.0006354872813612397,0.006875552017708586,22.96594209535958,0.32304439646982014,551,0,7.419018903556272,0.03665789876112464,0.4941070947204737,0.18755990523384952,0.0009267467986114476,0.10546875,,
0.22650500000000465,1200,,,,-0.0625,0.04296875,-1.005859375,0.0006354872813612397,0.006875552017708586,22.966115508386498,0.31694986425953253,604,0,7.279107192951845,0.040194705835402036,0.5521928001599075,0.17105615963117338,0.0009445597977133776,0.10546875,,
0.23460499999998138,1200,,,,-0.03125,0.04296875,-0.970703125,0.0006354872813612397,0.006875552017708586,22.966207780635514,0.30994600599067074,686,0,7.118284374359844,0.04565695241147226,0.6414038834403585,0.15059156721071382,0.0009659001602232159,0.103515625,,
0.24327500000002328,1200,,,,0,0.03515625,-0.984375,0.0006354872813612397,0.006875552017708586,22.966566477082292,0.3023337569321332,719,0,6.943568326847877,0.047846574050457585,0.6890776010002649,0.14369998592705577,0.0009902044156638744,0.103515625,,
0.2521150000001071,1200,,,,-0.0625,0.0625,-1.0078125,0.0006354872813612397,0.006875552017708586,22.96657200003721,0.29374105169142944,732,0,6.746225013037867,0.0487293849266513,0.7223207769156244,0.14109663046348403,0.0010191702773656053,0.103515625,,
0.26067500000004656,1200,,,,-0.03125,0.01171875,-0.94921875,0.0006354872813612397,0.006875552017708586,22.96664235195781,0.2859184007038264,737,0,6.566585650808543,0.049029780851694175,0.7466556207282112,0.1402321588690317,0.00104705129626414,0.103515625,,
0.2690900000000838,1200,,,,0,0.0546875,-1.04296875,0.0006354872813612397,0.0562773428324588,22.967008442623353,0.2780051343772859,739,0,6.384946268335765,0.04915433245702504,0.7698472374120244,0,0.008814066785737804,0.103515625,,
0.2766750000000466,1200,,,,-0.03125,0.0390625,-0.947265625,0.0006354872813612397,0.0562773428324588,22.967057476584483,0.2706053037120091,739,0,6.215007563822313,0.049196933263407724,0.7915828381253159,0,0.00905507229951744,0.1015625,,
0.28509499999997207,1200,,,,-0.0625,0.09375,-0.98828125,0.004522614309914598,0.0562773428324588,22.96716817967096,0.26411603947005957,770,0,6.065997497457471,0.36450245289059313,6.008944992861806,0.15439496328808153,0.00927750841573,0.1015625,,
0.29333499999996276,1200,,,,-0.0625,0.052734375,-0.95703125,0.004522614309914598,0.0562773428324588,22.967407027043077,0.2580463911468769,782,0,5.926656497329887,0.37027418471538404,6.247606637607599,0.15198829720121346,0.009495630944329776,0.1015625,,
0.301,1200,,,,-0.15625,-0.01171875,-0.95703125,0.004522614309914598,0.0562773428324588,22.966654719280235,0.2801257318936549,787,0,6.43355096238724,0.37252267969164155,5.790312097775206,0.15107091702186506,0.008747477584536995,0.1015625,,
0.3115200000000186,1200,,,,0.25,-0.02734375,-1.16015625,0.004522614309914598,0.0562773428324588,22.963971157280614,0.35946858957968086,788,0,8.254826323056134,0.37341435403064754,4.523588255123951,0.15071017550610788,0.0068175077984709885,0.103515625,,
0.3201799999999348,1200,,,,-0.08203125,-0.005859375,-1.025390625,0.004522614309914598,0.0562773428324588,22.9612800321103,0.4389276106743575,789,0,10.078339782519008,0.3738270614507891,3.709212722706534,0.15054379052723338,0.005583989431480815,0.10546875,,
0.3286999999999534,1200,,,,-0.0625,-0.07421875,-0.76953125,0.004522614309914598,0.0562773428324588,22.959938683407735,0.48226135050243835,841,0,11.07269103691339,0.3984356382829639,3.598363188810074,0.14124575571347697,0.005082535279350357,0.107421875,,
0.3371750000000466,1200,,,,0,-0.05859375,-0.845703125,0.004522614309914598,0.0562773428324588,22.958624352711972,0.516446114539229,894,0,11.856892342123817,0.42319086354413304,3.5691549803540736,0.13298335970948919,0.004746382206113406,0.107421875,,
0.3446899999999441,1200,,,,-0.125,0.08984375,-0.828125,0.004522614309914598,0.0562773428324588,22.957789376051533,0.5396241255735946,911,0,12.388577017154569,0.4315025655870844,3.483068031054568,0.13042180353178248,0.004542680144340313,0.109375,,
0.3535350000000326,1200,,,,0.0625,-0.017578125,-0.98828125,0.004522614309914598,0.0562773428324588,22.957406469998485,0.5568505593155424,918,0,12.783844633252908,0.4348530372448817,3.4015826202530386,0.129416924828254,0.004402223622623828,0.111328125,,
0.3602850000000326,1200,,,,-0.125,0.0234375,-1.03515625,0.004522614309914598,0.0562773428324588,22.956885306798267,0.5694400109908049,1019,0,13.072569021417852,0.48243484339630793,3.6904363832839264,0.11665273270120831,0.004304994889700338,0.111328125,,
0.36847500000009314,1200,,,,-0.03125,0.01171875,-0.912109375,0.004522614309914598,0.0562773428324588,22.956539862980463,0.5780123967155676,1159,0,13.269164626497805,0.5487590925407126,4.135596384454153,0.10255382297521304,0.004241212195082423,0.111328125,,
0.3762850000000326,1200,,,,0,-0.00390625,-0.9609375,0.004522614309914598,0.0562773428324588,22.95625629070164,0.5837497476473478,1212,0,13.400708816624922,0.5739152932155059,4.282723407164153,0.09805862206102005,0.0041995795597499375,0.111328125,,
0.3841699999999255,1200,,,,-0.0625,0.07421875,-0.994140625,0.004522614309914598,0.0562773428324588,22.956069281338213,0.5871984502255229,1232,0,13.47976830527153,0.5834591884842857,4.328406655595946,0.0964546346054751,0.004174948823894134,0.111328125,,
0.392125,1200,,,,0,-0.01953125,-0.890625,0.004522614309914598,0.0562773428324588,22.956000895415116,0.587891298760338,1293,0,13.495633180749074,0.612222137505584,4.536446191934824,0.09192307723754191,0.0041700409368517774,0.111328125,,
0.4076799999999348,1200,,,,0,0.0234375,-0.89453125,0.004522614309914598,0.0562773428324588,22.955796325666718,0.5842333633616658,1398,0,13.411542095989635,0.6621416680881783,4.937103155991093,0.08499290339928323,0.004196187316094474,0.111328125,,
0.41598000000009777,1200,,,,0,0.029296875,-0.998046875,0.004522614309914598,0.1164499771832565,22.95600830494548,0.5806128385574019,1410,0,13.328553143881686,0.6678758713381527,5.010865501517194,0.1743587127199818,0.008736880584575038,0.111328125,,
0.4243299999999581,1200,,,,-0.09375,0.041015625,-0.927734375,0.004522614309914598,0.1164499771832565,22.956201971430687,0.5769893014424557,1461,0,13.245482939267717,0.6917425324587614,5.222478754685593,0.16834294801758304,0.008791674695229686,0.111328125,,
0.43296999999997204,1200,,,,-0.0625,0.0703125,-0.974609375,0.031050906836669636,0.1164499771832565,22.95655485512167,0.5701449155370546,1482,0,13.088563028895106,4.818591929211197,36.815286128610005,0.024166806173669772,0.008897078840983114,0.111328125,,
0.4413149999999441,1200,,,,-0.1875,0.05078125,-0.98046875,0.031050906836669636,0.1164499771832565,22.956726537556026,0.5642454440567817,1489,0,12.953228359273403,4.8424285054191145,37.38395071181116,0.02404784645822617,0.008990035067195298,0.111328125,,
0.4492600000000093,1200,,,,-0.03125,0.08984375,-1.0390625,0.031050906836669636,0.1164499771832565,22.956788278069833,0.5585737033439351,1508,0,12.823058245364106,4.903184919623772,38.237250629321686,0.02374986444365877,0.00908129519144596,0.111328125,,
0.4593850000000093,1200,,,,-0.03125,0.044921875,-0.982421875,0.031050906836669636,0.1164499771832565,22.95696648552664,0.5507169830394023,1524,0,12.642791322645902,4.956722675058127,39.205920184568676,0.023493341229119887,0.009210780610977107,0.111328125,,
0.46901499999989754,1200,,,,-0.03125,0.029296875,-0.943359375,0.031050906836669636,0.1164499771832565,22.957130846398677,0.5425303762156141,1530,0,12.454940834927752,4.9755464885472,39.948375142771695,0.023404459681223583,0.009349701353593946,0.111328125,,
0.4791600000000326,1200,,,,-0.09375,0.095703125,-0.9765625,0.031050906836669636,0.1164499771832565,22.957611400093096,0.533818201505845,1543,0,12.255190828467782,5.016500667304895,40.93368057274134,0.02321338815764955,0.009502094158562832,0.111328125,,
0.48736499999999067,1200,,,,-0.09375,0,-0.96484375,0.031050906836669636,0.1164499771832565,22.958160010966125,0.5258182787634378,1550,0,12.071820180541796,5.041637105582429,41.76368625593754,0.02309765156526548,0.009646430732207122,0.111328125,,
0.4957149999999674,1200,,,,0,0.01171875,-0.951171875,0.031050906836669636,0.1164499771832565,22.958250517799996,0.5184336650992839,1553,0,11.902329960210585,5.050626381683188,42.43393015121745,0.02305654158176872,0.009783796750094146,0.111328125,,
0.5041399999998976,1200,,,,0,0.0390625,-0.9453125,0.031050906836669636,0.1164499771832565,22.95871039467421,0.5119391986796075,1558,0,11.753463802166689,5.065469386813533,43.09767292497843,0.022988980544705283,0.009907715643944007,0.109375,,
0.5121750000000466,1200,,,,-0.03125,0.0546875,-1.015625,0.031050906836669636,0.1164499771832565,22.959065701758988,0.5056195662995904,1563,0,11.60855284276718,5.080994820677625,43.76940769015311,0.02291873565966875,0.010031394848308915,0.109375,,
0.5200550000000512,1200,,,,-0.0625,0.09765625,-0.91015625,0.031050906836669636,0.1164499771832565,22.95924277269668,0.4989083097085011,1564,0,11.45455700391322,5.087179925989971,44.41184346327874,0.02289087055645967,0.010166257598916633,0.109375,,
0.5293600000001024,1200,,,,-0.0625,0.013671875,-0.943359375,0.031050906836669636,0.1164499771832565,22.9595050351942,0.4917552273237782,1565,0,11.290456617823354,5.089758987157154,45.080187271809294,0.02287927139125673,0.010314018389604024,0.109375,,
0.5383200000000652,1200,,,,-0.03125,0.029296875,-1.005859375,0.031050906836669636,0.1164499771832565,22.959532280872942,0.4850220387079695,1569,0,11.135879154650432,5.102652808384313,45.82173295454095,0.02282145808390378,0.010457187579538887,0.109375,,
0.5463900000000139,1200,,,,-0.03125,0.080078125,-0.994140625,0.031050906836669636,0.1164499771832565,22.95955529579104,0.48189372225886584,1571,0,11.064065562897001,5.107018987327672,46.15861103041454,0.022801947177445447,0.010525062104997632,0.109375,,
0.5541049999999814,1200,,,,-0.0625,0.08984375,-0.93359375,0.031050906836669636,0.1164499771832565,22.959906418053226,0.4776125301929931,1571,0,10.965938997320743,5.108746082518732,46.587401988711854,0.0227942386061677,0.010619243569721498,0.107421875,,
0.5622750000000233,1200,,,,-0.0625,0.005859375,-0.970703125,0.031050906836669636,0.3832853176612418,22.960300470319545,0.4713831668089462,1573,0,10.823099146584164,5.11530873717191,47.26288346703663,0.07492906828398943,0.03541363822599823,0.107421875,,
0.570344999999972,1200,,,,-0.03125,0.0390625,-0.98828125,0.031050906836669636,0.3832853176612418,22.960480503824357,0.46577747435342925,1574,0,10.694474619012462,5.117909265782603,47.855639927220615,0.07489099508344486,0.035839564945045865,0.107421875,,
0.5792050000000745,1200,,,,-0.0625,0.0703125,-1.01171875,0.031050906836669636,0.3832853176612418,22.96071858150922,0.46253057111533324,1574,0,10.620034278723903,5.118947364526939,48.20085538501697,0.07487580753756444,0.03609077970954507,0.107421875,,
0.5866950000000652,1200,,,,-0.09375,0.080078125,-0.966796875,0.036418600813171775,0.3832853176612418,22.96075221978203,0.45695322863847837,1575,0,10.491989858797508,6.007463844992173,57.257621536442194,0.06380151883573112,0.0365312321894648,0.107421875,,
0.5958599999999861,1200,,,,0,-0.03125,-0.9375,0.036418600813171775,0.3832853176612418,22.96081439785429,0.45388386475726833,1576,0,10.421543176872436,6.011673068985511,57.68505649265705,0.06375684659876597,0.03677817297843484,0.107421875,,
0.6029599999999627,1200,,,,-0.0625,0.08984375,-1.0390625,0.036418600813171775,0.3832853176612418,22.960905830767985,0.4501332699148258,1577,0,10.335467621809983,6.013306717971606,58.18127382337573,0.06373952562834359,0.03708446793954733,0.107421875,,
0.61125,1200,,,,-0.03125,0.03125,-0.966796875,0.036418600813171775,0.3832853176612418,22.961190103498332,0.4469960436421335,1577,0,10.263561133578664,6.014754880383324,58.603001454390125,0.06372417917001046,0.0373442816457994,0.107421875,,
0.6216649999999209,1200,,,,-0.03125,0.037109375,-0.98046875,0.036418600813171775,0.3832853176612418,22.961229523603926,0.4432150711156349,1577,0,10.176762976206529,6.016119136902425,59.11623520139193,0.06370972863722034,0.03766279302734773,0.10546875,,
0.6303150000000606,1200,,,,0,0.041015625,-1.017578125,0.036418600813171775,0.3832853176612418,22.961417466044765,0.4395183345227463,1578,0,10.091963962957493,6.0167523400482965,59.61924123126835,0.06370302382400621,0.03797925944524661,0.10546875,,
0.6385300000000279,1200,,,,0,0.015625,-0.98046875,0.036418600813171775,0.3832853176612418,22.961554290057887,0.43716959708337183,1577,0,10.038093437392574,6.016083067856567,59.93252708174893,0.06371011060487237,0.038183079292077336,0.10546875,,
0.6460750000000699,1200,,,,-0.0625,0.0546875,-0.943359375,0.036418600813171775,0.3832853176612418,22.961660642814365,0.4342163700709184,1577,0,9.970328935123124,6.01510863671201,60.33009217501538,0.06372043146850859,0.038442595039268744,0.10546875,,
0.6544749999999767,1200,,,,-0.03125,-0.005859375,-0.9921875,0.036418600813171775,0.3832853176612418,22.961677567638255,0.43195936459176004,1577,0,9.91851165207789,6.014654021568637,60.64069118987816,0.06372524775103856,0.03864343069869207,0.10546875,,
0.6634949999999954,1200,,,,-0.0625,0.0234375,-0.9609375,0.036418600813171775,0.3832853176612418,22.961807012925792,0.4282149541805848,1577,0,9.83258913794345,6.014465286296148,61.168683059140946,0.0637272474636358,0.03898111802334583,0.103515625,,
0.6724000000000233,1200,,,,-0.0625,0.06640625,-0.978515625,0.036418600813171775,0.3832853176612418,22.961853618427327,0.42619336905607436,1578,0,9.786189753409953,6.018917262138559,61.50419533855139,0.06368011071895979,0.03916593968839484,0.103515625,,
0.6813950000000186,1200,,,,-0.0625,0.0390625,-0.986328125,0.036418600813171775,0.3832853176612418,22.961897844561324,0.4240403089863673,1579,0,9.736770256921185,6.020534269173858,61.832970382497045,0.06366300738851811,0.039364728503149315,0.103515625,,
0.6895199999999022,1200,,,,0,0.05859375,-0.947265625,0.036418600813171775,0.3832853176612418,22.9620123263861,0.4210498682291275,1579,0,9.668152264300467,6.021120943362269,62.27788701254927,0.0636568043171062,0.039644112668406985,0.103515625,,
0.6980649999999441,1200,,,,0,0.044921875,-0.96484375,0.036418600813171775,0.3832853176612418,22.962109842032095,0.41882716030780187,1580,0,9.617155259814131,6.026700402820536,62.66614440554443,0.06359787147903714,0.039854333979905975,0.1015625,,
0.7066699999999255,1200,,,,-0.125,-0.046875,-0.94140625,0.036418600813171775,0.3832853176612418,22.96213742250174,0.4155113813888419,1581,0,9.54102944006412,6.028913158304964,63.1893360792779,0.0635745295374271,0.040172323130224605,0.1015625,,
0.7151350000000093,1200,,,,-0.03125,-0.001953125,-1.015625,0.036418600813171775,0.5318114704472878,22.962465419893114,0.41146527565912017,1581,0,9.448257163809334,6.029835349896633,63.81955153584678,0.08819668193036224,0.056286726877454396,0.1015625,,
0.7234549999999581,1200,,,,-0.03125,0.048828125,-0.982421875,0.036418600813171775,0.5318114704472878,22.962606014643995,0.40917912177885923,1580,0,9.395818962825981,6.027447379969244,64.15031413245076,0.08823162392336,0.056600863910998014,0.1015625,,
0.7317049999999581,1200,,,,-0.0625,0.078125,-0.98046875,0.03508252474262554,0.5318114704472878,22.962742959784666,0.4065161003750145,1580,0,9.33472472192548,5.805402153316026,62.19146601806316,0.09160631019222656,0.05697130727360011,0.1015625,,
0.7394799999999814,1200,,,,-0.03125,0.00390625,-0.97265625,0.03508252474262554,0.5318114704472878,22.96280306483928,0.40473236568814897,1580,0,9.29378960726348,5.805055822339233,62.461665990397954,0.09161177544593993,0.05722224118691639,0.1015625,,
0.7472550000000047,1200,,,,-0.03125,0.08984375,-0.994140625,0.03508252474262554,0.5318114704472878,22.96286122814075,0.40237389843443633,1580,0,9.239655991575962,5.804914919009817,62.82609357212336,0.09161399914850131,0.05755749683020173,0.099609375,,
0.7552700000000186,1200,,,,-0.0625,0.109375,-0.953125,0.03508252474262554,0.5318114704472878,22.9629174251486,0.3994498642278818,1580,0,9.17253424775167,5.804858689961,63.28522230793371,0.09161488657200384,0.05797868463425395,0.099609375,,
0.7629000000000233,1200,,,,-0.0625,0.0390625,-0.986328125,0.03508252474262554,0.5318114704472878,22.962970261025824,0.3982915125386383,1580,0,9.145956157643745,5.804836480480032,63.468885925378416,0.09161523709334697,0.058147170321041365,0.099609375,,
0.773865000000107,1200,,,,-0.0625,0.0546875,-0.96484375,0.03508252474262554,0.5318114704472878,22.96302116377619,0.39663646478382164,1580,0,9.107971535156265,5.804827903886358,63.733487544180875,0.09161537245423551,0.05838967199167511,0.099609375,,
0.7821300000000047,1200,,,,-0.0625,0.06640625,-1.009765625,0.03508252474262554,0.5318114704472878,22.96321676049177,0.39611644161411985,1580,0,9.096107711179716,5.803040859441625,63.7969672710593,0.09164358537679836,0.058465828168861346,0.099609375,,
0.7904899999999907,1200,,,,-0.0625,0.06640625,-0.9609375,0.03508252474262554,0.5318114704472878,22.963156196387615,0.394775004318355,1579,0,9.065280086591981,5.802561396847885,64.00862787935449,0.09165115783801664,0.05866464856765591,0.099609375,,
0.799094999999972,1200,,,,-0.03125,0.0234375,-1.01171875,0.03508252474262554,0.5318114704472878,22.963129536168385,0.3929048125223414,1579,0,9.02232410533448,5.80236584593652,64.31121048406864,0.0916542466586665,0.05894395548624245,0.099609375,,
0.8062149999999674,1200,,,,-0.03125,0.08203125,-0.982421875,0.03508252474262554,0.5318114704472878,22.963167617617998,0.39130008881850803,1579,0,8.98548952832821,5.801331967056168,64.56333791015535,0.09167058073340194,0.059185586803108065,0.099609375,,
0.8141450000000187,1200,,,,0,0.0625,-1,0.03508252474262554,0.5318114704472878,22.96337277552743,0.3909142445889949,1579,0,8.976709521760796,5.800892638035133,64.62159239945284,0.09167752337981934,0.05924347548041994,0.09765625,,
0.8220500000000466,1200,,,,-0.03125,0.0078125,-0.974609375,0.03508252474262554,0.5318114704472878,22.96333421721986,0.38972661940542624,1579,0,8.949422614754045,5.800670479822147,64.81614210797403,0.09168103451096116,0.05942410961468529,0.09765625,,
0.8304200000000419,1200,,,,-0.0625,0.140625,-0.9921875,0.03508252474262554,0.5318114704472878,22.96336785458721,0.38934838950074613,1579,0,8.940750291696734,5.802694181132066,64.90164686202031,0.09164906056509343,0.05948174964031605,0.099609375,,
0.8384249999999301,1200,,,,-0.03125,0.044921875,-0.98828125,0.03508252474262554,0.5318114704472878,22.963204946237184,0.388373015536405,1580,0,8.918289151350626,5.804488341810943,65.0852225500211,0.0916207319457494,0.05963155728884927,0.09765625,,
0.8463499999999767,1200,,,,-0.0625,0.017578125,-0.947265625,0.03508252474262554,0.5318114704472878,22.96314561726999,0.3880689713726613,1580,0,8.9112842991746,5.805211394878325,65.14449769508562,0.09160932036281765,0.059678431592239345,0.09765625,,
0.8548800000000046,1200,,,,-0.0625,0.05078125,-1.0546875,0.03508252474262554,0.5318114704472878,22.96338371034582,0.38842025742281844,1580,0,8.919443412071479,5.8060130712493745,65.09389434986021,0.09159667123051264,0.05962384039877869,0.09765625,,
0.8637849999999162,1200,,,,-0.03125,0.060546875,-0.96875,0.03508252474262554,0.5915096063897329,22.96341923121001,0.38655777638998645,1581,0,8.876688276327593,5.807481103702336,65.42396131212314,0.10185304021267305,0.06663629362396045,0.09765625,,
0.8715249999999068,1200,,,,-0.09375,0.06640625,-0.958984375,0.03508252474262554,0.5915096063897329,22.963446601187613,0.3869660652972532,1581,0,8.886074576925152,5.807935953564971,65.35997310496003,0.10184506356800617,0.06656590615677828,0.09765625,,
0.8795699999999488,1200,,,,0,-0.01171875,-0.9453125,0.03250456064668589,0.5915096063897329,22.963473616386192,0.38588406445807805,1581,0,8.861238533166944,5.381327476448297,60.728841191966524,0.10991890179114917,0.06675247530870063,0.09765625,,
0.8876100000001025,1200,,,,-0.03125,0.095703125,-1.0078125,0.03250456064668589,0.5915096063897329,22.963498930828703,0.3844569478260279,1580,0,8.828476710352659,5.3790204747663335,60.92807005379149,0.10996604477796272,0.06700018879770084,0.09765625,,
0.8953949999999022,1200,,,,-0.0625,0.12109375,-1,0.03250456064668589,0.5915096063897329,22.963523863267696,0.3843449201042127,1580,0,8.825913744538804,5.378075744995103,60.935058971348845,0.10998536176070006,0.06701964504873395,0.09765625,,
0.9025549999999348,1200,,,,-0.0625,-0.013671875,-0.94140625,0.03250456064668589,0.5915096063897329,22.96354655065808,0.38269460235826824,1580,0,8.788025315939676,5.3777176042414885,61.193697228971466,0.10999268647412802,0.06730859153498976,0.09765625,,
0.9099249999999302,1200,,,,-0.03125,0.052734375,-1.03125,0.03250456064668589,0.5915096063897329,22.963480416899497,0.3832313432259982,1579,0,8.8003254453123,5.375580903821019,61.08388760423,0.11003640666430704,0.06721451497055878,0.09765625,,
0.9181600000000326,1200,,,,0,0.00390625,-0.9453125,0.03250456064668589,0.5915096063897329,22.963638702050375,0.3836118212894843,1578,0,8.809123265927234,5.372391989025503,60.98668195284941,0.11010172146746626,0.06714738669597577,0.09765625,,
0.9297600000000094,1200,,,,-0.0625,0.052734375,-0.96875,0.03250456064668589,0.5915096063897329,22.963478703119595,0.38355020680297275,1578,0,8.80764700549718,5.3712265170846285,60.98367150423088,0.11012561181478342,0.06715864135115199,0.09765625,,
0.9483399999999674,1200,,,,-0.03125,0.060546875,-0.955078125,0.03250456064668589,0.5915096063897329,22.963381787449258,0.380702317779763,1579,0,8.742212670543529,5.374658281811157,61.47938152912721,0.11005529568112478,0.06766131512480776,0.095703125,,
0.9550899999999674,1200,,,,-0.0625,0.0546875,-0.966796875,0.03250456064668589,0.5915096063897329,22.963494569279113,0.3796461136012411,1579,0,8.718001467930021,5.375351827922772,61.65807436138321,0.11004109597386359,0.06784922078364589,0.095703125,,
0.9631149999999907,1200,,,,-0.0625,0.0546875,-0.9765625,0.03250456064668589,0.5915096063897329,22.963516207375488,0.3786424358796348,1579,0,8.694961713122128,5.375653264666374,61.82492162735609,0.1100349254810882,0.06802900644140246,0.095703125,,
0.9718949999999023,1200,,,,-0.03125,0.025390625,-0.95703125,0.03250456064668589,0.5915096063897329,22.963543990945023,0.377598488176177,1579,0,8.670999494147976,5.373211526270641,61.967614343617484,0.11008492844507076,0.06821700390928871,0.095703125,,
0.9794200000000419,1200,,,,-0.0625,0.080078125,-0.9765625,0.03250456064668589,0.5915096063897329,22.963751755339544,0.3772062283818266,1578,0,8.66207018912818,5.372456340653184,62.02277542608912,0.1101004026619632,0.06828732548624929,0.095703125,,
0.9873549999999813,1200,,,,-0.0625,0.01953125,-1.00390625,0.03250456064668589,0.5915096063897329,22.96363174977673,0.3757310572931717,1578,0,8.628149636634657,5.372135424139759,62.26289123834805,0.11010697975553205,0.06855578905101682,0.095703125,,
0.9957399999999906,1200,,,,-0.03125,0.02734375,-0.982421875,0.03250456064668589,0.5915096063897329,22.963452494778608,0.37701526018606657,1578,0,8.657572017089336,5.370568821205839,62.03319834481049,0.11013909812572198,0.06832280519551458,0.095703125,,
1.0037399999999908,1200,,,,-0.09375,0.11328125,-1.02734375,0.03250456064668589,0.5915096063897329,22.963607367267443,0.3758018717182843,1578,0,8.629766630022887,5.369962139639893,62.22604121133286,0.1101515412973469,0.06854294348260541,0.095703125,,
1.0109949999999954,1200,,,,0,0,-0.91796875,0.03250456064668589,0.6198052918765035,22.963430392586762,0.3767553516633443,1578,0,8.651595292955754,5.369717006098813,62.066206569682116,0.11542606270917845,0.0716405785163295,0.095703125,,
1.0180899999999673,1200,,,,-0.0625,0.025390625,-0.96875,0.03250456064668589,0.6198052918765035,22.96345506569955,0.37586536255699976,1578,0,8.631167363830533,5.369850082549511,62.21464439505849,0.11542320220273836,0.071810134799823,0.095703125,,
1.02670000000007,1200,,,,0.0625,0.02734375,-0.98046875,0.03250456064668589,0.6198052918765035,22.96348168302066,0.37575105901926226,1578,0,8.628552561164444,5.3701512598823165,62.236988438274075,0.11541672885580621,0.07183189619382226,0.095703125,,
1.0450199999999021,1200,,,,-0.0625,0.044921875,-0.970703125,0.0313797772779605,0.6198052918765035,22.963580184292958,0.3760827147099447,1578,0,8.636205575168388,5.18469641165209,60.03442561116893,0.11954514645901979,0.07176824202270318,0.095703125,,
1.0529049999999116,1200,,,,0,-0.009765625,-0.986328125,0.0313797772779605,0.6198052918765035,22.96359812426855,0.3760664214658364,1578,0,8.635838170573267,5.185021229521075,60.040741004030195,0.11953765750227277,0.07177129534322427,0.095703125,,
1.0599749999999768,1200,,,,-0.0625,0.0859375,-1.0234375,0.0313797772779605,0.6198052918765035,22.963552787776138,0.3753081141735999,1578,0,8.618407691506174,5.185175280919935,60.16395912704567,0.11953410604212783,0.07191645070206522,0.095703125,,
1.0680799999999582,1200,,,,-0.0625,0.076171875,-0.966796875,0.0313797772779605,0.6198052918765035,22.963575275993666,0.3756544765312606,1578,0,8.626369849589599,5.185237295209959,60.10914655434867,0.11953267644068478,0.07185007166206661,0.095703125,,
1.0791499999999068,1200,,,,-0.125,0.05859375,-0.96875,0.0313797772779605,0.6198052918765035,22.96379242948784,0.37555024434748263,1578,0,8.624057858039029,5.18572362030696,60.130900159407204,0.11952146648336326,0.07186933368017051,0.095703125,,
1.0872149999999674,1200,,,,-0.041015625,0.033203125,-0.990234375,0.0313797772779605,0.6198052918765035,22.963716081403476,0.3745290371224612,1578,0,8.600578472721622,5.185946466821132,60.29764722535062,0.11951633049857341,0.07206553534071393,0.095703125,,
1.0953300000000745,1200,,,,-0.0625,0.03515625,-1.0078125,0.0313797772779605,0.6198052918765035,22.96372966777495,0.3753148812144038,1578,0,8.618629472500636,5.186002592753537,60.17201005450411,0.1195150370234224,0.07191460009437803,0.095703125,,
1.1046650000000373,1200,,,,-0.0625,0.07421875,-0.966796875,0.0313797772779605,0.6198052918765035,22.96374462151608,0.3756955626895405,1578,0,8.627376957039393,5.187008815569789,60.12266348623515,0.11949185241714658,0.07184168432222977,0.09375,,
1.11354999999993,1200,,,,0,0.021484375,-0.98828125,0.0313797772779605,0.6198052918765035,22.96368541532492,0.37557661881415577,1579,0,8.624623323799677,5.18736763450891,60.146019597103475,0.1194835869648519,0.071864621631202,0.09375,,
1.1217099999999627,1200,,,,0,0.08203125,-0.97265625,0.0313797772779605,0.6198052918765035,22.963636160993765,0.3773687877201016,1579,0,8.665759539719705,5.187488141935862,59.861898061663176,0.11948081131327754,0.07152348147160233,0.09375,,
1.1300050000000046,1200,,,,-0.0625,0.037109375,-0.94140625,0.0313797772779605,0.6198052918765035,22.963325605387524,0.38038807051803425,1580,0,8.73497511971073,5.190788395682549,59.42533693048971,0.11940484655318025,0.0709567323755616,0.09375,,
1.1390150000000139,1200,,,,-0.0625,-0.01171875,-1.044921875,0.0313797772779605,0.6198052918765035,22.963252645751314,0.3833590366923772,1580,0,8.803170413598906,5.19216066764613,58.980576584379385,0.1193732882225104,0.07040705368136968,0.09375,,
1.1462449999999953,1200,,,,-0.03125,0.115234375,-0.96875,0.0313797772779605,0.6198052918765035,22.963481660908094,0.3818381419836185,1580,0,8.768333170876044,5.192619254852457,59.220140859835304,0.11936274574672519,0.07068678616537774,0.09375,,
1.1547299999999814,1200,,,,-0.0625,0.0078125,-0.9921875,0.0313797772779605,0.6198052918765035,22.96330805045192,0.3818567377826233,1583,0,8.768693900843022,5.200797851287242,59.31097504483807,0.11917503998412403,0.07068387822465959,0.09375,,
1.1625749999999535,1200,,,,0,-0.0390625,-0.94921875,0.0313797772779605,0.6337627291974275,22.963276672564167,0.3808110874944861,1586,0,8.744670362115924,5.211870833568572,59.60054087513333,0.12159985337999822,0.07247417031784804,0.09375,,
1.1702600000000094,1200,,,,-0.041015625,0.048828125,-0.96875,0.0313797772779605,0.6337627291974275,22.963311726935167,0.37961877523924187,1587,0,8.717304273216048,5.216216252672714,59.837492063912,0.12149855345293566,0.07270168728016825,0.09375,,
1.1892150000000838,1200,,,,-0.03125,0.0703125,-0.994140625,0.03125215611797013,0.6337627291974275,22.963272787654073,0.37888532440095696,1587,0,8.70044705945798,5.194451560810944,59.7032718584756,0.12200763098433554,0.07284254761466356,0.091796875,,
1.198344999999972,1200,,,,-0.09375,0.0390625,-0.99609375,0.03125215611797013,0.6337627291974275,22.96331303732996,0.37882907399046367,1587,0,8.699170613684851,5.193183334903961,59.69745353349495,0.12203742643511889,0.07285323593957817,0.091796875,,
1.2064000000000232,1200,,,,-0.03125,0.0078125,-0.96484375,0.03125215611797013,0.6337627291974275,22.963277783140253,0.37901385510597946,1587,0,8.703400438457477,5.192735319932408,59.66329317662337,0.1220479554898009,0.0728178294999547,0.091796875,,
1.2227700000000186,1200,,,,-0.03125,0.091796875,-0.998046875,0.03125215611797013,0.6337627291974275,22.963537349664815,0.37698333960840974,1584,0,8.656870999299093,5.184603001746249,59.890034195565846,0.12223939402572713,0.07320921488246046,0.091796875,,
1.2318949999999023,1200,,,,-0.0625,-0.0234375,-0.951171875,0.03125215611797013,0.6337627291974275,22.963557562535836,0.3772112279169651,1584,0,8.662111745506053,5.183847949645244,59.845082838311924,0.12225719877466677,0.07316492188249901,0.091796875,,
1.2393199999999487,1200,,,,-0.03125,0.025390625,-1.001953125,0.03125215611797013,0.6337627291974275,22.963658833574083,0.37650614154945333,1583,0,8.645958583286998,5.179475167161758,59.90631480902421,0.12236041466431355,0.0733016152104311,0.091796875,,
1.2492699999999022,1200,,,,-0.0625,0.07421875,-1.05078125,0.03125215611797013,0.6337627291974275,22.963607878703815,0.3754608582991551,1582,0,8.621935923783374,5.178032309780394,60.05649259694606,0.12239451036262576,0.07350585005499871,0.091796875,,
1.256170000000042,1200,,,,-0.0625,0.0234375,-0.943359375,0.03125215611797013,0.6337627291974275,22.963628162811922,0.37480088172517567,1582,0,8.606788083030985,5.177483450371687,60.15581422969547,0.12240748527200607,0.07363521944346982,0.091796875,,
1.2651149999999907,1200,,,,0,0.11328125,-1.05078125,0.03125215611797013,0.6337627291974275,22.96350930178992,0.37495985422145484,1580,0,8.61039410021217,5.171572478885514,60.06197182958304,0.12254739381202773,0.07360438114926827,0.091796875,,
1.273039999999921,1200,,,,-0.03125,0.0703125,-0.966796875,0.03125215611797013,0.6337627291974275,22.963398024499018,0.37399852363718955,1580,0,8.588276958855788,5.169356469368819,60.19084496382532,0.12259992766078487,0.07379393238406501,0.091796875,,
1.2949450000000653,1200,,,,0.0625,-0.0625,-0.96875,0.03125215611797013,0.6337627291974275,22.963093286625735,0.382993939946682,1579,0,8.794725571207994,5.168880849914483,58.77250868220683,0.12261120880894609,0.07206168334259659,0.091796875,,
1.3148699999999953,1200,,,,0,-0.03125,-0.90234375,0.03125215611797013,0.6553318600653053,22.962724848420965,0.38325276661928326,1580,0,8.800527827274697,5.170837460924595,58.755992395127436,0.1267361167349719,0.07446506311067994,0.091796875,,
1.3228900000000139,1200,,,,-0.0625,0.07421875,-1.021484375,0.03125215611797013,0.6553318600653053,22.96266234905135,0.3845705364942899,1586,0,8.830763378911909,5.191780792908089,58.79198173632639,0.12622487084980183,0.07421010301671707,0.091796875,,
1.3308399999999674,1200,,,,-0.0625,0.048828125,-0.95703125,0.03125215611797013,0.6553318600653053,22.962825220375315,0.38890631230564876,1589,0,8.93038767657531,5.2010528794011694,58.239945092682774,0.12599984565831943,0.07338224092827028,0.091796875,,
1.3388549999999815,1200,,,,-0.03125,0.08984375,-1.05078125,0.031312227751930814,0.6553318600653053,22.96258743437588,0.3917830552215696,1590,0,8.996352660832205,5.214748564399774,57.96514166350373,0.12566892765245624,0.07284417194075227,0.091796875,,
1.3466450000000185,1200,,,,-0.0625,0.0625,-0.93359375,0.031312227751930814,0.6553318600653053,22.962787151151673,0.3906770565570015,1593,0,8.97103409455687,5.223713030610621,58.228660994389514,0.12545326594801492,0.07304975693525952,0.091796875,,
1.3547700000000187,1200,,,,0,0.0234375,-1.005859375,0.031312227751930814,0.6553318600653053,22.962846573624024,0.3881317104196526,1594,0,8.912608916724752,5.227259276486122,58.650158728237564,0.12536815669603318,0.07352862289688906,0.091796875,,
1.362734999999986,1200,,,,-0.09375,0.103515625,-0.96484375,0.031312227751930814,0.6553318600653053,22.962707103079907,0.3865651366748203,1595,0,8.87658200972595,5.2286561867755,58.903936008776036,0.1253346627997445,0.07382704957237674,0.091796875,,
1.37082500000007,1200,,,,0,-0.01953125,-0.9453125,0.031312227751930814,0.6553318600653053,22.96277037420682,0.384014805667463,1594,0,8.818043802837607,5.227326085258222,59.279883408790646,0.12536655440597655,0.07431714728548099,0.091796875,,
1.3804550000000746,1200,,,,-0.03125,0.05078125,-1.017578125,0.031312227751930814,0.6553318600653053,22.962838802180567,0.38536285674786186,1593,0,8.849025159848953,5.224759563805067,59.04333493718138,0.12542813732619743,0.07405695522697456,0.091796875,,
1.3920899999999674,1200,,,,-0.0625,-0.005859375,-0.93359375,0.031312227751930814,0.6553318600653053,22.9629882759723,0.3836139844462209,1593,0,8.808923427337591,5.223817172458972,59.30142560040187,0.12545076491580684,0.07439409202168225,0.091796875,,
1.400085000000079,1200,,,,-0.03125,0.08203125,-0.95703125,0.031312227751930814,0.6553318600653053,22.963114489472908,0.38230007367219665,1590,0,8.778800361068578,5.212430166381247,59.37519879705724,0.12572482299945562,0.07464936359317512,0.08984375,,
1.4086699999999255,1200,,,,-0.0625,0.09765625,-1.029296875,0.031312227751930814,0.6553318600653053,22.963090529128486,0.3806677409337772,1588,0,8.741307796581156,5.205626051362869,59.55202782584615,0.12588915408046547,0.07496954406772113,0.091796875,,
1.4173300000000746,1200,,,,-0.03125,0.02734375,-1.021484375,0.031312227751930814,0.6553318600653053,22.9631398817353,0.37898633808111387,1587,0,8.702716294623244,5.203119684322907,59.78730672327587,0.12594979547363325,0.07530199053715973,0.091796875,,
1.4241649999999209,1200,,,,-0.0625,0.015625,-0.8828125,0.031312227751930814,0.6553318600653053,22.963176963196396,0.37818809360725664,1585,0,8.684400118877319,5.198844116184531,59.864170754682064,0.12605337752389814,0.07546080916295042,0.091796875,,
1.4321049999999813,1200,,,,-0.0625,0.083984375,-0.974609375,0.031312227751930814,0.6553318600653053,22.963302044450856,0.3775013273586019,1584,0,8.668677002316695,5.195194347295116,59.93064853964112,0.12614193353642383,0.07559767884882186,0.08984375,,
1.439734999999986,1200,,,,-0.0625,0.01953125,-0.984375,0.031312227751930814,0.6553318600653053,22.963335736444954,0.3764697964126417,1584,0,8.645002329654572,5.193555845840517,60.07581777075166,0.1261817297276501,0.07580470601116544,0.08984375,,
1.447204999999958,1200,,,,0,0.041015625,-1.037109375,0.031312227751930814,0.6553318600653053,22.963367951064672,0.37737929293519884,1584,0,8.665899560783592,5.192901169297926,59.92339436747835,0.12619763764036845,0.07562190808567928,0.08984375,,
1.4540400000000373,1200,,,,0,0.03515625,-1.0078125,0.031312227751930814,0.6553318600653053,22.96356571875194,0.3773076248411618,1581,0,8.664328439226221,5.1853650217287255,59.84728139174524,0.12638104691168436,0.0756356207710693,0.08984375,,
1.462265000000014,1200,,,,-0.0625,0.041015625,-0.99609375,0.031312227751930814,0.6663914155097764,22.963587415046998,0.3772275132253977,1580,0,8.662496975312218,5.181755036602896,59.81826084754428,0.12860341926673857,0.07692832879583869,0.08984375,,
1.4695999999999767,1200,,,,-0.0625,-0.03515625,-0.95703125,0.031312227751930814,0.6663914155097764,22.96354778138556,0.37688100144255865,1580,0,8.654524884522637,5.180458684283591,59.858383370623734,0.12863560084582204,0.07699919110539746,0.08984375,,
1.4779800000000978,1200,,,,-0.03125,0.060546875,-1.00390625,0.031312227751930814,0.6663914155097764,22.963372248611417,0.37585596562397117,1580,0,8.630920450484547,5.179537483193352,60.0114149227568,0.12865847919280327,0.0772097737817019,0.08984375,,
1.4870649999999441,1200,,,,-0.0625,0.0390625,-1.046875,0.031320693014026534,0.6663914155097764,22.963333530906908,0.3745367433679617,1579,0,8.60061215753819,5.17990531247897,60.22717008508436,0.12864934304964323,0.0774818586518523,0.08984375,,
1.4961049999999814,1200,,,,-0.09375,0.08203125,-0.958984375,0.031320693014026534,0.6663914155097764,22.963519928555897,0.37520852537170085,1579,0,8.616108449737123,5.1795312912033165,60.11450902015218,0.12865863300054692,0.07734250554031825,0.08984375,,
1.5049749999999766,1200,,,,-0.03125,0.01171875,-0.98046875,0.031320693014026534,0.6663914155097764,22.963401607287608,0.37605751258481007,1579,0,8.635559688922607,5.179239358724897,59.97572300228141,0.12866588495995648,0.07716829476201757,0.08984375,,
1.5130050000000046,1200,,,,-0.03125,0.09375,-0.9765625,0.031320693014026534,0.6663914155097764,22.96333132783732,0.37636663956720107,1579,0,8.642631845126365,5.178825288911473,59.92185461228278,0.12867617236221612,0.07710514892353754,0.08984375,,
1.5209599999999628,1200,,,,0,0.06640625,-0.91015625,0.031320693014026534,0.6663914155097764,22.963363364445826,0.3766471528685895,1579,0,8.649085431505394,5.178669010369406,59.87533654720816,0.12868005546897102,0.07704761628118054,0.087890625,,
1.528344999999972,1200,,,,-0.03125,-0.0234375,-0.9609375,0.031320693014026534,0.6663914155097764,22.963202482143323,0.3762903499163055,1579,0,8.640831497204687,5.178606307273821,59.93180527764142,0.12868161354026264,0.07712121405507726,0.087890625,,
1.5352700000000186,1200,,,,-0.03125,0.060546875,-1.009765625,0.031320693014026534,0.6663914155097764,22.963237159141308,0.37541623176179806,1578,0,8.620771963337326,5.176855191240894,60.05094686713878,0.12872514120875808,0.07730066615192067,0.087890625,,
1.546329999999958,1200,,,,-0.0625,-0.01171875,-0.94140625,0.031320693014026534,0.6663914155097764,22.96327505746972,0.3751064257953667,1578,0,8.61367203136336,5.176036639131833,60.09094170622349,0.1287454981426772,0.07736438223830318,0.087890625,,
1.555,1200,,,,-0.0625,0.048828125,-0.984375,0.031320693014026534,0.6663914155097764,22.962878322699822,0.3750012189528456,1578,0,8.611107361678307,5.175670612361705,60.10458812062662,0.12875460310749878,0.07738742388410967,0.087890625,,
1.5631149999999907,1200,,,,0,0.03515625,-1.01171875,0.031320693014026534,0.6663914155097764,22.962797625630508,0.3737895095954993,1579,0,8.583252863425123,5.177959513189557,60.32630746851033,0.1286976875373998,0.0776385626886745,0.087890625,,
1.5705849999999628,1200,,,,-0.03125,0.099609375,-0.986328125,0.031320693014026534,0.6663914155097764,22.962489932424656,0.37358141912221554,1579,0,8.57835957553479,5.178751987145128,60.369957001042074,0.12867799368726587,0.07768284945880605,0.087890625,,
1.5783800000000046,1200,,,,-0.125,0.109375,-0.90625,0.031320693014026534,0.6663914155097764,22.96249769828315,0.37319947245660107,1579,0,8.569592027285188,5.17907897053497,60.43553711827845,0.12866986954650392,0.07776232676981784,0.087890625,,
1.5858049999999349,1200,,,,-0.03125,-0.03125,-0.951171875,0.031320693014026534,0.6663914155097764,22.962376072739918,0.3730040410295655,1579,0,8.565059066772594,5.17876823110566,60.46389395253844,0.12867759007000448,0.07780348160060965,0.08984375,,
1.593954999999958,1200,,,,-0.0625,0.08984375,-1.04296875,0.031320693014026534,0.6663914155097764,22.962390372163288,0.37324286140331114,1579,0,8.570548287166067,5.177720369606817,60.412942044328396,0.12870363170276428,0.07775365042953687,0.08984375,,
1.6021999999999534,1200,,,,-0.0625,0.08203125,-0.96875,0.031320693014026534,0.6663914155097764,22.962469731937205,0.3727226069359194,1578,0,8.558631580174778,5.177306405296663,60.49222187913054,0.12871392251925098,0.07786191159967747,0.08984375,,
1.6100350000000325,1200,,,,-0.03125,0.017578125,-0.927734375,0.031320693014026534,0.6734461681176074,22.962348584125444,0.3727622481283091,1578,0,8.559496680524497,5.177143979572057,60.48421037830018,0.1300806334100205,0.07867824397314223,0.087890625,,
1.6180549999999347,1200,,,,-0.0625,-0.015625,-0.94921875,0.031320693014026534,0.6734461681176074,22.962621545729473,0.3716457547506156,1577,0,8.533960815415378,5.173877354235909,60.62691716242756,0.13016276227851628,0.07891367006292357,0.087890625,,
1.6270549999999349,1200,,,,-0.03125,0.060546875,-0.984375,0.031320693014026534,0.6734461681176074,22.96277205558576,0.3768088617861106,1577,0,8.652576001719178,5.172476609459561,59.7796148618844,0.13019801131357298,0.07783186972108659,0.087890625,,
1.6366999999999534,1200,,,,-0.0625,0.0546875,-0.99609375,0.03145504055582895,0.6734461681176074,22.962840207918237,0.37891416004736395,1577,0,8.700945309685174,5.194164145769505,59.69654975290777,0.12965438696543882,0.07739919562165076,0.087890625,,
1.6453800000000047,1200,,,,0,-0.01171875,-0.978515625,0.03145504055582895,0.6734461681176074,22.96283094383737,0.3793239578531471,1579,0,8.71035191712911,5.202739120774972,59.730527196538,0.12944069508088166,0.07731560957867384,0.087890625,,
1.6531300000000047,1200,,,,-0.0625,0.0703125,-0.966796875,0.03145504055582895,0.6734461681176074,22.963085086727403,0.3792525125127424,1580,0,8.708807714185253,5.205736184727766,59.77553249049758,0.12936617304836112,0.07732931880223642,0.087890625,,
1.6611800000000512,1200,,,,-0.0625,0.06640625,-1.01171875,0.03145504055582895,0.6734461681176074,22.962866169419023,0.3789688114973784,1581,0,8.702210100798085,5.206922784974502,59.83448715513053,0.12933669192501868,0.07738794631674603,0.087890625,,
1.669125,1200,,,,-0.0625,0.001953125,-0.970703125,0.03145504055582895,0.6734461681176074,22.962823881520723,0.3778533813484345,1583,0,8.676580648941188,5.212972024805698,60.0809493477346,0.1291866069706577,0.07761653989809784,0.087890625,,
1.6773549999999813,1200,,,,0,0.08203125,-1.02734375,0.03145504055582895,0.6734461681176074,22.962948834559093,0.37785424428794984,1584,0,8.676647678505184,5.218210728479081,60.140862252667574,0.1290569130223479,0.07761594028831523,0.087890625,,
1.6860549999999348,1200,,,,-0.03125,0.037109375,-0.953125,0.03145504055582895,0.6734461681176074,22.96289751132973,0.37738496106902997,1585,0,8.665852183345296,5.220339964541816,60.24035321736354,0.12900427418364793,0.07771263043372563,0.087890625,,
1.6967249999999767,1200,,,,-0.03125,0.005859375,-0.99609375,0.03145504055582895,0.6734461681176074,22.963083624288767,0.3769803717011836,1584,0,8.656631800089741,5.218967224449277,60.28865897236352,0.12903820605784158,0.07779540399426783,0.087890625,,
1.7047399999999906,1200,,,,-0.03125,0.0546875,-0.978515625,0.03145504055582895,0.6734461681176074,22.963233585055896,0.3764605614703576,1583,0,8.644751808605115,5.215920988638189,60.33627227384577,0.12911356778305716,0.0779023138000618,0.0859375,,
1.7136899999999442,1200,,,,-0.0625,0.10546875,-0.99609375,0.03145504055582895,0.6734461681176074,22.96312867937057,0.3762987227929659,1583,0,8.64099599337767,5.215077007029913,60.352730298991794,0.1291344628679123,0.07793617409772281,0.0859375,,
1.7213549999999813,1200,,,,-0.0625,0.048828125,-1.01953125,0.03145504055582895,0.6734461681176074,22.96310645962443,0.3749116150475527,1582,0,8.609135329286685,5.21248995082592,60.546033387278676,0.12919855471585123,0.0782246000741408,0.087890625,,
1.7285400000000373,1200,,,,-0.03125,0.0390625,-0.99609375,0.03145504055582895,0.6734461681176074,22.96314455571048,0.37633199405487977,1581,0,8.641765980420981,5.209368368942419,60.281294132992095,0.12927597367323962,0.077929229933255,0.087890625,,
1.7370249999999068,1200,,,,-0.0625,0.05859375,-0.97265625,0.03145504055582895,0.6734461681176074,22.96332340940146,0.3755281717644249,1581,0,8.62337485756775,5.207855863962362,60.3923168130865,0.1293135189815373,0.07809543006548075,0.0859375,,
1.7451749999999302,1200,,,,-0.09375,0.072265625,-0.962890625,0.03145504055582895,0.6734461681176074,22.963356322375873,0.37395468248995467,1581,0,8.587254622437763,5.207289372379122,60.639745778271426,0.1293275867651506,0.07842391983556073,0.087890625,,
1.7541950000000652,1200,,,,0,0.03515625,-0.99609375,0.03145504055582895,0.6734461681176074,22.96339161697555,0.37393138751317784,1580,0,8.586732889344143,5.203603940083966,60.60051019569352,0.1294191825265511,0.07842868490218581,0.087890625,,
1.7633199999999487,1200,,,,-0.03125,0.046875,-0.994140625,0.03145504055582895,0.6785688602049434,22.963421815485493,0.37692599006915856,1579,0,8.655510503177585,5.202349156256324,60.104475112663245,0.13043508611660545,0.078397323873136,0.0859375,,
1.771484999999986,1200,,,,-0.0625,-0.02734375,-0.966796875,0.03145504055582895,0.6785688602049434,22.96297684266364,0.3832258994111379,1579,0,8.800007453686904,5.201810802479932,59.1114363238471,0.13044858530445586,0.07711003243760277,0.0859375,,
1.778939999999944,1200,,,,0,-0.04296875,-1.0390625,0.03145504055582895,0.6785688602049434,22.96290449626245,0.38509407802271256,1580,0,8.842878535711789,5.205599061503743,58.8676983459745,0.13035365424568926,0.07673619596430695,0.087890625,,
1.7855549999999347,1200,,,,0,0.12890625,-0.96484375,0.032208061778868334,0.6785688602049434,22.96295066887152,0.3844241971457862,1581,0,8.827513874979228,5.331844067002868,60.400290982441696,0.12726719905490033,0.07686975855436308,0.087890625,,
1.7931900000000605,1200,,,,-0.0625,0.064453125,-0.93359375,0.032208061778868334,0.6785688602049434,22.96299666377007,0.3829024054090887,1581,0,8.79258665795844,5.332581194630767,60.6486054909005,0.12724960679233094,0.07717511201220291,0.087890625,,
1.8014250000000465,1200,,,,-0.0625,0.04296875,-1.015625,0.032208061778868334,0.6785688602049434,22.963045874706392,0.3819112303342297,1583,0,8.769845102230475,5.337865216407952,60.866128810534505,0.12712364076168592,0.07737523893464889,0.087890625,,
1.8102399999999907,1200,,,,-0.0625,0.05859375,-1.04296875,0.032208061778868334,0.6785688602049434,22.963025221289286,0.3797955746712898,1586,0,8.721255360110886,5.350516557465142,61.35030264034275,0.12682305585209175,0.0778063285829892,0.087890625,,
1.8182850000000326,1200,,,,-0.03125,0.021484375,-0.953125,0.032208061778868334,0.6785688602049434,22.96307325874468,0.3801289078464555,1588,0,8.728927958644762,5.354850920303229,61.34603178847421,0.12672040180093716,0.07773793797128517,0.087890625,,
1.8273250000000698,1200,,,,-0.03125,0.0703125,-0.99609375,0.032208061778868334,0.6785688602049434,22.96312429579634,0.37832902213630143,1588,0,8.687616360022975,5.3566507168727435,61.6584629763575,0.1266778246465727,0.0781075996089621,0.087890625,,
1.8350499999999301,1200,,,,-0.0625,0.03125,-0.98046875,0.032208061778868334,0.6785688602049434,22.962971213251173,0.3778810970293196,1585,0,8.67727275311604,5.3467133154778175,61.61743980627777,0.1269132680520953,0.07820070654817977,0.087890625,,
1.8433249999999535,1200,,,,-0.0625,-0.015625,-0.95703125,0.032208061778868334,0.6785688602049434,22.96312018624171,0.3755320012703425,1584,0,8.62338647895075,5.342783569979897,61.95690733589828,0.1270066158056065,0.07868937126513995,0.087890625,,
1.8540899999999674,1200,,,,-0.03125,0.06640625,-1.001953125,0.032208061778868334,0.6785688602049434,22.963163170781993,0.37500939416554346,1584,0,8.611401908799476,5.3412416479680624,62.025227768200764,0.127043280369666,0.07879888401347922,0.087890625,,
1.8621999999999534,1200,,,,-0.03125,0.064453125,-0.986328125,0.032208061778868334,0.6785688602049434,22.963041990444648,0.3743359556087554,1582,0,8.595892267177073,5.334497428702472,62.05868178539124,0.12720389676333466,0.07894106151097544,0.087890625,,
1.8703600000001024,1200,,,,-0.0625,0.03125,-0.9296875,0.032208061778868334,0.6785688602049434,22.963023242673415,0.37386138892544557,1581,0,8.584987763433173,5.3327037310851235,62.11661423443372,0.12724668281297244,0.07904133108904757,0.087890625,,
1.8783000000000465,1200,,,,-0.0625,0.05078125,-1.03515625,0.032208061778868334,0.6785688602049434,22.96287845377346,0.3732217347506881,1581,0,8.570245331386529,5.332023948723677,62.21553459148224,0.1272629055552858,0.07917729702787421,0.087890625,,
1.8867550000000046,1200,,,,-0.03125,0.025390625,-1.00390625,0.032208061778868334,0.6785688602049434,22.96301273296446,0.37276355944231626,1580,0,8.559774361859063,5.330389241866567,62.27254383734575,0.12730193413930233,0.07927415274268607,0.087890625,,
1.8949899999999906,1200,,,,-0.09375,0.0703125,-0.9921875,0.032208061778868334,0.6785688602049434,22.96286538823025,0.37227022305087143,1580,0,8.54839101996361,5.3291999206764,62.34155536674416,0.1273303441989876,0.07937971702747776,0.087890625,,
1.9033349999999627,1200,,,,0,-0.02734375,-0.96484375,0.032208061778868334,0.6785688602049434,22.962989767210544,0.37299020329570914,1580,0,8.56497022154915,5.328722478456748,62.21530654070319,0.12734175272746873,0.07922606181369891,0.087890625,,
1.911475000000093,1200,,,,-0.03125,0.09765625,-1,0.032208061778868334,0.6871230880421497,22.963039255798588,0.37248547083963746,1580,0,8.553398489105215,5.327907800405405,62.289951850036694,0.12896677528651415,0.0803333422285147,0.087890625,,
1.9192099999999628,1200,,,,-0.0625,-0.02734375,-0.9453125,0.032208061778868334,0.6871230880421497,22.96302126641335,0.3727460396040307,1579,0,8.55937523439871,5.326328539581986,62.228006060259574,0.1290050140422009,0.0802772479562195,0.087890625,,
1.9274849999999861,1200,,,,-0.0625,0.052734375,-0.974609375,0.032208061778868334,0.6871230880421497,22.962970234570218,0.37289384556878974,1579,0,8.562750276450542,5.325687987443782,62.19599796213377,0.12902053024175647,0.08024560635989704,0.087890625,,
1.9354400000000604,1200,,,,0,-0.0078125,-0.96875,0.03282695990888029,0.6871230880421497,22.9629227108705,0.3727119831200887,1579,0,8.558556461801867,5.4277735984517745,63.41926495054101,0.12659391103529918,0.08028492785072858,0.087890625,,
1.944234999999986,1200,,,,-0.03125,0.083984375,-0.994140625,0.03282695990888029,0.6871230880421497,22.963054099885476,0.3725201812256667,1578,0,8.554201074784126,5.424095950817616,63.4085626863114,0.12667974428781523,0.08032580506759832,0.0859375,,
1.960984999999986,1200,,,,-0.09375,0.01171875,-0.943359375,0.03282695990888029,0.6871230880421497,22.963150074598914,0.3728172311294152,1577,0,8.561058028821192,5.422311842542022,63.33693597552501,0.1267214258411263,0.08026146835226657,0.0859375,,
1.9689350000000558,1200,,,,-0.03125,0.078125,-1.017578125,0.03282695990888029,0.6871230880421497,22.963191029539157,0.37295613864994626,1577,0,8.564263057458009,5.421178481662284,63.299999606403546,0.1267479184399512,0.08023143187361381,0.0859375,,
1.9765050000000046,1200,,,,0,0.046875,-1.05078125,0.03282695990888029,0.6871230880421497,22.96305014626143,0.3729814833383734,1577,0,8.56479250552604,5.420289785247574,63.28571044482841,0.12676869969430335,0.0802264722232109,0.0859375,,
1.9846000000000932,1200,,,,-0.0625,0.095703125,-0.953125,0.03282695990888029,0.6871230880421497,22.963100756760152,0.37312633440793797,1577,0,8.568137612010062,5.419868823645293,63.256089818727915,0.12677854582834805,0.08019515082005697,0.087890625,,
1.9934449999999488,1200,,,,-0.0625,-0.04296875,-0.921875,0.03282695990888029,0.6871230880421497,22.96294882793412,0.3729334087136042,1576,0,8.563650780517534,5.418996675543589,63.279047855056255,0.1267989499132186,0.08023716819529442,0.087890625,,
2.005625,1200,,,,-0.0625,0.056640625,-1,0.03282695990888029,0.6871230880421497,22.96278548790088,0.37464995694778375,1576,0,8.603006594443258,5.4178604074447705,62.97636004305988,0.12682554299441945,0.0798701105827313,0.087890625,,
2.013150000000023,1200,,,,-0.0625,0.08203125,-1.0078125,0.03282695990888029,0.6871230880421497,22.96286697952254,0.3751577892468277,1576,0,8.614698410806657,5.4174203035468675,62.885780153963566,0.12683584612998916,0.0797617113537245,0.087890625,,
2.0293800000000046,1200,,,,-0.0625,0.087890625,-1.03125,0.03282695990888029,0.6871230880421497,22.962975712353156,0.374208292086465,1576,0,8.592935922542651,5.4192818589072855,63.06670860526701,0.1267922772669177,0.07996371603790917,0.087890625,,
2.036905000000028,1200,,,,0.0625,0.0625,-0.98828125,0.03282695990888029,0.6871230880421497,22.962960521412462,0.3750304696032214,1577,0,8.61180986782555,5.419489197553062,62.93089699763035,0.12678742645199673,0.07978846474645239,0.087890625,,
2.0441999999999534,1200,,,,-0.0625,0.052734375,-0.96875,0.03282695990888029,0.6871230880421497,22.963005303645247,0.3747790300460245,1576,0,8.60605285464188,5.4188913056017345,62.966047235916356,0.12680141550944965,0.07984183918549065,0.087890625,,
2.053320000000065,1200,,,,-0.0625,0.01171875,-1.01953125,0.03282695990888029,0.6871230880421497,22.96313260679186,0.37613369430436855,1576,0,8.637207900193728,5.417830121415965,62.726637867480825,0.1268262519575952,0.07955384378633955,0.087890625,,
2.061390000000014,1200,,,,-0.01953125,0.048828125,-0.9609375,0.03282695990888029,0.6907024052977455,22.963175413898636,0.3754702578241266,1576,0,8.621989393117165,5.4174672078583574,62.83314628272518,0.12749544737360674,0.08010940095207324,0.087890625,,
2.0702399999999908,1200,,,,0,0.0078125,-0.9375,0.03282695990888029,0.6907024052977455,22.963221452468115,0.3765757922490267,1576,0,8.647393311053026,5.417315381443708,62.646802181639416,0.12749902057828394,0.07987405920520527,0.0859375,,
2.078375,1200,,,,-0.09375,0.072265625,-0.9921875,0.03282695990888029,0.6907024052977455,22.96306639775435,0.3771605638214177,1578,0,8.660763069645682,5.423008101199957,62.61582331245803,0.12736518043277728,0.07975075634138121,0.0859375,,
2.086560000000056,1200,,,,0,0.02734375,-0.98046875,0.03344398030378748,0.6907024052977455,22.962979586495663,0.37741367362766626,1578,0,8.666542483176437,5.527312313934071,63.77759440588602,0.12496171123830296,0.07969757335621935,0.0859375,,
2.0941750000000465,1200,,,,-0.03125,0.0703125,-1.04296875,0.03344398030378748,0.6907024052977455,22.96283635487965,0.37701822926137724,1578,0,8.657407901335503,5.52821156726267,63.85527435307606,0.12494138418797007,0.07978166365375909,0.0859375,,
2.102454999999958,1200,,,,-0.0625,0.0625,-1.005859375,0.03344398030378748,0.6907024052977455,22.962828102302662,0.3770598588351819,1579,0,8.658360722710789,5.529560595874399,63.86382795729935,0.12491090265166424,0.07977288396936852,0.087890625,,
2.1101950000000653,1200,,,,-0.0625,-0.08984375,-0.8984375,0.03344398030378748,0.6907024052977455,22.962820238587078,0.3768869753795686,1579,0,8.654387865905829,5.5305878231877745,63.90501452997802,0.12488770224421311,0.07980950426532007,0.087890625,,
2.1178950000000185,1200,,,,-0.03125,0.060546875,-1.017578125,0.03344398030378748,0.6907024052977455,22.96306933747043,0.3758907253389759,1579,0,8.631604789270956,5.530989934096406,64.078350076586,0.12487862272896814,0.08002016104308729,0.087890625,,
2.125945000000065,1200,,,,0.0625,0.07421875,-0.98828125,0.03344398030378748,0.6907024052977455,22.962918765379538,0.3766268550744565,1579,0,8.648451877935116,5.531152733365916,63.95540856829651,0.1248749471572496,0.07986428265386335,0.087890625,,
2.1349949999999955,1200,,,,-0.0625,0.0703125,-0.978515625,0.03344398030378748,0.6907024052977455,22.96286730393978,0.3747479976537177,1579,0,8.605288542539455,5.530693051980042,64.27086116449864,0.1248853260895517,0.08026487454584719,0.087890625,,
2.1421899999999443,1200,,,,0,-0.044921875,-0.927734375,0.03344398030378748,0.6907024052977455,22.962915997228645,0.37450938725304733,1579,0,8.599827599665298,5.530552661989569,64.31004107808877,0.12488849623380519,0.08031584322976745,0.087890625,,
2.150344999999972,1200,,,,-0.0625,0.11328125,-0.98046875,0.03344398030378748,0.6907024052977455,22.96290381592504,0.3740356562769373,1579,0,8.58894479881371,5.530486504997208,64.39075619348571,0.1248899901796423,0.08041760908664171,0.087890625,,
2.160564999999944,1200,,,,-0.03125,0.044921875,-0.9765625,0.03344398030378748,0.6907024052977455,22.962957413850887,0.37570762580033035,1578,0,8.62735821131201,5.527999235436258,64.07522557934435,0.12494618321763148,0.08005954874947825,0.087890625,,
2.1692149999999675,1200,,,,-0.03125,0.0078125,-0.96484375,0.03344398030378748,0.6907024052977455,22.962894097722288,0.3757071574686736,1578,0,8.627323668709423,5.526864046840441,64.06232406564172,0.12497184650174296,0.08005986929676291,0.087890625,,
2.177195000000065,1200,,,,-0.03125,0.05859375,-1,0.03344398030378748,0.6907024052977455,22.962948732135544,0.37442112290456003,1578,0,8.597813049486033,5.526564216598379,64.27872046983796,0.12497862654401136,0.08033466200326778,0.087890625,,
2.185414999999921,1200,,,,-0.0625,0.025390625,-0.955078125,0.03344398030378748,0.6907024052977455,22.962868973915352,0.37330504847456975,1578,0,8.572154915422665,5.5267768533607065,64.47359978781016,0.12497381812651713,0.0805751193384364,0.087890625,,
2.1933800000000048,1200,,,,-0.0625,0.08203125,-1,0.03344398030378748,0.6907024052977455,22.96285900112688,0.3733161951215221,1578,0,8.572407151412682,5.5270249488748435,64.47459682271418,0.12496820833753507,0.0805727484821952,0.087890625,,
2.202564999999944,1200,,,,-0.03125,-0.001953125,-0.9765625,0.03344398030378748,0.6907024052977455,22.963137327632158,0.3730928331182781,1578,0,8.567381962850368,5.527127006561765,64.51360556268335,0.1249659008156948,0.08062000834009143,0.087890625,,
2.211574999999953,1200,,,,-0.03125,0.099609375,-1.001953125,0.03344398030378748,0.6909228753750801,22.96318557234454,0.3721450636259531,1578,0,8.545636155874726,5.52540965214472,64.65767499762156,0.12504464263693,0.0808509586381235,0.087890625,,
2.2198850000000094,1200,,,,0,0.00390625,-0.96484375,0.03344398030378748,0.6909228753750801,22.9630189510897,0.37221754678773916,1577,0,8.547238580814971,5.52397385491222,64.6287546870549,0.12507714437509035,0.08083580080775062,0.0859375,,
2.2282399999999907,1200,,,,-0.0625,0.017578125,-0.947265625,0.03344398030378748,0.6909228753750801,22.963137110573356,0.37272762017129,1577,0,8.558995446891041,5.523444483469144,64.53379392175601,0.12508913187104725,0.08072476258017523,0.087890625,,
2.2365450000000417,1200,,,,-0.03125,0.0859375,-1.03125,0.03359982627926012,0.6909228753750801,22.963081770724877,0.37255508173342006,1577,0,8.555012805943615,5.549313409258991,64.86621978407318,0.12450601081969531,0.08076234262268549,0.087890625,,
2.2440200000000186,1200,,,,0,0.046875,-0.953125,0.03359982627926012,0.6909228753750801,22.96312655253296,0.37345052050982114,1577,0,8.575591563576328,5.550023370380799,64.71883985186255,0.12449008396295716,0.08056853807143548,0.087890625,,
2.251614999999991,1200,,,,-0.0625,0.05078125,-0.986328125,0.03359982627926012,0.6909228753750801,22.963166547366637,0.3732557240571054,1577,0,8.571133356281235,5.550294407874861,64.75566505808015,0.12448400473942174,0.08061044515994457,0.0859375,,
2.258525000000023,1200,,,,-0.0625,0.017578125,-0.95703125,0.03359982627926012,0.6909228753750801,22.96311315217837,0.37247192398064666,1577,0,8.553114936377169,5.550407822952683,64.89340859136942,0.12448146107712962,0.08078026315728823,0.0859375,,
2.265789999999921,1200,,,,-0.0625,0.109375,-1.0390625,0.03359982627926012,0.6909228753750801,22.963325175420053,0.37289443126364435,1578,0,8.562896081210386,5.55137817937451,64.83061486120253,0.12445970226674928,0.08068799023395558,0.087890625,,
2.273344999999972,1200,,,,-0.0625,0.10546875,-0.984375,0.03359982627926012,0.6909228753750801,22.963354742825338,0.3734934637948811,1578,0,8.576662903248446,5.551802299311728,64.73149710954549,0.12445019439196094,0.08055847398565592,0.087890625,,
2.28154999999993,1200,,,,-0.09375,0.0859375,-0.9921875,0.03359982627926012,0.6909228753750801,22.963191066392483,0.3736011787705171,1578,0,8.579075250736839,5.551996090195657,64.7155541585768,0.12444585049243641,0.08053582177353417,0.087890625,,
2.2898150000000603,1200,,,,0,-0.0078125,-0.974609375,0.03359982627926012,0.6909228753750801,22.96323099076633,0.37402599752262733,1578,0,8.588845377663887,5.552073290189165,64.64283668009512,0.12444412010842523,0.08044420931967074,0.087890625,,
2.298155000000028,1200,,,,-0.03125,0.0234375,-0.9453125,0.03359982627926012,0.6909228753750801,22.963051632982143,0.373516458112277,1577,0,8.57707771340083,5.5505250097335,64.71347462622798,0.12447883293264429,0.08055457796489146,0.087890625,,
2.3066900000000605,1200,,,,-0.125,0.10546875,-0.98828125,0.03359982627926012,0.6909228753750801,22.962968175850953,0.3754142079628257,1577,0,8.620624510212659,5.550010584703835,64.38060929493986,0.12449037075340098,0.08014765920456916,0.087890625,,
2.316444999999949,1200,,,,-0.0625,0.005859375,-0.9453125,0.03359982627926012,0.6909228753750801,22.96262920399581,0.37447727763042876,1577,0,8.59898287154933,5.54980599652579,64.5402610916685,0.12449495996933979,0.08034937221018007,0.087890625,,
2.3239100000000326,1200,,,,-0.03125,0.048828125,-0.9609375,0.03359982627926012,0.6909228753750801,22.962549794498244,0.37495151502102364,1577,0,8.609842834192811,5.549715091276355,64.45779787334122,0.1244969992173378,0.08024802411388679,0.087890625,,
2.331599999999977,1200,,,,0,0.06640625,-1.046875,0.03359982627926012,0.6909228753750801,22.96243577740149,0.3735298029578718,1577,0,8.577154111365564,5.549689865906801,64.70316137322195,0.12449756510171864,0.08055386045349705,0.087890625,,
2.340219999999972,1200,,,,-0.03125,0.046875,-0.955078125,0.03359982627926012,0.6909228753750801,22.96251854054192,0.37502185432736496,1577,0,8.611446283100529,5.549678162404512,64.4453670145448,0.12449782764983323,0.08023308195407046,0.0859375,,
2.347984999999986,1200,,,,-0.0625,0,-0.96875,0.03359982627926012,0.6909228753750801,22.96265829635559,0.3745169184833382,1577,0,8.599904025336954,5.547683701565185,64.50866992492767,0.12454258615720072,0.08034076582011727,0.0859375,,
2.3557850000000324,1200,,,,-0.0625,0.0390625,-1.04296875,0.03359982627926012,0.690234344384192,22.9626587334208,0.3740558155860656,1576,0,8.589316040554209,5.54692106573391,64.57931038448558,0.12443558078518781,0.08035963994400373,0.0859375,,
2.3643950000000187,1200,,,,-0.03125,0.076171875,-0.966796875,0.03359982627926012,0.690234344384192,22.962725708787946,0.3738131236536649,1576,0,8.58376822480434,5.546605965715237,64.61737806115644,0.12444264991071635,0.08041157756212894,0.087890625,,
2.372724999999977,1200,,,,-0.0625,0.01171875,-0.9609375,0.03359982627926012,0.690234344384192,22.96268983892383,0.37358391457427376,1576,0,8.578491559180064,5.546318212450708,64.65377012017282,0.1244491062259487,0.08046103905593456,0.087890625,,
2.3809649999999674,1200,,,,-0.0625,-0.05859375,-0.8828125,0.03359982627926012,0.690234344384192,22.962818802575132,0.3733697423477052,1576,0,8.573621739894518,5.545878180751005,64.68536108777802,0.12445898050554054,0.08050674094617614,0.087890625,,
2.3884899999999907,1200,,,,-0.03125,0.07421875,-1.013671875,0.03366511042585283,0.690234344384192,22.962680524914965,0.37252567008500315,1576,0,8.5541879494918,5.556478497653323,64.95623582812944,0.12422154511633579,0.08068963979511329,0.087890625,,
2.3967050000000745,1200,,,,-0.0625,0.09375,-0.97265625,0.03366511042585283,0.690234344384192,22.962679885599325,0.3725748869705762,1576,0,8.555317862918693,5.5564094780946185,64.94685021789499,0.12422308814808307,0.08067898299557916,0.087890625,,
2.4055100000000094,1200,,,,-0.0625,0.103515625,-0.978515625,0.03366511042585283,0.690234344384192,22.962825293901417,0.37167607015292176,1575,0,8.53473266484539,5.551673408608128,65.04800591441489,0.12432906145270568,0.0808735752470925,0.087890625,,
2.4137299999999815,1200,,,,-0.0625,-0.01953125,-0.958984375,0.03366511042585283,0.690234344384192,22.96288314982541,0.3721946186260072,1574,0,8.546661536502835,5.5500620933611815,64.93836300474563,0.124365157141184,0.0807606971957644,0.087890625,,
2.4225950000000886,1200,,,,-0.03125,0.091796875,-1.013671875,0.03366511042585283,0.690234344384192,22.96272507324575,0.37274397953006283,1574,0,8.559217524656374,5.549392576993771,64.83527917134647,0.12438016139743123,0.08064222487579586,0.087890625,,
2.430475000000093,1200,,,,0,0.015625,-0.9453125,0.03366511042585283,0.690234344384192,22.962787730324717,0.37192912923419097,1574,0,8.540529645329237,5.550648729229881,64.99185600585669,0.12435201326097209,0.0808186813989548,0.087890625,,
2.438515000000014,1200,,,,-0.09375,0.064453125,-0.953125,0.03366511042585283,0.690234344384192,22.962651892816364,0.3727481561470048,1575,0,8.55928615329283,5.551141208980034,64.85518896741713,0.12434098114232904,0.08064157828379802,0.087890625,,
2.446704999999958,1200,,,,0,-0.05859375,-0.953125,0.03366511042585283,0.690234344384192,22.96258707408757,0.3717197233401906,1575,0,8.535646514354868,5.551337181142605,65.03710260033162,0.12433659168260508,0.08086491670237127,0.087890625,,
2.4546600000000325,1200,,,,-0.03125,0.033203125,-1.0078125,0.03366511042585283,0.690234344384192,22.96255838806615,0.37319211251258144,1575,0,8.569445673535903,5.551908502213062,64.78725361849746,0.12432379678250384,0.08054597352962613,0.087890625,,
2.462875,1200,,,,-0.0625,0.11328125,-0.986328125,0.03366511042585283,0.690234344384192,22.962531307489897,0.372997516511392,1575,0,8.564967150508819,5.553117283300003,64.83524321479867,0.12429673445939042,0.08058809009479824,0.087890625,,
2.471685000000056,1200,,,,-0.0625,0.068359375,-0.955078125,0.03366511042585283,0.690234344384192,22.962603102003897,0.3736610152688711,1575,0,8.580229588310905,5.553598792098829,64.72552668829115,0.12428595766878164,0.08044474070070551,0.087890625,,
2.479719999999972,1200,,,,0,-0.0078125,-0.97265625,0.03366511042585283,0.690234344384192,22.962829256811695,0.3731706980265795,1576,0,8.569055022429582,5.555560874543844,64.83282999119636,0.12424206303758048,0.08054964550670955,0.087890625,,
2.488390000000014,1200,,,,-0.03125,0.072265625,-0.984375,0.03366511042585283,0.690234344384192,22.962673045447048,0.373430150358229,1577,0,8.574954447988144,5.559760937166232,64.837206668435,0.12414820568454138,0.08049422869483985,0.087890625,,
2.4953600000001024,1200,,,,-0.03125,0.01953125,-0.95703125,0.03366511042585283,0.690234344384192,22.96273056319975,0.3732464618350903,1577,0,8.570757936786796,5.561078542760536,64.8843262611778,0.12411879082030687,0.08053364118727672,0.087890625,,
2.5033350000000794,1200,,,,-0.0625,0.03515625,-0.9609375,0.03366511042585283,0.690234344384192,22.962792685175913,0.3721973677322385,1578,0,8.546690993203576,5.561691811186132,65.07421194481995,0.12410510467263502,0.08076041884901117,0.087890625,,
2.5115500000000464,1200,,,,-0.03125,0,-0.978515625,0.03366511042585283,0.6852313863012591,22.962851821579672,0.3717311630074025,1577,0,8.536007613602463,5.560613138897838,65.14301990589586,0.12322946574144841,0.08027539539788087,0.087890625,,
2.5207299999999813,1200,,,,0,0.09375,-0.94140625,0.03366511042585283,0.6852313863012591,22.962916701036065,0.37256947185041106,1577,0,8.55528174744999,5.5594453881368056,64.9826101845666,0.12325534985260603,0.08009454352634278,0.087890625,,
2.5277249999999767,1200,,,,-0.09375,0.05078125,-1.00390625,0.03366511042585283,0.6852313863012591,22.9627828622319,0.3730117531394185,1577,0,8.565387892400915,5.559078562199959,64.90165573390892,0.12326348308164303,0.08000004143527303,0.08984375,,
2.5399899999999906,1200,,,,-0.0625,-0.005859375,-0.970703125,0.03348819253991146,0.6852313863012591,22.962724664599246,0.37224160336207407,1576,0,8.547681446712268,5.527898385535398,64.67131958528493,0.12395875222566918,0.08016576080579402,0.08984375,,
2.5483299999999582,1200,,,,0,0.037109375,-1.013671875,0.03348819253991146,0.6852313863012591,22.962669770744313,0.373109960158806,1576,0,8.567600803302229,5.525979446712076,64.49856352530087,0.12400179785485224,0.07997937836192705,0.08984375,,
2.5567449999999954,1200,,,,-0.0625,0.0703125,-0.986328125,0.03348819253991146,0.6852313863012591,22.96254199562828,0.372610583501853,1576,0,8.556086171676856,5.525230288332717,64.57660871419041,0.12401861108816031,0.08008701321517483,0.087890625,,
2.5648950000000186,1200,,,,-0.0625,0.08203125,-0.9296875,0.03348819253991146,0.6852313863012591,22.96254823140104,0.37330384500906166,1576,0,8.572007545988036,5.52690636807811,64.4762191170127,0.12398100142585498,0.0799382621428009,0.087890625,,
2.572855000000098,1200,,,,-0.03125,-0.001953125,-0.98046875,0.03348819253991146,0.6852313863012591,22.96268534946004,0.3731014821085172,1576,0,8.567411937075073,5.5285427577296025,64.52990469391455,0.12394430437265207,0.07998114148520773,0.087890625,,
2.580875,1200,,,,-0.0625,0.119140625,-1.00390625,0.03348819253991146,0.6852313863012591,22.96255506369024,0.3767034541092093,1577,0,8.650073807665027,5.529182108840599,63.920635034825544,0.12392997242858828,0.07921682537483785,0.087890625,,
2.5888950000000186,1200,,,,0,0.00390625,-0.96484375,0.03348819253991146,0.6852313863012591,22.962417104247283,0.38169253067259074,1577,0,8.764583094879729,5.531179272225308,63.10829861897965,0.12388522457446516,0.07818185746924704,0.087890625,,
2.596180000000051,1200,,,,-0.0625,0.078125,-0.9609375,0.03348819253991146,0.6852313863012591,22.962312504150734,0.38340609723370167,1578,0,8.80389062067706,5.534894330016343,62.8687312063707,0.12380207198991564,0.07783279186725761,0.087890625,,
2.60325,1200,,,,-0.0625,0.03125,-1.02734375,0.03348819253991146,0.6852313863012591,22.962385590835826,0.381099527971716,1579,0,8.750954309772066,5.53651034887136,63.267503781716904,0.1237659361444066,0.07830361833063978,0.087890625,,
2.611834999999963,1200,,,,0,0.0078125,-0.96484375,0.03348819253991146,0.6852313863012591,22.962567899901693,0.38082717508611663,1579,0,8.744769866042704,5.537274926339196,63.320990845525756,0.12374884675525394,0.07835899592533804,0.087890625,,
2.622649999999907,1200,,,,-0.0625,0.009765625,-0.91796875,0.03348819253991146,0.6852313863012591,22.962645232868528,0.3804330368479302,1584,0,8.73574886000182,5.554273504526319,63.58096590845861,0.12337011955620238,0.07843991365625366,0.087890625,,
2.6306500000000232,1200,,,,-0.03125,0.1015625,-1.0546875,0.03348819253991146,0.6852313863012591,22.962544953867955,0.3793506585106119,1586,0,8.710856549329337,5.560817251091456,63.83777783046597,0.12322494255080302,0.07866406505730096,0.087890625,,
2.6384549999999583,1200,,,,-0.125,0.05078125,-0.966796875,0.03348819253991146,0.6852313863012591,22.962419659049537,0.3782089342532322,1586,0,8.684592267124593,5.562746342525228,64.05305132841906,0.12318220966915343,0.07890196398686364,0.08984375,,
2.646530000000028,1200,,,,0,-0.1171875,-0.94140625,0.03348819253991146,0.6852313863012591,22.962496066785064,0.37714187078807515,1584,0,8.660118724591136,5.554112704029026,64.13437137134916,0.12337369131962037,0.07912494136546729,0.08984375,,
2.6541900000000607,1200,,,,-0.03125,0.056640625,-0.98828125,0.03348819253991146,0.6724833034104883,22.962669354384186,0.37803607304953185,1583,0,8.680717349466226,5.55062887685745,63.94205286731005,0.121154434628896,0.07746863264149927,0.08984375,,
2.661375,1200,,,,-0.0625,0.015625,-0.98046875,0.03348819253991146,0.6724833034104883,22.96264057449349,0.3776547022610026,1582,0,8.671949189286758,5.549364090293851,63.99211952428736,0.12118204761275247,0.07754696075033138,0.08984375,,
2.669585000000079,1200,,,,-0.03125,0.04296875,-0.97265625,0.03348819253991146,0.6724833034104883,22.96251001871201,0.377558047284641,1582,0,8.669680443418912,5.548768530463393,64.0019959983118,0.12119505431132616,0.07756725381048678,0.08984375,,
2.677875,1200,,,,-0.03125,0.00390625,-0.978515625,0.03348819253991146,0.6724833034104883,22.962711538658745,0.3775732127402758,1581,0,8.670104768879584,5.543121391728198,63.93373020848191,0.1213185236054926,0.07756345757484907,0.08984375,,
2.6865650000000607,1200,,,,0,0.0234375,-0.953125,0.03325875693848976,0.6724833034104883,22.96263534422289,0.37758966142842215,1580,0,8.670453705129441,5.502758055858569,63.46562986205828,0.12220840832617053,0.0775603360886002,0.08984375,,
2.6948000000000465,1200,,,,-0.03125,0.064453125,-0.93359375,0.03325875693848976,0.6724833034104883,22.96260433016959,0.3765410644389192,1580,0,8.646363476771793,5.501958116789442,63.633204081349284,0.12222617641497106,0.07777643227896854,0.08984375,,
2.702320000000065,1200,,,,-0.03125,-0.013671875,-1,0.03325875693848976,0.6724833034104883,22.962671927428275,0.3751318748305315,1579,0,8.614030171254583,5.499204280131162,63.84008612463723,0.12228738362024422,0.07806837102272943,0.08984375,,0.26909500000008846,6654,
2.7107199999999723,1200,,,,-0.0625,0.0390625,-0.953125,0.03325875693848976,0.6724833034104883,22.96273708003112,0.3756925944336967,1579,0,8.62693026889574,5.498100984641467,63.73183523303513,0.1223119228419085,0.07795163313596219,0.087890625,,
2.7208250000000698,1500,,,,-0.0625,0.0703125,-1.021484375,0.03325875693848976,0.6724833034104883,22.962810950268658,0.37569305796492086,1578,0,8.626968665376802,5.49762712171399,63.72605876937967,0.1223224654059166,0.07795128619272851,0.08984375,,
2.7285999999999766,1500,,,,-0.0625,0.0546875,-0.984375,0.03325875693848976,0.6724833034104883,22.96294280606232,0.37489909044904385,1578,0,8.608786372026177,5.4959552469767,63.84123161466212,0.12235967601454148,0.0781159241673936,0.087890625,,
2.7380300000000277,1500,,,,-0.125,0.0546875,-0.93359375,0.03325875693848976,0.6724833034104883,22.958449909956013,0.37362966879085424,1577,0,8.577958035808283,5.493755238807245,64.04502348780237,0.12240867570148463,0.07839666510412366,0.08984375,,
2.745734999999986,1500,,,,0.1875,-0.36328125,-0.75,0.03325875693848976,0.6724833034104883,22.936581434556203,1.0766978009742407,1577,0,24.69576679245326,5.493012871400745,22.242730576316205,0.12242521893800001,0.027230711605844584,0.09375,,
2.7537850000000326,1500,,,,-0.25,-0.17578125,-1.189453125,0.03325875693848976,0.6724833034104883,22.917187071387804,1.6298038612294379,1657,0,37.3505199774652,5.772764918624453,15.455648066231348,0.11649241098331942,0.018004657065449684,0.099609375,,
2.7626750000000464,1500,,,,0.375,-0.0859375,-0.91796875,0.03325875693848976,0.6724833034104883,22.89880415148703,2.116770607266414,1692,0,48.47151556941788,5.891956618668648,12.155503184608609,0.11413582056590961,0.013873783303668308,0.103515625,,
2.7727050000000744,1500,,,,0.40625,-0.1796875,-1.02734375,0.03325875693848976,0.6724833034104883,22.887106856092853,2.4781687555216907,1916,0,56.71811311505558,6.67316301556261,11.765488393497433,0.10077429576381954,0.011856588071720964,0.109375,,
2.7810899999999674,1500,,,,-0.1875,0.294921875,-1.025390625,0.03325875693848976,0.6724833034104883,22.874993785681752,2.819676983400583,2133,0,64.50009347291821,7.429402031925886,11.51843607024428,0.0905164777085248,0.010426082617893342,0.115234375,,
2.789099999999977,1500,,,,-0.09375,0.14453125,-1.048828125,0.03325875693848976,0.6724833034104883,22.867492383448795,3.0277292088330725,2369,0,69.23657462213573,8.252185515363498,11.918824061416203,0.08149153968466816,0.009712833239954761,0.1171875,,
2.7973649999999908,1500,,,,0.125,0.26953125,-0.794921875,0.03325875693848976,0.6724833034104883,22.862066965303956,3.1800726740041596,2528,0,72.70303442761632,8.803981059196296,12.10950977288521,0.07638400161118457,0.009249728140027192,0.12109375,,
2.804984999999986,1500,,,,0.25,0.03125,-1.11328125,0.03325875693848976,0.6668303295584537,22.857744132646314,3.2931782841918564,2761,0,75.27462660324466,9.616505921061004,12.775228991499896,0.06934226787070716,0.008858633508382098,0.123046875,,
2.813494999999995,1500,,,,-0.0625,0.1953125,-0.826171875,0.03325875693848976,0.6668303295584537,22.854468923999967,3.3887612982769793,2853,0,77.44833978232501,9.936295032936671,12.82957783325434,0.06711056056085847,0.008610001601488627,0.125,,
2.8220999999999767,1500,,,,-0.03125,-0.16015625,-0.896484375,0.03325875693848976,0.6668303295584537,22.851440799722585,3.4588846395539523,3452,0,79.04049757383693,12.023987135188086,15.212438565376804,0.05545833691113831,0.008436565431986605,0.130859375,,
2.829435000000056,1500,,,,0.1875,-0.30078125,-1.13671875,0.03325875693848976,0.6668303295584537,22.84937826598834,3.5115639288604372,4589,0,80.2370525157323,15.983532077055633,19.920387870580985,0.041719835537208254,0.00831075305798037,0.1328125,,
2.837494999999995,1500,,,,-0.03125,0.232421875,-0.96484375,0.0330172237778873,0.6668303295584537,22.8479200140923,3.5523911847118224,3783,0,81.1647496470623,13.081479560580014,16.11719326119241,0.05097514592828575,0.008215762784436668,0.134765625,,
2.845589999999967,1500,,,,-0.3125,0.15234375,-1.07421875,0.0330172237778873,0.6668303295584537,22.84681370669758,3.580881523026866,3471,0,81.81173306235031,12.000012510119461,14.667838048332282,0.055569136198493456,0.00815079090245221,0.13671875,,
2.853665000000037,1500,,,,-0.03125,-0.015625,-0.96484375,0.0330172237778873,0.6668303295584537,22.846089889717653,3.5976518369120223,3396,0,82.19227725799989,11.741882946296569,14.285871298393443,0.056790749201666525,0.008113053340343483,0.140625,,
2.8621549999999116,1500,,,,-0.125,0.00390625,-1.09765625,0.0330172237778873,0.6668303295584537,22.845525843557255,3.612365160618957,3387,0,82.52638163328623,11.712152904495746,14.192010691247562,0.056934906416948226,0.008080208005745085,0.142578125,,
2.8770549999999346,1500,,,,0,-0.15625,-0.640625,0.0330172237778873,0.6668303295584537,22.844967450030293,3.6247031631195683,3429,0,82.80622577748838,11.855855648231094,14.317589694390124,0.05624480841734484,0.008052900893591234,0.1484375,,
2.8844799999999813,1500,,,,-0.0625,-0.27734375,-0.51171875,0.0330172237778873,0.6668303295584537,22.844740926180187,3.6270628735308486,3439,0,82.85931166877889,11.890557692158046,14.35029745321716,0.05608066053943253,0.008047741601137548,0.15234375,,
2.892239999999991,1500,,,,0,0.08203125,-0.537109375,0.0330172237778873,0.6668303295584537,22.844801352909897,3.6245913845822684,3453,0,82.80307016625056,11.940038590052144,14.419801785222628,0.05584825580999579,0.008053207788305473,0.154296875,,
2.8995,1500,,,,0.15625,-0.22265625,-0.587890625,0.0330172237778873,0.6668303295584537,22.84485482285081,3.619648406357901,3481,0,82.69034235300954,12.03446176687733,14.553648496823923,0.055410066729679845,0.008064186343693184,0.16015625,,
2.9069899999999906,1500,,,,-0.375,0.07421875,-1.26171875,0.0330172237778873,0.6668303295584537,22.84500011104956,3.6150581183908495,3504,0,82.58600311608957,12.113842352799658,14.668154282477456,0.05504697107143225,0.008074374644588416,0.1640625,,
2.915395000000019,1500,,,,-0.0625,0.23046875,-1.392578125,0.0330172237778873,0.6668303295584537,22.84525542765063,3.6049013066841273,3512,0,82.35489114267041,12.143565180424703,14.745408574928923,0.05491223702849448,0.008097033707484921,0.16796875,,
2.9251199999999953,1500,,,,0.1875,-0.1484375,-0.94140625,0.0330172237778873,0.6668303295584537,22.84545573128326,3.5926453082941965,3510,0,82.07561934883756,12.137012711476038,14.78759808060825,0.05494188276889078,0.008124584801782528,0.169921875,,
2.95229999999993,1500,,,,-0.015625,-0.08203125,-0.9140625,0.0330172237778873,0.6668303295584537,22.846337833133987,3.565646481455861,3548,0,81.46196410886613,12.266435464032423,15.057868538057226,0.05436219279135573,0.008185787524927568,0.177734375,,
2.9602050000000744,1500,,,,-0.21875,0.443359375,-1.05078125,0.0330172237778873,1.4942831484939094,22.846319681257167,3.5570676786317823,3543,0,81.26590531388904,12.248602508226762,15.072252577408218,0.12199621528172504,0.018387577702140282,0.185546875,,
2.9689599999999627,1500,,,,-0.125,-0.369140625,-0.81640625,0.0330172237778873,1.4942831484939094,22.846598997244218,3.5459815385739004,3548,0,81.01361826342898,12.26775191482123,15.14282682070888,0.12180578470034088,0.018444839034778133,0.189453125,,
2.976969999999972,1500,,,,-0.3125,0.88671875,-1.44921875,0.0330172237778873,1.4942831484939094,22.84673406309253,3.5363531470059852,3548,0,80.79411990282611,12.267073970294055,15.183127169462443,0.12181251634354413,0.018494949264762528,0.197265625,,
2.986010000000009,1500,,,,0.0625,-0.263671875,-0.87109375,0.06659145337461474,1.4942831484939094,22.84702065501046,3.526611119337213,3575,0,80.57255708568687,24.93111930336832,30.942445176283417,0.05993646455704956,0.0185458076861676,0.19921875,,
2.99525,1500,,,,0,0.326171875,-1.3046875,0.06659145337461474,1.4942831484939094,22.847296922544935,3.5193958144960398,3579,0,80.4086811617529,24.95575694491007,31.036147570569156,0.0598772921131002,0.018583604741482546,0.203125,,
3.004319999999949,1500,,,,0,-0.265625,-0.8203125,0.06659145337461474,1.4942831484939094,22.847633430402357,3.510007890709968,3567,0,80.19537362476113,24.87495351672946,31.01794080182334,0.06007179661618023,0.018633034312998502,0.208984375,,
3.013125,1500,,,,-0.375,0.87109375,-1.3203125,0.06659145337461474,1.4942831484939094,22.847798512882083,3.500765217135192,3566,0,79.98477832201075,24.867773719325843,31.090632794168236,0.06008914048194978,0.0186820940164149,0.212890625,,
3.0210549999999348,1500,,,,0,-0.341796875,-0.880859375,0.06659145337461474,1.4942831484939094,22.84807050582563,3.4920188677644437,3560,0,79.78589329835539,24.825295270773143,31.114892927174708,0.0601919587338456,0.018728663510805245,0.216796875,,
3.0303249999999533,1500,,,,-0.03125,0.275390625,-1.138671875,0.06659145337461474,1.4942831484939094,22.84835957774668,3.4820046322037994,3559,0,79.55809388797199,24.815516044129865,31.1916925499413,0.060215679006497366,0.018782289462566208,0.220703125,,
3.038829999999958,1500,,,,-0.0625,-0.240234375,-0.955078125,0.06659145337461474,1.4942831484939094,22.848339894811666,3.4748017975051013,3559,0,79.3934525364991,24.819935862377424,31.26194298071002,0.06020495607963979,0.018821239041178505,0.224609375,,
3.0468399999999676,1500,,,,-0.125,0.3359375,-1.00390625,0.06659145337461474,1.4942831484939094,22.848519798705357,3.46359242579052,3570,0,79.13796011532061,24.89680603316446,31.46000477758662,0.06001907017725122,0.018882002345226304,0.2265625,,
3.055099999999977,1500,,,,0,-0.126953125,-0.96484375,0.06659145337461474,1.4942831484939094,22.84868793655844,3.4554851371241573,3570,0,78.95330156756573,24.894410273634755,31.5305500585443,0.06002484622326961,0.018926164185992262,0.228515625,,
3.062895000000019,1500,,,,-0.125,0.66015625,-0.7578125,0.06659145337461474,1.4942831484939094,22.848850828773283,3.4456462032433057,3565,0,78.72905610663533,24.86074875342313,31.577602962431367,0.06010612002537367,0.018980071937734946,0.232421875,,
3.0704350000000558,1500,,,,0.03125,-0.486328125,-0.77734375,0.06659145337461474,1.4942831484939094,22.849005519655037,3.4382751800828952,3565,0,78.56116856780699,24.86254141313267,31.647367098000263,0.06010178620374715,0.019020632912355135,0.236328125,,
3.080314999999944,1500,,,,-0.0625,0.22265625,-1.001953125,0.06659145337461474,1.4942831484939094,22.8491510013348,3.432980837476023,3571,0,78.44069754017845,24.900810135945992,31.744758673508024,0.06000941898419647,0.01904984523790748,0.2421875,,
3.0894100000000324,1500,,,,-0.125,-0.298828125,-0.939453125,0.06659145337461474,1.4942831484939094,22.84932851285545,3.4285454258213774,3579,0,78.33996075584054,24.960344902202255,31.8615744268692,0.0598662860769231,0.019074341295001285,0.244140625,,
3.0983249999999534,1500,,,,0.1875,0.04296875,-0.796875,0.06659145337461474,1.4942831484939094,22.849256477913865,3.4238601802201716,3578,0,78.23265940236709,24.95165629020544,31.894168600192668,0.05988713258608317,0.01910050303682629,0.24609375,,
3.1068800000000047,1500,,,,-0.25,-0.28125,-0.94140625,0.06659145337461474,2.6501395608824048,22.849479171524703,3.419879214170793,3573,0,78.14245887332581,24.916593142262812,31.886113518201785,0.10636043000546949,0.03391420744999156,0.248046875,,
3.11525,1500,,,,-0.0625,0.142578125,-0.931640625,0.06659145337461474,2.6501395608824048,22.849605642937256,3.41528324923259,3570,0,78.03787540389408,24.897729297414823,31.904673427555192,0.10644101432806459,0.03395965801434624,0.25,,
3.1228799999998884,1500,,,,-0.0625,-0.2890625,-0.9921875,0.06659145337461474,2.6501395608824048,22.849657424479933,3.4145809019954587,3569,0,78.02200385876792,24.887189223120487,31.89765449778784,0.1064860935931003,0.033966566222518126,0.25390625,,
3.1312249999999766,1500,,,,-0.03125,0.25390625,-0.900390625,0.06659145337461474,2.6501395608824048,22.849575866168024,3.40791632286132,3570,0,77.8694425647721,24.898085971602914,31.974141783399297,0.10643948952160323,0.03403311329316386,0.255859375,,
3.140085000000079,1500,,,,-0.0625,-0.4921875,-1.01953125,0.12069083878906854,2.6501395608824048,22.84948918949936,3.411827642589635,3566,0,77.95851883578695,45.06637814762996,57.80815082256564,0.058805248387189854,0.03399422667925106,0.2578125,,
3.147930000000051,1500,,,,0.03125,0.482421875,-1.138671875,0.12069083878906854,2.6501395608824048,22.849125523338095,3.4207283534830415,3567,0,78.16065152997567,45.08630988153757,57.68415308596341,0.05877925179163117,0.03390631358626841,0.26171875,,
3.1568549999999815,1500,,,,0,-0.23046875,-0.919921875,0.12069083878906854,2.6501395608824048,22.848842269693225,3.4299448321866235,3585,0,78.37026846438155,45.31459577463204,57.8211567505693,0.05848313364776836,0.03381562437912108,0.267578125,,
3.167170000000042,1500,,,,-0.25,0.98046875,-1.3046875,0.12069083878906854,2.6501395608824048,22.848788979526987,3.420257713305077,3582,0,78.14874674690722,45.276509929847144,57.93632248061481,0.05853232868409281,0.033911478701829416,0.271484375,,
3.1742750000000233,1500,,,,-0.01953125,-0.09375,-0.94921875,0.12069083878906854,2.6501395608824048,22.848753350403367,3.4130035564520527,3574,0,77.98287644542245,45.17499425634902,57.92937669844155,0.05866386049423674,0.033983608731554635,0.27734375,,
3.183055000000051,1500,,,,0.1875,-0.07421875,-0.859375,0.12069083878906854,2.6501395608824048,22.848915832056356,3.4079455135855374,3563,0,77.86786020015002,45.03335431733076,57.833044598346376,0.05884837141395257,0.0340338048852317,0.279296875,,
3.191265000000014,1500,,,,-0.09375,-0.140625,-1.021484375,0.12069083878906854,2.6501395608824048,22.8490682498741,3.4052343511662246,3591,0,77.80643209661282,45.38382660747444,58.32914501351381,0.058393920455485415,0.03406067454155599,0.283203125,,
3.1993050000000514,1500,,,,0.0625,0.3359375,-0.61328125,0.12069083878906854,2.6501395608824048,22.849211558564054,3.402580733976483,3581,0,77.74628703572282,45.26273264741698,58.218513543443805,0.058550145028277274,0.034087024112993594,0.28515625,,
3.2070349999999164,1500,,,,-0.125,-0.466796875,-1.00390625,0.12069083878906854,2.6501395608824048,22.849348619962846,3.3989272028335353,3577,0,77.66327259141862,45.21468005358776,58.218870445312334,0.05861237009178212,0.03412345980866162,0.2890625,,
3.2155849999999626,1500,,,,-0.0625,0.373046875,-0.984375,0.12069083878906854,2.6501395608824048,22.8494787096247,3.393378528631565,3569,0,77.53693044366455,45.104749542825374,58.17195662084767,0.058755221739258096,0.03417906210264408,0.291015625,,
3.2240650000000604,1500,,,,-0.0625,-0.02734375,-0.88671875,0.12069083878906854,2.6501395608824048,22.8496900780118,3.3916472078922375,3569,0,77.49808755429169,45.103783998631314,58.199867147732675,0.05875647952204685,0.034196193022516023,0.294921875,,
3.233914999999921,1500,,,,-0.3125,0.9609375,-1.55078125,0.12069083878906854,2.6501395608824048,22.849803879532185,3.384299172703345,3570,0,77.33057236593446,45.12471091970366,58.35300262122711,0.058729230766666786,0.034270269568699586,0.30078125,,
3.241775000000023,1500,,,,0,-0.4921875,-0.732421875,0.12069083878906854,2.6501395608824048,22.85001704702485,3.3783554148462516,3586,0,77.19547882014555,45.316394066915606,58.703430252044086,0.05848081285922984,0.034330243187646416,0.306640625,,
3.2510050000000046,1500,,,,-0.09375,0.353515625,-1.41015625,0.12069083878906854,2.6501395608824048,22.850116427308386,3.3724145293023415,3581,0,77.06006463570492,45.262718333027706,58.73693273812248,0.05855016354483128,0.034390570179388256,0.3125,,
3.259260000000009,1500,,,,-0.0625,0.150390625,-0.826171875,0.12069083878906854,3.150887502045707,22.850073576334403,3.368740341941996,3567,0,76.97596467294052,45.087297878278,58.57321576916542,0.06988415031107309,0.04093339415015273,0.314453125,,
3.267844999999972,1500,,,,0,0.15625,-1.203125,0.12069083878906854,3.150887502045707,22.85025144796235,3.368244007122598,3556,0,76.96522250084365,44.94775499777681,58.40008452815702,0.07010110965946029,0.04093910729630085,0.314453125,,
3.275040000000037,1500,,,,-0.125,0.029296875,-0.77734375,0.12069083878906854,3.150887502045707,22.850153702786454,3.36706893656628,3569,0,76.93804272841723,45.10682459220843,58.62746567576528,0.0698538975095573,0.04095356978559996,0.3203125,,
3.283015000000014,1500,,,,-0.0625,0.44140625,-1.2265625,0.14264077023951743,3.150887502045707,22.850178416178988,3.3658769442278955,3573,0,76.91088870251075,53.36465595554524,69.38504658548193,0.0590444638989243,0.04096802878241669,0.322265625,,
3.2906999999999536,1500,,,,-0.03125,-0.3125,-0.865234375,0.14264077023951743,3.150887502045707,22.85026721151081,3.3630888465328694,3572,0,76.84747879932775,53.354318215961506,69.42884665778813,0.059055904140540315,0.04100183312810609,0.32421875,,
3.298984999999986,1500,,,,0.03125,0.21875,-1.146484375,0.14264077023951743,3.150887502045707,22.85045306779907,3.363133289884158,3569,0,76.84911940125063,53.3176526249126,69.37965332631373,0.0590965158239817,0.041000957806608646,0.328125,,
3.306109999999986,1500,,,,0.1875,-0.671875,-0.81640625,0.14264077023951743,3.150887502045707,22.850462312679685,3.3602735102877515,3572,0,76.78380320712614,53.35458794985385,69.48677419107332,0.05905560558366823,0.04103583529909443,0.330078125,,
3.3140699999999486,1500,,,,-0.625,0.5078125,-1.109375,0.14264077023951743,3.150887502045707,22.850537645809915,3.357429071622878,3577,0,76.71905939425521,53.425793014642025,69.63822736680032,0.05897689719237608,0.041070465760710925,0.333984375,,
3.32225,1500,,,,0.3125,-0.2109375,-0.884765625,0.14264077023951743,3.150887502045707,22.850478291623844,3.3560383144031833,3573,0,76.68708064912782,53.36744950364692,69.59118674477,0.059041373184423734,0.04108759226944888,0.3359375,,
3.3300849999999627,1500,,,,-0.25,0.3046875,-0.79296875,0.14264077023951743,3.150887502045707,22.85065090565725,3.35227941831306,3565,0,76.60176672609148,53.25176616537869,69.51767360117623,0.05916963377816071,0.041133352880913084,0.33984375,,
3.337290000000037,1500,,,,0.03125,-0.330078125,-1.056640625,0.14264077023951743,3.150887502045707,22.85042909708755,3.3472479609835,3559,0,76.48605220282434,53.16106622945042,69.50426214766433,0.05927058513924544,0.04119558287163573,0.34375,,
3.345364999999991,1500,,,,-0.3125,0.33984375,-0.6015625,0.14264077023951743,3.150887502045707,22.850639372237577,3.3484011106076124,3566,0,76.51310625209433,53.26382692900391,69.61399103770664,0.059156235736601656,0.04118101664392249,0.345703125,,
3.3530750000000697,1500,,,,0.125,-0.111328125,-0.970703125,0.14264077023951743,3.150887502045707,22.85052271531148,3.3476505780270203,3566,0,76.49556557613204,53.271125807562306,69.63949531760026,0.05914813051685892,0.04119045958173606,0.34765625,,
3.3611199999999952,1500,,,,0,-0.1640625,-1.08203125,0.14264077023951743,3.150887502045707,22.850399292531165,3.348450044117814,3562,0,76.51342051918564,53.210106628371136,69.54349481085971,0.05921595917956088,0.04118084749923872,0.34765625,,
3.369390000000014,1500,,,,0.03125,0.03515625,-0.875,0.14264077023951743,3.150887502045707,22.850543584248936,3.345159443041348,3569,0,76.43871164947821,53.31499917075582,69.74868887801271,0.0590994570206056,0.041221096405897044,0.34765625,,
3.37725,1500,,,,-0.1875,-0.2265625,-0.94140625,0.14264077023951743,3.150887502045707,22.85054964653571,3.345759942202245,3570,0,76.45245366468285,53.32396722077418,69.74788206883561,0.059089517645982095,0.0412136870827634,0.34765625,,
3.3881199999999954,1500,,,,0.15625,-0.03125,-0.7890625,0.14264077023951743,3.150887502045707,22.85062061769895,3.349197421252472,3566,0,76.5312396468159,53.26315044570967,69.5966126924297,0.059156987066646745,0.04117125916928486,0.349609375,,
3.3967149999999675,1500,,,,-0.125,0.099609375,-0.966796875,0.14264077023951743,3.150887502045707,22.85044547033927,3.347030653078227,3572,0,76.48114142571805,53.35954812233946,69.76824237667095,0.05905011591967659,0.04119822799854512,0.3515625,,
3.405834999999963,1500,,,,-0.03125,-0.00390625,-1.177734375,0.14264077023951743,3.3518224798618648,22.850533286599166,3.3439434447644274,3582,0,76.41089099309463,53.502638702322365,70.01965034952607,0.06264779758827808,0.04386576882299114,0.35546875,,
3.4129749999999768,1500,,,,-0.125,-0.01171875,-0.73828125,0.14264077023951743,3.3518224798618648,22.85060623332121,3.3414850401206704,3577,0,76.35495888633096,53.43353787257982,69.9804422030086,0.06272881439845479,0.0438979017047432,0.359375,,
3.422015000000014,1500,,,,0.0625,0.1015625,-1.01953125,0.14264077023951743,3.3518224798618648,22.85067768276575,3.3411369408295943,3571,0,76.34724332887903,53.34730334755559,69.87456392859241,0.06283021389150399,0.04390233797209031,0.359375,,
3.4298500000000933,1500,,,,-0.1875,0.26171875,-0.953125,0.14264077023951743,3.3518224798618648,22.85060989673521,3.3365940889541044,3575,0,76.24320991044286,53.40220387849635,70.04191447503835,0.06276562082509023,0.04396224245803656,0.359375,,
3.438385000000009,1500,,,,0.03125,-0.033203125,-1.181640625,0.15130227575666358,3.3518224798618648,22.850678378971093,3.336179415819071,3571,0,76.23396284542527,56.58136064298788,74.22067347819015,0.059238986863728874,0.043967575011916164,0.365234375,,
3.4473499999999766,1500,,,,-0.15625,0.30859375,-1.001953125,0.15130227575666358,3.3518224798618648,22.850825314701606,3.338437799147884,3564,0,76.2860589723252,56.463915332814935,74.01603398243279,0.05936220434068797,0.043937549337524806,0.3671875,,
3.456219999999972,1500,,,,0.03125,-0.0546875,-0.9921875,0.15130227575666358,3.3518224798618648,22.850743074080277,3.3363749003898913,3568,0,76.23864564761958,56.53083941725145,74.1498474127426,0.059291928342372936,0.04396487439394223,0.37109375,,
3.464239999999991,1500,,,,0,1.4140625,-1.22265625,0.15130227575666358,3.3518224798618648,22.85067450887207,3.3351840106378554,3569,0,76.21120425428016,56.54192484755298,74.19109224268357,0.059280303755115706,0.0439807048407009,0.37890625,,
3.4723449999999723,1500,,,,0.0625,-0.41015625,-0.783203125,0.15130227575666358,3.3518224798618648,22.850738622131118,3.3375195723419817,3569,0,76.26478739383346,56.54630672238852,74.14471167457904,0.05927571001794126,0.043949804285862114,0.3828125,,
3.4800950000000883,1500,,,,-0.8125,0.4453125,-1.13671875,0.15130227575666358,3.3518224798618648,22.850735095179356,3.340031650056289,3576,0,76.32217844495106,56.65200765862727,74.227451067174,0.05916511379542313,0.043916755891335514,0.388671875,,
3.487400000000023,1500,,,,0.15625,-0.080078125,-1.193359375,0.15130227575666358,3.3518224798618648,22.850532262985954,3.3421734020063085,3579,0,76.37044115103868,56.71107748474569,74.25788908641702,0.05910348786378548,0.04388900246409377,0.392578125,,
3.495484999999986,1500,,,,-0.1875,0.28125,-1.00390625,0.15130227575666358,3.3518224798618648,22.850308397473277,3.346469573108391,3577,0,76.46786178828748,56.67017889861579,74.10979929779586,0.05914614255688781,0.04383308754129778,0.392578125,,
3.5033350000000794,1500,,,,0.375,-0.3125,-0.703125,0.15130227575666358,3.3518224798618648,22.850392080419013,3.34658438958605,3571,0,76.47076543225097,56.58512747349109,73.9957644645554,0.05923504336774926,0.043831423170876994,0.39453125,,
3.512149999999907,1500,,,,-0.25,0.0390625,-0.75,0.15130227575666358,3.3518224798618648,22.85026387405434,3.3440259141093365,3565,0,76.4118745390741,56.479044148371734,73.91396231156521,0.059346303224547335,0.04386520419869913,0.396484375,,
3.519590000000084,1500,,,,0.5625,-0.109375,-1.05078125,0.15130227575666358,3.3518224798618648,22.850283558539388,3.3412962934043176,3564,0,76.34956775738527,56.464835406806806,73.95567134870254,0.05936123705512129,0.04390100138500972,0.3984375,,
3.526975000000093,1500,,,,-0.125,0.025390625,-1.017578125,0.15130227575666358,3.3518224798618648,22.85027139005583,3.3369292658256837,3570,0,76.24973933353662,56.565735653123205,74.18482495486266,0.05925535027805827,0.04395847788016825,0.396484375,,
3.5376450000000186,1500,,,,-0.25,0.61328125,-1.1875,0.15130227575666358,3.3518224798618648,22.85022506147874,3.336764614429426,3575,0,76.24582241689072,56.63608958035873,74.28090849448579,0.059181742678510584,0.043960736124466486,0.3984375,,
3.545375,1500,,,,-0.041015625,-0.1640625,-0.8515625,0.15130227575666358,3.3518224798618648,22.849926926339215,3.334718378572626,3574,0,76.1980712703049,56.62843436180444,74.31741173726148,0.05918974306170559,0.04398828505739491,0.3984375,,
3.5551750000000464,1500,,,,0.3125,0.53515625,-1.30859375,0.15130227575666358,3.399189099212946,22.849967371261975,3.332289753676202,3572,0,76.14271214309183,56.60188885167187,74.33658095249129,0.060054340379358966,0.04464234335158684,0.400390625,,
3.563569999999949,1500,,,,-0.0625,-0.0703125,-1.046875,0.15130227575666358,3.399189099212946,22.849932034469855,3.3289672151677925,3578,0,76.06667461156245,56.69003532277172,74.5267695903123,0.05996096280165011,0.04468696859131864,0.3984375,,
3.571679999999935,1500,,,,-0.0625,0.251953125,-1.123046875,0.15130227575666358,3.399189099212946,22.85003209040336,3.3301873964196136,3579,0,76.09488887524499,56.71329802730458,74.52970740292967,0.05993636796746344,0.04467039967409378,0.40234375,,
3.5795799999999582,1500,,,,-0.125,-0.578125,-0.44921875,0.15130227575666358,3.399189099212946,22.850130621671514,3.3319887697785413,3578,0,76.13637861938224,56.688043701731175,74.45592334398205,0.059963069410157464,0.04464605699472558,0.40625,,
3.5880500000000466,1500,,,,-0.0625,0.431640625,-1.3671875,0.1559375047324918,3.399189099212946,22.850123659225677,3.332665240776526,3571,0,76.15181286654673,58.32112682068185,76.58534265348021,0.058284009320744554,0.04463700825047856,0.408203125,,
3.5961900000000604,1500,,,,-0.03125,-0.17578125,-0.84765625,0.1559375047324918,3.399189099212946,22.850084825907302,3.3326044655068796,3555,0,76.15029472802966,58.051542647300494,76.23285353606477,0.05855467304056242,0.04463789813753355,0.408203125,,
3.605314999999944,1500,,,,0.0625,0.072265625,-0.990234375,0.1559375047324918,3.399189099212946,22.850080839682537,3.3278283571021947,3558,0,76.04114698037307,58.10194328710793,76.40855720141172,0.05850387967948023,0.044701970369940745,0.4140625,,
3.613395000000019,1500,,,,-0.25,0.078125,-1.107421875,0.1559375047324918,3.399189099212946,22.8499560280466,3.3289558048017387,3581,0,76.06649375903021,58.47026298213487,76.86730397665212,0.0581353482239603,0.0446870748371968,0.419921875,,
3.6205600000000557,1500,,,,0.3125,0.1328125,-0.99609375,0.1559375047324918,3.399189099212946,22.84998687062748,3.3300038721434575,3564,0,76.09054475761667,58.199857279465974,76.48763386418017,0.05840545420739795,0.044672949970865954,0.421875,,
3.639920000000042,1500,,,,-0.03125,0.251953125,-0.935546875,0.1559375047324918,3.399189099212946,22.850216548377485,3.3352634689704668,3933,0,76.21149251186786,64.22955255492623,84.2780405395213,0.052922509405714954,0.044602053931480416,0.41796875,,
3.6466800000000514,1500,,,,-0.125,-0.056640625,-0.748046875,0.1559375047324918,3.399189099212946,22.850249290213675,3.334967657411491,3931,0,76.20484234665248,64.19051566359522,84.23416896736742,0.05295469375923319,0.04460594621730446,0.421875,,
3.6542449999999955,1500,,,,0.0625,-0.021484375,-1.091796875,0.1559375047324918,3.399189099212946,22.850150693766214,3.3333846345916576,3726,0,76.1683412207042,60.837704533832984,79.8726919331886,0.05587306630417973,0.04462732212276369,0.421875,,
3.6622299999999814,1500,,,,-0.0625,-0.25,-0.78515625,0.1559375047324918,3.399189099212946,22.849847113817294,3.3313595568988688,3630,0,76.12105655629327,59.28500618513381,77.88253193949191,0.05733640456404844,0.044655043597551326,0.421875,,
3.670515000000014,1500,,,,0.03125,0.154296875,-1.11328125,0.1559375047324918,3.399189099212946,22.849822045592905,3.3328493917229753,3592,0,76.15501550563255,58.654572248098255,77.01997282603149,0.057952670506827494,0.0446351310763181,0.421875,,
3.6795050000000047,1500,,,,-0.28125,-0.021484375,-0.791015625,0.1559375047324918,3.399189099212946,22.849721167790907,3.331328567763157,3563,0,76.11992889168437,58.17840531971463,76.42992599546459,0.05842698988624701,0.04465570513143617,0.421875,,
3.690954999999958,1500,,,,0.21875,0.033203125,-0.955078125,0.1559375047324918,3.399189099212946,22.849700052535198,3.329081194568657,3567,0,76.06850674642938,58.241023174291314,76.56391017170206,0.058364172089500864,0.044685892291063053,0.423828125,,
3.698375,1500,,,,-0.09375,0.169921875,-0.919921875,0.1559375047324918,3.399189099212946,22.84935499329163,3.3312942535811274,3573,0,76.11792498718765,58.35322564145569,76.66160848614545,0.05825194857434019,0.04465688075161147,0.421875,,
3.7063699999999953,1500,,,,0.1875,-0.5859375,-1,0.1559375047324918,3.542083416607922,22.84928962379698,3.3322440831332916,3570,0,76.1394101526964,58.29855794104989,76.5681764859132,0.060757650647029586,0.046521025176112195,0.423828125,,
3.7140149999998977,1500,,,,-0.1875,0.015625,-0.826171875,0.1559375047324918,3.542083416607922,22.849491131078988,3.3317713540473726,3585,0,76.12928000508848,58.53882448048614,76.89396836089006,0.060508277165501875,0.04652721549936068,0.423828125,,
3.721775000000023,1500,,,,0.3125,-0.09765625,-1.22265625,0.1559375047324918,3.542083416607922,22.84942628206498,3.334025389984058,3590,0,76.18056737097368,58.62580060277235,76.9563717178483,0.060418508236805564,0.046495891785094876,0.42578125,,
3.730395000000019,1500,,,,0,-0.154296875,-0.912109375,0.1559375047324918,3.542083416607922,22.849457856989506,3.336738150578249,3577,0,76.2426577514468,58.417724864359826,76.62078761053064,0.06063371048482783,0.04645802653096398,0.423828125,,
3.738579999999958,1500,,,,-0.375,0.83203125,-0.77734375,0.15457292247229173,3.542083416607922,22.84938660602366,3.3352053425394996,3560,0,76.2073962821606,57.62830696216129,75.62035940552335,0.06146429772669968,0.04647952284701122,0.427734375,,
3.747784999999916,1500,,,,-0.125,-0.01171875,-0.91796875,0.15457292247229173,3.542083416607922,22.849318882260846,3.335498229478772,3562,0,76.21386267657692,57.65741789153832,75.6521397376417,0.06143326472356214,0.04647557927406457,0.427734375,,
3.757484999999986,1500,,,,0.3125,0.27734375,-1.3515625,0.15457292247229173,3.542083416607922,22.849156365347927,3.330988579937913,3573,0,76.1102789141896,57.83510254267255,75.988556825391,0.06124452557154993,0.04653883111637834,0.4296875,,
3.765119999999995,1500,,,,-0.03125,-0.19140625,-0.849609375,0.15457292247229173,3.542083416607922,22.849285158947826,3.328253955760325,3567,0,76.04822371656378,57.73147727679031,75.91430076257788,0.06135445659264188,0.04657680670898344,0.427734375,,
3.77225,1500,,,,0.09375,0.087890625,-1.21875,0.15457292247229173,3.542083416607922,22.849229430746803,3.329239053002772,3579,0,76.07054695186255,57.93027110319683,76.1533516248478,0.061143912313099034,0.046563138540982915,0.431640625,,
3.7815899999999676,1500,,,,-0.3125,-0.19921875,-0.53125,0.15457292247229173,3.542083416607922,22.849271635922996,3.326868706391351,3593,0,76.01652676938772,58.16413565506216,76.51511865507275,0.06089806676770664,0.04659622804595616,0.43359375,,
3.790359999999986,1500,,,,-0.0625,0.30078125,-1.0859375,0.15457292247229173,3.542083416607922,22.849348550578984,3.3244913654090227,3568,0,75.962461961621,57.75205834410039,76.02710187734414,0.061332591740771436,0.04662939200677186,0.4375,,
3.7986750000000464,1500,,,,-0.1875,0.671875,-1.171875,0.15457292247229173,3.542083416607922,22.849150277183124,3.326872502110072,3571,0,76.01620975374126,57.799093967774425,76.03522216513794,0.061282680634800114,0.04659642236942223,0.4375,,
3.806420000000042,1500,,,,0.125,-0.30078125,-0.890625,0.15457292247229173,3.542083416607922,22.849094005474868,3.3290078454916125,3572,0,76.06481320660122,57.81743294268497,76.0107472894804,0.06126324252616381,0.04656664845790386,0.439453125,,
3.814484999999986,1500,,,,-0.375,0.140625,-0.9453125,0.15457292247229173,3.542083416607922,22.849040000937443,3.332345738395286,3572,0,76.14090107354731,57.82471818203812,75.94435758802366,0.061255524072890095,0.046520114244333576,0.44140625,,
3.8224949999999955,1500,,,,0.15625,0.02734375,-1.025390625,0.15457292247229173,3.542083416607922,22.84918443035562,3.332301035664448,3581,0,76.14036094136202,57.967816961990394,76.13283709888525,0.06110430929166217,0.04652044425342017,0.44140625,,
3.830539999999921,1500,,,,-0.25,0.01171875,-0.671875,0.15457292247229173,3.542083416607922,22.84906101096165,3.3340665409424566,3577,0,76.18028980860005,57.9077885885969,76.01413532829544,0.06116765124243447,0.04649606119256393,0.439453125,,
3.840375,1500,,,,-0.0625,0.240234375,-0.908203125,0.15457292247229173,3.542083416607922,22.849204591245297,3.335526535509987,3569,0,76.21412822939531,57.76748984767628,75.7963007512244,0.06131620788695916,0.04647541733924553,0.439453125,,
3.8481899999999443,1500,,,,-0.25,-0.15234375,-1.001953125,0.15457292247229173,3.542083416607922,22.84937407086033,3.3340929558269825,3568,0,76.18193713471112,57.75734365048219,75.81501051666741,0.06132697926765457,0.046495055781326754,0.443359375,,
3.8563399999999675,1500,,,,0.625,0.06640625,-0.98046875,0.15457292247229173,3.386167301065546,22.8493721149839,3.3353619481424355,3572,0,76.21092629126414,57.819037234562494,75.86712306000423,0.05856492018932126,0.04443152007002562,0.447265625,,
3.8641600000000325,1500,,,,-0.103515625,0.11328125,-0.8125,0.15457292247229173,3.386167301065546,22.849403001703617,3.334690168719574,3577,0,76.19567955089258,57.90721634566803,75.99803123612891,0.058475739549495045,0.04444041080838264,0.4453125,,
3.8730149999998975,1500,,,,-0.1875,-0.16015625,-1.171875,0.15457292247229173,3.386167301065546,22.849610686630367,3.334518029171782,3564,0,76.19243879412518,57.68920384761358,75.7151296908765,0.05869672443409221,0.044442301029569316,0.4453125,,
3.8810500000000467,1500,,,,-0.3125,-0.080078125,-0.71484375,0.15457292247229173,3.386167301065546,22.84973042039042,3.3320792814403504,3564,0,76.13711332028022,57.68876895877514,75.76957733621995,0.05869716692143888,0.04447459528470975,0.447265625,,
3.890484999999986,1500,,,,0.5625,-0.23046875,-1.19140625,0.15810241458781324,3.386167301065546,22.849574767977078,3.3295075585782152,3566,0,76.07783190027774,59.04615962293052,77.61283168575017,0.05734779912342566,0.044509250809146465,0.453125,,
3.8976199999999954,1500,,,,-0.0625,0.0078125,-1.009765625,0.15810241458781324,3.386167301065546,22.849420778692902,3.332596728424626,3569,0,76.14790493346963,59.08668514562647,77.59463007846435,0.057308466242773935,0.04446829238472205,0.44921875,,
3.9055800000000747,1500,,,,-0.09375,0.2265625,-1.26953125,0.15810241458781324,3.386167301065546,22.849268092782953,3.3310913926535197,3576,0,76.113000272302,59.213955619870084,77.79742673134173,0.05718529129861525,0.04448868509914454,0.44921875,,
3.9136049999999813,1500,,,,0.125,-0.5078125,-0.515625,0.15810241458781324,3.386167301065546,22.849205974459412,3.330363428870285,3573,0,76.09615995606404,59.15761197359867,77.74060084997029,0.05723975644210844,0.04449853058315468,0.451171875,,
3.9226699999999255,1500,,,,-0.09375,0.43359375,-0.994140625,0.15810241458781324,3.386167301065546,22.84913976909744,3.3291689369337285,3564,0,76.0686463549363,59.013965629993194,77.57988140689928,0.057379084169604834,0.044514625451144346,0.453125,,
3.93175,1500,,,,0.0625,-0.111328125,-0.974609375,0.15810241458781324,3.386167301065546,22.849225034955957,3.327357744112982,3559,0,76.02754586704093,58.92418814239126,77.50373561372021,0.05746650752120365,0.04453869005567231,0.453125,,
3.940614999999991,1500,,,,-0.0625,0.154296875,-1.23046875,0.15810241458781324,3.386167301065546,22.84908680403552,3.32687356430332,3563,0,76.0160228568176,58.98900708177735,77.6007542421523,0.05740336155126753,0.04454544152413327,0.458984375,,
3.9485750000000697,1500,,,,-0.15625,0.046875,-0.87890625,0.15810241458781324,3.386167301065546,22.84903380348478,3.3269370622273713,3575,0,76.01729739689955,59.19376046017472,77.86880418954358,0.05720480122805753,0.04454469465529374,0.46484375,,
3.9563800000000047,1500,,,,0.125,0.23828125,-1.35546875,0.15810241458781324,3.386167301065546,22.848917107034477,3.32565810750536,3577,0,75.98768642472713,59.22712231771416,77.9430524923063,0.05717257851733887,0.04456205288497446,0.466796875,,
3.964689999999944,1500,,,,-0.0625,0.0234375,-0.970703125,0.15810241458781324,3.386167301065546,22.84906780680015,3.3260989207009413,3570,0,75.9982597712206,59.10536442804842,77.77199715621742,0.05729035484059451,0.04455585313741404,0.46484375,,
3.9725550000000514,1500,,,,-0.3125,0.83984375,-1.07421875,0.15810241458781324,3.386167301065546,22.848883513856176,3.325933452252851,3565,0,75.99386602536293,59.020957728035086,77.66542329658141,0.05737228658112929,0.04455842922816183,0.466796875,,
3.9806149999999905,1500,,,,0.03125,-0.46484375,-0.720703125,0.15810241458781324,3.386167301065546,22.848840467089055,3.3281081121983687,3567,0,76.04341131284545,59.051237781001134,77.65464063423211,0.05734286745391467,0.04452939765070148,0.470703125,,
3.9876750000000465,1500,,,,-0.03125,0.21484375,-1.298828125,0.15810241458781324,3.386167301065546,22.848800298284274,3.3246305958730704,3568,0,75.96382055066964,59.068995614570596,77.75937964464306,0.0573256285439578,0.04457605313317402,0.47265625,,
3.9970350000000328,1500,,,,-0.125,-0.01953125,-1.07421875,0.15810241458781324,3.386167301065546,22.84876528343808,3.323644447306303,3568,0,75.941171862104,59.08138678885873,77.79888740213318,0.05731360560588758,0.044589347491427164,0.46875,,
4.005604999999981,1500,,,,0.0625,0.158203125,-1.064453125,0.15810241458781324,3.5934184655089307,22.84864720492126,3.324694757268895,3562,0,75.96477757288831,58.972819241665256,77.63179347834036,0.06093346921033957,0.04730374497655892,0.46875,,
4.0144550000000745,1500,,,,-0.1875,-0.056640625,-0.84375,0.15810241458781324,3.5934184655089307,22.848688391048867,3.3231481489926695,3575,0,75.92957653362434,59.18348527904428,77.94523291307401,0.060716574033555445,0.04732567504729381,0.470703125,,
4.022959999999963,1500,,,,0.125,-0.017578125,-1.12109375,0.15810241458781324,3.5934184655089307,22.848753024493924,3.324836589111377,3579,0,75.96837007140664,59.259088982233756,78.00494985812259,0.06063911084738849,0.04730150801091677,0.46875,,
4.031649999999907,1500,,,,-0.25,-0.18359375,-0.828125,0.15810241458781324,3.5934184655089307,22.848857369940752,3.326495729638149,3583,0,76.00662646821907,59.315733255227286,78.04021308593296,0.06058120279904414,0.04727769975439523,0.46875,,
4.040900000000024,1500,,,,-0.09375,0.236328125,-0.93359375,0.15356356715080866,3.5934184655089307,22.848737797792253,3.3279526382082585,3578,0,76.03951723389149,57.534332013632,75.66372605531015,0.062456942485358435,0.047257249864644225,0.466796875,,
4.049554999999935,1500,,,,-0.1875,-0.19140625,-0.958984375,0.15356356715080866,3.5934184655089307,22.848697085656646,3.3286248570797774,3574,0,76.05474107120298,57.47302280321279,75.5679685365126,0.06252356828024809,0.04724779040592285,0.46875,,
4.058659999999916,1500,,,,0.1875,0.056640625,-0.96484375,0.15356356715080866,3.5934184655089307,22.848511889143207,3.328062115508567,3569,0,76.04126681400459,57.38582035700667,75.4666811342994,0.06261857795451352,0.04725616255576542,0.466796875,,
4.066690000000061,1500,,,,-0.1875,0.423828125,-0.875,0.15356356715080866,3.5934184655089307,22.848486750557452,3.328227878356721,3561,0,76.04497058146949,57.26388830335834,75.30266349700227,0.06275191175409911,0.04725386094612507,0.46484375,,
4.074775000000023,1500,,,,-0.0625,0.0390625,-1.30078125,0.15356356715080866,3.5934184655089307,22.848658281046784,3.3268997614310076,3572,0,76.01519578423316,57.44698765678402,75.57303123949791,0.0625519041481817,0.04727237006280614,0.46484375,,
4.082765000000014,1500,,,,-0.0625,-0.330078125,-0.73828125,0.15356356715080866,3.5934184655089307,22.84842629920205,3.326154655314049,3573,0,75.99739950169085,57.461790310216145,75.61020598992691,0.06253579023746596,0.04728343981597662,0.46875,,
4.090795000000042,1500,,,,0.25,0.09765625,-1.44921875,0.15356356715080866,3.5934184655089307,22.848341089394207,3.3256733940356358,3566,0,75.98612005884951,57.352222153369674,75.47723466989984,0.06265526130617073,0.047290458609097426,0.470703125,,
4.09968499999994,1500,,,,-0.09375,-0.13671875,-0.95703125,0.15356356715080866,3.5934184655089307,22.84842379881845,3.3245013367952168,3569,0,75.95961546283559,57.401289050830435,75.56816698067001,0.0626017032880021,0.04730695967342102,0.46875,,
4.106959999999963,1500,,,,-0.125,0.60546875,-1.1484375,0.15356356715080866,3.5934184655089307,22.84825833240798,3.323477437951081,3579,0,75.93567106423572,57.55130339821885,75.78955001205546,0.06243852446998,0.047321876729964976,0.47265625,,
4.114135000000009,1500,,,,0.0625,-0.44140625,-0.3984375,0.15356356715080866,3.5934184655089307,22.84824714313598,3.3226888646492454,3585,0,75.91761635925185,57.65863817644789,75.94895749044576,0.06232229166620783,0.04733313080463981,0.474609375,,
4.127,1500,,,,-0.15625,0.390625,-1.279296875,0.15356356715080866,3.5934184655089307,22.848383617175585,3.325392437128747,3572,0,75.97984208117205,57.43501496232926,75.59243792711405,0.06256494349075731,0.0472943660723847,0.4765625,,
4.136050000000046,1500,,,,0,-0.162109375,-0.970703125,0.15356356715080866,3.5934184655089307,22.848364397213235,3.3271368814780633,3570,0,76.01963586741846,57.41302588633409,75.52394224363938,0.06258890574106224,0.04726960902280575,0.47265625,,
4.143790000000037,1500,,,,0.0625,0.119140625,-1.142578125,0.15356356715080866,3.5934184655089307,22.848083091220147,3.325419225353767,3570,0,75.97945477402381,57.40556871459891,75.55406772177177,0.06259703624528473,0.04729460715658445,0.4765625,,
4.154434999999939,1500,,,,-0.375,0.328125,-0.935546875,0.15356356715080866,3.4468192610738795,22.847882322289948,3.3276351313305828,3569,0,76.02941589215901,57.387196485639436,75.48025433608235,0.060062513455181786,0.0453353379166149,0.482421875,,
4.172359999999986,1500,,,,-0.21875,0.470703125,-1.298828125,0.15356356715080866,3.4468192610738795,22.84754544491323,3.3223443376378436,3563,0,75.90741323783078,57.29516903660472,75.4803339920032,0.06015898581033554,0.04540820341584307,0.484375,,
4.180530000000028,1500,,,,0.0625,-0.46875,-0.640625,0.15356356715080866,3.4468192610738795,22.847570659799043,3.322366735822374,3571,0,75.90800875446759,57.428931564391206,75.65595845117095,0.0600188644848667,0.04540784717753535,0.490234375,,
