Time (s),ESC signal (µs),Servo 1 (µs),Servo 2 (µs),Servo 3 (µs),AccX (g),AccY (g),AccZ (g),Torque (N·m),Thrust (N),Voltage (V),Current (A),Motor Electrical Speed (RPM),Motor Optical Speed (RPM),Electrical Power (W),Mechanical Power (W),Motor Efficiency (%),Propeller Mech. Efficiency (N/W),Overall Efficiency (N/W),Vibration (g),App message,90% settling time (s),Max acceleration (RPM/s),
0,1000,,,,-0.0625,0.046875,-0.951171875,0.0015306495910726197,0.0000654906728415892,22.954261582070572,0.0693829674915052,0,0,1.5926347851403093,0,0,0,0,0.072265625,,
0,1200,,,,-0.0625,0.048828125,-0.95703125,0.0015306495910726197,0.0000654906728415892,22.954313732539124,0.06847301002200659,0,0,1.571750954256435,0,0,0,0,0.072265625,,
0.008570000000065192,1200,,,,-0.0625,0.046875,-0.95703125,0.0015306495910726197,0.0000654906728415892,22.954465756022003,0.06930029812426586,0,0,1.5907513201755765,0,0,0,0,0.072265625,,
0.016760000000009313,1200,,,,-0.0625,0.046875,-0.955078125,0.0015306495910726197,0.0000654906728415892,22.95454723827156,0.06943717027135936,0,0,1.5938988050858238,0,0,0,0,0.072265625,,
0.025260000000009313,1200,,,,-0.0625,0.05078125,-0.955078125,0.0015306495910726197,0.0000654906728415892,22.954519801614236,0.06781177612081107,0,0,1.5565867577477892,0,0,0,0,0.072265625,,
0.032665000000037255,1200,,,,-0.0625,0.05078125,-0.95703125,0.0015306495910726197,0.0000654906728415892,22.954526921331343,0.06800721374922804,0,0,1.5610734188513902,0,0,0,0,0.0703125,,
0.040380000000004655,1200,,,,-0.0625,0.052734375,-0.955078125,0.0015306495910726197,0.0000654906728415892,22.954416226892345,0.06751080798819185,0,0,1.5496711863747645,0,0,0,0,0.0703125,,
0.05100500000000466,1200,,,,-0.0625,0.04296875,-0.984375,0.0014275315325160789,0.0000654906728415892,22.953711915760373,0.1008091702730447,0,0,2.3139446529143024,0,0,0,0,0.0703125,,
0.05918000000005122,1200,,,,-0.01953125,0.03515625,-0.94140625,0.0014275315325160789,0.0000654906728415892,22.951338761927907,0.16821700066527323,0,0,3.860805367784138,0,0,0,0,0.0703125,,
0.06738500000012573,1200,,,,-0.125,0.13671875,-0.92578125,0.0014275315325160789,0.0000654906728415892,22.949943818028764,0.20922395407823074,0,0,4.801677991481226,0,0,0,0,0.072265625,,
0.07570499999995808,1200,,,,-0.125,0.171875,-0.908203125,0.0014275315325160789,0.0006026667186145956,22.94876249777721,0.2504556363902182,0,0,5.7476469157487635,0,0,0,0,0.07421875,,
0.08321000000007917,1200,,,,0.375,-0.30859375,-1.0859375,0.0014275315325160789,0.0006026667186145956,22.94761400936379,0.2804950188235982,0,0,6.436691423513161,0,0,0,0,0.080078125,,
0.09104500000004191,1200,,,,-0.125,0.0859375,-0.890625,0.0014275315325160789,0.0006026667186145956,22.946849706627937,0.30285747767995785,0,0,6.949625022850418,0,0,0,0,0.083984375,,
0.10085500000009778,1200,,,,-0.0625,0.109375,-1.025390625,0.0014275315325160789,0.0006026667186145956,22.945953177854502,0.32323114602321956,0,0,7.416846742273047,0,0,0,0,0.083984375,,
0.10772500000009314,1200,,,,-0.09375,0.109375,-0.880859375,0.0014275315325160789,0.0006026667186145956,22.945527478957054,0.3324455533484592,0,0,7.628138579614154,0,0,0,0,0.0859375,,
0.11570500000007451,1200,,,,0.0625,-0.06640625,-1.09375,0.0014275315325160789,0.0006026667186145956,22.945321400429588,0.34875179801972633,1,0,8.002222094540324,0.00021915892865340245,0.0027387258946852777,0,0.0000753124209119086,0.087890625,,
0.12386000000010244,1200,,,,0.03125,0.07421875,-0.888671875,0.0014275315325160789,0.0006026667186145956,22.944318798583794,0.37021795479262276,2,0,8.49439877972162,0.0003424861013012428,0.004031905143408712,0,0.0000709487197673508,0.0859375,,
0.13210000000009314,1200,,,,-0.25,0.58984375,-0.58203125,0.0014275315325160789,0.0006026667186145956,22.943411746648405,0.3938653527392304,3,0,9.036614960635076,0.0004043043710314981,0.004474068805550661,0,0.00006669164518350149,0.091796875,,
0.14144499999994878,1200,,,,-0.09375,0.017578125,-0.779296875,0.0014275315325160789,0.0006026667186145956,22.94330831938093,0.39609570186239174,3,0,9.087745811810441,0.00042505808818677973,0.004677266474975279,0,0.00006631641455369158,0.09375,,
0.14940500000002793,1200,,,,-0.09375,0.1171875,-1.001953125,0.0014275315325160789,0.0006026667186145956,22.94298366568448,0.3953411745943053,3,0,9.070306111089662,0.0004335204937665673,0.00477955747531531,0,0.00006644392275556776,0.095703125,,
0.15773499999998603,1200,,,,-0.09375,0.11328125,-0.990234375,0.0014275315325160789,0.0006026667186145956,22.943132727865265,0.3959786286203725,3,0,9.084990233835272,0.00043643655424552334,0.004803929811835137,0,0.00006633652905537324,0.09765625,,
0.16546000000007915,1200,,,,0,0.03125,-0.94921875,0.0014275315325160789,0.0006026667186145956,22.943437095099796,0.3908271044301871,3,0,8.966917085553996,0.0004375764372592889,0.004879898331660044,0,0.00006721002467899607,0.095703125,,
0.17334000000008382,1200,,,,-0.09375,0.076171875,-0.9609375,0.0014275315325160789,0.0006026667186145956,22.94366028286718,0.38356200230782844,3,0,8.800316278367134,0.00043802464777383237,0.004977373925191542,0,0.00006848239308126529,0.09765625,,
0.1815,1200,,,,-0.0625,0.0859375,-1.02734375,0.0014275315325160789,0.0006026667186145956,22.943872651443066,0.3759670711870429,3,0,8.626140602451542,0.0004382018440694695,0.005079929301696437,0,0.00006986516292620112,0.09765625,,
0.18929000000003726,1200,,,,0,0.01953125,-0.998046875,0.0014275315325160789,0.0006026667186145956,22.944011693281396,0.36796297307692705,251,0,8.442546756971602,0.03748256038961488,0.4439721978283733,0.016078589945567694,0.00007138446916114874,0.09765625,,
0.197375,1200,,,,-0.03125,0.021484375,-0.95703125,0.0016832200854981698,0.0006026667186145956,22.944206548578087,0.3594388234931217,469,0,8.247038607804086,0.08270043447343901,1.0027894666963297,0.007287346462589078,0.00007307674272851087,0.095703125,,
0.21392500000004658,1200,,,,-0.0625,0.07421875,-0.921875,0.0016832200854981698,0.0006026667186145956,22.944722698129674,0.3469726422514177,579,0,7.961191060296131,0.1021369700857321,1.2829357983268013,0.0059005736914726084,0.00007570057219455531,0.095703125,,
0.23791500000003726,1200,,,,-0.041015625,0.060546875,-1.001953125,0.0016832200854981698,0.0024079448313133285,22.94556502962007,0.3220974853881845,610,0,7.390708796851688,0.10750210074463176,1.4545573868425958,0.022399049084941457,0.00032580702304751486,0.095703125,,
0.24765500000002794,1200,,,,0,0.03515625,-0.982421875,0.0016832200854981698,0.0024079448313133285,22.946005246761864,0.31084223873039424,711,0,7.13258764082283,0.12538066640479745,1.7578566534141213,0.019205072842244788,0.0003375976507504285,0.09375,,
0.25571000000007915,1200,,,,-0.0625,0.015625,-0.96875,0.0016832200854981698,0.0024079448313133285,22.946194751015522,0.3040330371423443,736,0,6.976401281010968,0.12980655670701877,1.8606520966667812,0.018550255799082673,0.0003451557234626829,0.09375,,
0.26493000000005124,1200,,,,-0.03125,0.009765625,-0.97265625,0.0016832200854981698,0.0024079448313133285,22.946651758749965,0.2946974586621463,748,0,6.762319958108884,0.13179829304640817,1.9490100122867626,0.018269924258165128,0.00035608265302884635,0.09375,,
0.2723399999999674,1200,,,,0,0.01953125,-0.990234375,0.0016832200854981698,0.0024079448313133285,22.946713934269642,0.2873344880233866,751,0,6.59338230012248,0.13239620467613616,2.008016502754235,0.01818741584929549,0.0003652063116783928,0.09375,,
0.2795650000000605,1200,,,,-0.0625,0.078125,-1,0.0016832200854981698,0.0024079448313133285,22.946946661363572,0.28091251483652624,752,0,6.446084494463271,0.13263788624158168,2.0576504443202417,0.01815427627463535,0.00037355154642815843,0.09375,,
0.2869100000000326,1200,,,,-0.0625,0.015625,-0.9609375,0.0016832200854981698,0.0024079448313133285,22.947259325451483,0.27501541732410817,753,0,6.310850099833573,0.13274225021495922,2.103397293788674,0.018140003106877935,0.0003815563344432519,0.091796875,,
0.29482500000006984,1200,,,,0,0.01953125,-1.0234375,0.0016832200854981698,0.0024079448313133285,22.94742620771232,0.2688995313517245,753,0,6.170552152982124,0.13278929507336198,2.151984000478582,0.018133576430110678,0.000390231663490537,0.091796875,,
0.3086849999999395,1200,,,,-0.03125,0.00390625,-0.958984375,0.0016832200854981698,0.0024079448313133285,22.94790741571346,0.26099041795216227,781,0,5.989183947554579,0.13770868557740432,2.299289632498792,0.017485787633633707,0.0004020489022208956,0.091796875,,
0.3249950000001118,1200,,,,0,0.001953125,-0.88671875,0.0016832200854981698,0.0024079448313133285,22.942103523436597,0.4270246090006964,791,0,9.796842786749012,0.13933883254758495,1.4222830311827754,0.017281218647292762,0.0002457878404020385,0.095703125,,
0.3323800000001211,1200,,,,-0.125,0.0078125,-0.796875,0.0016832200854981698,0.0024079448313133285,22.94068557863939,0.46617166899429385,791,0,10.694297684067651,0.13947399126637103,1.3041902833335113,0.017264472103007175,0.00022516156763624425,0.09765625,,
0.340660000000149,1200,,,,0,0.064453125,-1.0546875,0.0016832200854981698,0.0024079448313133285,22.939284783314708,0.4973616370570436,874,0,11.409120232747133,0.15405893431653542,1.3503138819971967,0.01563002393853947,0.00021105438300158345,0.09765625,,
0.34876000000000934,1200,,,,-0.0625,0.2421875,-0.8359375,0.017063773097165027,0.0024079448313133285,22.938170585807423,0.5303297786067266,952,0,12.16479492841458,1.7009453194581368,13.982523581100914,0.001415650934669915,0.00019794372576629638,0.099609375,,
0.35733000000007453,1200,,,,-0.1875,-0.140625,-1.07421875,0.017063773097165027,0.0024079448313133285,22.937217819734744,0.5505578386519512,980,0,12.62826506752218,1.7508164816676226,13.864267754170243,0.0013753268012532088,0.00019067899022060967,0.1015625,,
0.3679100000000326,1200,,,,0,0.015625,-0.955078125,0.017063773097165027,0.0024079448313133285,22.936782897686093,0.5628904880313739,990,0,12.910896919148195,1.76840983820871,13.697033206004264,0.0013616441049391743,0.00018650484520111826,0.1015625,,
0.3776700000000419,1200,,,,-0.0625,0.103515625,-0.990234375,0.017063773097165027,0.0829055430851066,22.935976668850174,0.5773667611936056,1098,0,13.242470564106128,1.9616438657378874,14.813277146750442,0.042263299946099564,0.0062605797523781585,0.1015625,,
0.38580000000004655,1200,,,,-0.0625,0.111328125,-1.06640625,0.017063773097165027,0.0829055430851066,22.935840778904325,0.5844060335397939,1215,0,13.403843735499734,2.1703700968516797,16.192147116006065,0.038198804528945855,0.0061852066258825,0.1015625,,
0.39376500000001396,1200,,,,-0.0625,0.08984375,-0.986328125,0.017063773097165027,0.0829055430851066,22.935920418945845,0.5864706235739323,1260,0,13.451243550341257,2.2509668266687397,16.734265633095557,0.036831081694704726,0.0061634110463343215,0.1015625,,
0.4013800000000047,1200,,,,0,0.0546875,-0.99609375,0.017063773097165027,0.0829055430851066,22.93580574342589,0.5869399600023365,1318,0,13.461940905667753,2.354900121708553,17.49302079254479,0.03520554537359999,0.006158513372332638,0.1015625,,
0.4095350000000326,1200,,,,-0.0625,0.07421875,-0.970703125,0.017063773097165027,0.0829055430851066,22.935617790623308,0.5855107740869504,1390,0,13.429051326750285,2.4838913219945544,18.496402028389856,0.033377282794536195,0.00617359641183001,0.1015625,,
0.4177150000000838,1200,,,,-0.0625,0.015625,-0.95703125,0.017063773097165027,0.0829055430851066,22.93576789342142,0.5826607971929895,1418,0,13.363772805014298,2.5343786775500923,18.964544777348756,0.03271237397137861,0.006203752809535877,0.1015625,,
0.42581500000006056,1200,,,,-0.0625,0.072265625,-0.951171875,0.017063773097165027,0.0829055430851066,22.935973704680944,0.5770258872591393,1429,0,13.23465057709581,2.5541078564403437,19.29864216332648,0.03245968758760717,0.006264278954866012,0.1015625,,
0.43327000000001864,1200,,,,-0.03125,0.126953125,-1.03515625,0.017063773097165027,0.0829055430851066,22.936171913246625,0.5732072280726916,1472,0,13.147179524990822,2.6304492387482177,20.00770761324227,0.031517636555708564,0.006305956568670531,0.1015625,,
0.44063500000012573,1200,,,,0,-0.03125,-0.9609375,0.017063773097165027,0.0829055430851066,22.936335708876584,0.5689354384742887,1488,0,13.049294213523185,2.6582209914274593,20.37061122181385,0.031188356179742034,0.006353258783849804,0.1015625,,
0.44863500000000933,1200,,,,-0.03125,-0.02734375,-1.009765625,0.017063773097165027,0.0829055430851066,22.93671114201407,0.562017176007722,1495,0,12.8908256229396,2.671369238484353,20.72302672165989,0.03103484980314607,0.006431360217732972,0.1015625,,
0.4590500000000466,1200,,,,-0.125,0.05859375,-0.953125,0.017063773097165027,0.0829055430851066,22.936891456402577,0.555019589498301,1498,0,12.730424080499645,2.6768609339715996,21.027272281305947,0.030971180472233746,0.006512394446631248,0.1015625,,
0.46670500000007453,1200,,,,-0.01953125,0.017578125,-0.943359375,0.017063773097165027,0.0829055430851066,22.936997735239125,0.5464915726752881,1522,0,12.534875964780351,2.719649463360655,21.696660349908072,0.03048390765134147,0.006613989904491197,0.1015625,,
0.4755050000000047,1200,,,,-0.0625,-0.03515625,-0.94921875,0.017063773097165027,0.0829055430851066,22.937295370576702,0.5392340647067926,1529,0,12.368571016056372,2.7330070132399102,22.096384535384345,0.03033491779694491,0.006702920084905688,0.1015625,,
0.48361999999999533,1200,,,,0,0.037109375,-0.994140625,0.017063773097165027,0.0829055430851066,22.93732833504498,0.5337133971846161,1532,0,12.24195942803581,2.7376926957927643,22.363190401718395,0.030282998238814134,0.006772244555495032,0.1015625,,
0.49192000000004193,1200,,,,0,0.005859375,-1.013671875,0.017063773097165027,0.0829055430851066,22.93759270850486,0.5292226917373235,1545,0,12.139094555169347,2.7604606333704838,22.7402515140222,0.030033227818170367,0.006829631543631223,0.099609375,,
0.4987850000000326,1200,,,,-0.0625,0.15234375,-1.0234375,0.023544361405365487,0.0829055430851066,22.937802202175522,0.5216133262769771,1550,0,11.964663304160144,3.820890628437592,31.934794413387785,0.021697962895893635,0.006929199842696796,0.099609375,,
0.5058100000000558,1200,,,,-0.0625,0.09375,-1.0390625,0.023544361405365487,0.0829055430851066,22.93806867005596,0.5167396937450393,1552,0,11.853010579667396,3.825490019510013,32.27441664544063,0.021671875410022776,0.006994471364711545,0.099609375,,
0.5137500000001164,1200,,,,-0.0625,0.037109375,-0.966796875,0.023544361405365487,0.0829055430851066,22.93816373868302,0.5096991975631648,1556,0,11.691563651179221,3.8359600207603637,32.809640653784285,0.021612723447694604,0.007091056898684778,0.1015625,,
0.5240250000000233,1200,,,,-0.0625,0.109375,-0.90234375,0.023544361405365487,0.0829055430851066,22.938420973736264,0.5043709161792949,1561,0,11.569472402229712,3.847654624087804,33.25695840154535,0.02154703350089841,0.007165887968160823,0.1015625,,
0.5328699999999953,1200,,,,-0.01953125,-0.037109375,-0.94921875,0.023544361405365487,0.30669311365090823,22.938797500947803,0.49436926104227563,1563,0,11.340236369741964,3.853832981017267,33.98370946923179,0.07958131947118081,0.027044684400867273,0.1015625,,
0.5421850000000559,1200,,,,-0.03125,0.080078125,-1.015625,0.023544361405365487,0.30669311365090823,22.938937163136984,0.4881944667298137,1565,0,11.198662195706365,3.858662004536872,34.45645503992706,0.07948172534684557,0.027386584959094153,0.1015625,,
0.5497650000000139,1200,,,,0,-0.05859375,-0.94921875,0.023544361405365487,0.30669311365090823,22.93892389591768,0.48362698476357285,1568,0,11.093882597503736,3.8662294541296336,34.8501024789967,0.07932615414828012,0.02764524601332252,0.1015625,,
0.5577050000000745,1200,,,,-0.0625,0.048828125,-0.953125,0.023544361405365487,0.30669311365090823,22.939263580429202,0.4778182257968288,1569,0,10.960798225086492,3.8691742719764517,35.3001140292948,0.07926577923155766,0.027980910454948923,0.099609375,,
0.5657700000000186,1200,,,,-0.03125,-0.03515625,-0.9765625,0.023544361405365487,0.30669311365090823,22.93949941408211,0.4724097432960369,1570,0,10.836843029546118,3.87037867886024,35.71500176119414,0.07924111284666958,0.028300964848777876,0.099609375,,
0.5735350000000325,1200,,,,-0.0625,0.171875,-1.046875,0.023544361405365487,0.30669311365090823,22.939622265242566,0.46766395827639645,1573,0,10.728034549928694,3.8780824303767534,36.14904866616532,0.07908370158627938,0.028588005773429088,0.1015625,,
0.5820700000000651,1200,,,,-0.03125,0.052734375,-1.013671875,0.023544361405365487,0.30669311365090823,22.93989604681377,0.4629433656995292,1574,0,10.619872684709293,3.8810823650867214,36.54546980280453,0.07902257277759558,0.028879170471835428,0.1015625,,
0.5909100000000326,1200,,,,-0.125,0.0703125,-0.95703125,0.023544361405365487,0.30669311365090823,22.939901236657846,0.45914671913337884,1575,0,10.53278039005519,3.8823106527973166,36.85931453069035,0.07899757156989151,0.029117963376553528,0.099609375,,
0.5996049999999814,1200,,,,0.03125,-0.080078125,-0.966796875,0.023544361405365487,0.30669311365090823,22.94014981443018,0.4556672068877714,1576,0,10.453073991528427,3.884885300617411,37.16500336423402,0.07894521714763794,0.029339992608821492,0.1015625,,
0.6081500000000233,1200,,,,-0.0625,0.140625,-1.00390625,0.023544361405365487,0.30669311365090823,22.940274241604037,0.4554689001583642,1576,0,10.448581478154644,3.8865778866738334,37.19718217061034,0.07891083688364697,0.02935260774796334,0.1015625,,
0.6168100000000559,1200,,,,-0.03125,0.06640625,-0.9765625,0.023544361405365487,0.30669311365090823,22.940112023271276,0.4569347593338188,1577,0,10.482134566444303,3.8872791836008838,37.084805188868195,0.07889660072390549,0.029258650679099527,0.1015625,,
0.6247500000001164,1200,,,,0,-0.0390625,-0.9921875,0.023544361405365487,0.30669311365090823,22.94017115766795,0.45542114055923655,1582,0,10.44743891324924,3.8999533643685025,37.32927655047264,0.07864020027854085,0.029355817841822073,0.1015625,,
0.633015000000014,1200,,,,-0.09375,0.037109375,-1.025390625,0.023544361405365487,0.30669311365090823,22.940162794890348,0.44959567555634405,1584,0,10.313797989141236,3.9050515336339484,37.8624008124392,0.07853753299012341,0.029736195528922187,0.1015625,,
0.6421099999999861,1200,,,,0,-0.01953125,-0.958984375,0.023544361405365487,0.30669311365090823,22.94052540546392,0.44293697406567045,1585,0,10.161206906572826,3.907199148518476,38.4521168050528,0.07849436437536067,0.030182744674997448,0.1015625,,
0.650910000000149,1200,,,,-0.0625,0.0703125,-1.02734375,0.029421735485522703,0.30669311365090823,22.940569605725983,0.43796975139341887,1587,0,10.04727556704323,4.890216843339302,48.67206846978542,0.06271564707169136,0.030525002684002593,0.1015625,,
0.658640000000014,1200,,,,-0.041015625,0.05078125,-0.943359375,0.029421735485522703,0.30669311365090823,22.940835655155862,0.4339629073671001,1590,0,9.95547173834227,4.899203872110827,49.21116749537994,0.0626006023951743,0.030806487297806048,0.1015625,,
0.6667049999999581,1200,,,,0,0.0234375,-0.98828125,0.029421735485522703,0.30669311365090823,22.941057584113747,0.4301244617675278,1591,0,9.867510045744787,4.902766410297338,49.68595306788242,0.06255511439557003,0.03108110478014309,0.099609375,,
0.6765850000000792,1200,,,,-0.0625,0.033203125,-0.99609375,0.029421735485522703,0.47993055870043827,22.94120190061274,0.4258563123087064,1592,0,9.769655641324428,4.904160368095246,50.19788361169311,0.09786192185367731,0.049124613632274994,0.099609375,,
0.684530000000028,1200,,,,-0.03125,0,-0.9609375,0.029421735485522703,0.47993055870043827,22.941371189157987,0.42269080727753033,1588,0,9.697106707998666,4.892590443818009,50.45412607228867,0.09809334425423866,0.04949213957855772,0.099609375,,
0.6924649999999674,1200,,,,0.0625,0,-0.97265625,0.029421735485522703,0.47993055870043827,22.941488165282284,0.41973302202956625,1587,0,9.629300157469462,4.889334179661836,50.775592199908445,0.09815867377132972,0.04984064790296888,0.099609375,,
0.7088050000000512,1200,,,,-0.0625,0.017578125,-0.93359375,0.029421735485522703,0.47993055870043827,22.941875464512748,0.4143093779403012,1584,0,9.505034152486136,4.880367710097951,51.345083371651455,0.09833901607606652,0.05049224979111808,0.099609375,,
0.7168100000000559,1200,,,,-0.0625,0.0234375,-1.0625,0.029421735485522703,0.47993055870043827,22.941782449271866,0.4120710130163878,1583,0,9.453643534273045,4.877322242033423,51.59198381397901,0.09840042032989574,0.05076672892948712,0.099609375,,
0.7261100000001024,1200,,,,-0.0625,0.07421875,-1.00390625,0.029421735485522703,0.47993055870043827,22.9419108539633,0.41109656372470693,1583,0,9.43134071734287,4.876036570473747,51.700354346306476,0.09842636570992924,0.05088677984222492,0.099609375,,
0.7340000000001164,1200,,,,-0.0625,0.09375,-1,0.029421735485522703,0.47993055870043827,22.941820134697224,0.4082802321150436,1581,0,9.366691649735763,4.870930396546467,52.002676918310605,0.09852954561631866,0.05123800127593367,0.099609375,,
0.7418250000000699,1200,,,,-0.03125,0.0078125,-0.9765625,0.029421735485522703,0.47993055870043827,22.9417969834568,0.40641219157234143,1580,0,9.32382599065441,4.868858461307321,52.21953376422452,0.09857147471310426,0.051473564519703516,0.099609375,,
0.7496450000000187,1200,,,,0,0.01953125,-0.951171875,0.029421735485522703,0.47993055870043827,22.941807231442606,0.4045456201888731,1580,0,9.281007634697522,4.8680011666350405,52.451213900910595,0.09858883395300945,0.05171104017910656,0.099609375,,
0.7575700000000652,1200,,,,-0.0625,0.09375,-0.974609375,0.029421735485522703,0.47993055870043827,22.94162516428644,0.4041002527059896,1580,0,9.27071652637424,4.868106590864633,52.51057539096754,0.09858669890282683,0.05176844285283505,0.099609375,,
0.7655849999999628,1200,,,,0,0.0078125,-1.0625,0.029421735485522703,0.47993055870043827,22.941741574111408,0.40324064593622977,1580,0,9.251042691246742,4.869018403094414,52.63210392166321,0.0985682367508464,0.05187853680045651,0.099609375,,
0.7729900000001071,1200,,,,0,-0.01953125,-0.984375,0.029421735485522703,0.47993055870043827,22.941754174268972,0.40032585647216,1580,0,9.184177388787978,4.869376944755549,53.01919528144211,0.09856097898055242,0.052256237917000216,0.099609375,,
0.7810250000000233,1200,,,,-0.125,0.171875,-1.05859375,0.029421735485522703,0.47993055870043827,22.941733712493754,0.39859024870391324,1580,0,9.144351346161836,4.869519903458985,53.25167110407314,0.09855808544072842,0.0524838275053681,0.099609375,,
0.7890899999999674,1200,,,,-0.0625,0.02734375,-0.921875,0.029421735485522703,0.47993055870043827,22.941833810497513,0.3955666984310868,1580,0,9.075025456373181,4.869162951207179,53.65453766069249,0.09856531061082117,0.05288476170206158,0.099609375,,
0.7968300000000745,1200,,,,0,-0.05859375,-0.984375,0.031338177570054804,0.47993055870043827,22.941874598236634,0.39300065149030894,1580,0,9.016171663515967,5.186152994601451,57.52056624639561,0.09254076368360596,0.05322997127954898,0.099609375,,
0.8047449999999954,1200,,,,-0.03125,0.072265625,-0.970703125,0.031338177570054804,0.47993055870043827,22.94188078766087,0.39120203500153095,1580,0,8.97491045089546,5.186084925455865,57.78425259873685,0.09254197831290847,0.05347469050819932,0.099609375,,
0.8133300000000745,1200,,,,-0.03125,0.05859375,-0.98046875,0.031338177570054804,0.47993055870043827,22.941985491096972,0.3901146227014432,1579,0,8.95000401388128,5.182342636818397,57.90324371677025,0.09260880500079839,0.0536235020628008,0.099609375,,
0.8213150000000605,1200,,,,-0.0625,0.029296875,-0.94140625,0.031338177570054804,0.47993055870043827,22.942022283297693,0.3892193109253158,1579,0,8.929478104338369,5.180806752276196,58.019143915691004,0.09263625949560463,0.05374676471486783,0.099609375,,
0.8304300000000512,1200,,,,0,-0.05078125,-0.97265625,0.031338177570054804,0.5582627093588934,22.94228295159426,0.3883461779304342,1579,0,8.909547897250192,5.180308427528445,58.14333664592874,0.10776630719365174,0.06265892678249066,0.099609375,,
0.8389000000000233,1200,,,,-0.03125,0.091796875,-0.99609375,0.031338177570054804,0.5582627093588934,22.942204055831546,0.38836928652425545,1578,0,8.910047420457177,5.17919249617413,58.12755254571231,0.10778952699118292,0.0626554139405746,0.099609375,,
0.8466050000000978,1200,,,,-0.09375,0.078125,-0.978515625,0.031338177570054804,0.5582627093588934,22.942391631579934,0.38742181505429985,1578,0,8.888383007593278,5.177322195892104,58.24818970412454,0.10782846580455077,0.0628081293168818,0.099609375,,
0.855170000000042,1200,,,,0,-0.0546875,-0.91796875,0.031338177570054804,0.5582627093588934,22.94234025452381,0.3865347596461397,1577,0,8.868011976002316,5.176594654652245,58.37378962343085,0.1078436204884573,0.06295240814622323,0.099609375,,
0.8637550000000046,1200,,,,-0.03125,0.021484375,-0.998046875,0.031338177570054804,0.5582627093588934,22.94243105304438,0.3858238305298115,1577,0,8.85173663055168,5.1762880071507835,58.47765498676133,0.1078500092320368,0.06306815630190073,0.099609375,,
0.8721500000000233,1200,,,,-0.0625,0.076171875,-0.970703125,0.031338177570054804,0.5582627093588934,22.942311563166186,0.3846860127778064,1577,0,8.825586359140562,5.176645626400371,58.65497674314837,0.10784255860818631,0.06325502767084783,0.099609375,,
0.8800400000000372,1200,,,,-0.125,0.10546875,-0.98046875,0.031338177570054804,0.5582627093588934,22.94219705100252,0.38413291663538457,1577,0,8.812853067225317,5.176787054885544,58.74132945819588,0.10783961237734091,0.06334642199301521,0.099609375,,
0.8881550000000279,1200,,,,0,-0.03125,-0.955078125,0.031338177570054804,0.5582627093588934,22.941895390620402,0.3846729279271188,1577,0,8.825126072107622,5.176841802888669,58.66025890837311,0.10783847191300762,0.06325832682700347,0.099609375,,
0.895910000000149,1200,,,,-0.0625,0.14453125,-0.96875,0.031338177570054804,0.5582627093588934,22.941998618682142,0.3839131443501328,1579,0,8.807734827374665,5.181022721824957,58.82355478870919,0.10775144972964945,0.06338323306734879,0.099609375,,
0.9035800000000745,1200,,,,-0.03125,0.0546875,-0.978515625,0.031338177570054804,0.5582627093588934,22.942096365768016,0.38287686821880024,1579,0,8.783998006899177,5.182668313001265,59.001246458966236,0.10771723669030352,0.063554512298434,0.099609375,,
0.9110900000000838,1200,,,,-0.03125,-0.00390625,-1,0.031338177570054804,0.5582627093588934,22.94217959040063,0.382278577878097,1579,0,8.770303787242256,5.183280959433005,59.10035826778176,0.10770450487406365,0.06365374825111209,0.1015625,,
0.918890000000014,1200,,,,-0.0625,0.015625,-1.015625,0.031338177570054804,0.5582627093588934,22.94233143997501,0.3810214999237408,1580,0,8.741521537006875,5.183560140922539,59.298145282582084,0.10769870401456114,0.06386333397401253,0.099609375,,
0.9271650000000372,1200,,,,-0.03125,0.064453125,-1.015625,0.031338177570054804,0.5582627093588934,22.94221517794908,0.3784814728831906,1580,0,8.68320339175326,5.1841412461882275,59.703095877171165,0.10768663175783845,0.06429225300527855,0.1015625,,
0.9356500000000233,1200,,,,-0.125,0.0625,-0.9765625,0.031338177570054804,0.5582627093588934,22.942494560451422,0.3776134988514679,1580,0,8.663395643352832,5.1843632522861265,59.842161961793074,0.10768202037400035,0.0644392490359403,0.1015625,,
0.9441100000001025,1200,,,,0,-0.052734375,-0.94921875,0.031338177570054804,0.5582627093588934,22.942429625250323,0.37689869705714063,1580,0,8.64697183308199,5.184458916834823,59.95693078355914,0.10768003340640217,0.06456164309718991,0.1015625,,
0.951329999999958,1200,,,,0,0.072265625,-0.9765625,0.030712665036881356,0.5582627093588934,22.942311946583054,0.3765250219673739,1579,0,8.63835450966953,5.07920455189777,58.798287870823685,0.10991144452930268,0.06462604755732008,0.099609375,,
0.960140000000014,1200,,,,-0.03125,0.068359375,-0.94921875,0.030712665036881356,0.5582627093588934,22.9422965190028,0.3761607015302492,1579,0,8.629990353303088,5.078490467626154,58.84700051469219,0.10992689912832364,0.06468868289582978,0.099609375,,
0.9690300000000279,1200,,,,-0.0625,0.0390625,-1,0.030712665036881356,0.5582627093588934,22.94238930527616,0.37625382961281045,1579,0,8.63216183657814,5.078198120791077,58.82881040613248,0.10993322751100694,0.06467240998579254,0.099609375,,
0.9767800000001443,1200,,,,0,0.052734375,-0.99609375,0.030712665036881356,0.5936713758193088,22.94240284166316,0.37675546100983004,1579,0,8.643675559284038,5.078775922194197,58.75713274243806,0.11689261052549517,0.06868274633256631,0.099609375,,
0.9879100000000326,1200,,,,-0.0625,0.064453125,-0.96875,0.030712665036881356,0.5936713758193088,22.942481278250398,0.37542414097644666,1579,0,8.613161325755366,5.079686687406671,58.975868386642425,0.1168716522007375,0.06892607178320145,0.099609375,,
1.0007750000000233,1200,,,,-0.03125,-0.0234375,-0.95703125,0.030712665036881356,0.5936713758193088,22.942631853499282,0.3777103642133407,1580,0,8.665669833397805,5.080154842401667,58.623914135553214,0.11686088204717947,0.06850842314938863,0.099609375,,
1.009625,1200,,,,-0.041015625,0.046875,-0.98828125,0.030712665036881356,0.5936713758193088,22.942603553937452,0.3770361860048784,1580,0,8.650191740998546,5.081263043188624,58.74162325333684,0.11683539521047205,0.06863100768108264,0.099609375,,
1.0176750000000465,1200,,,,-0.0625,0.078125,-0.9140625,0.030712665036881356,0.5936713758193088,22.942829764261887,0.37563272722573077,1580,0,8.618077714625363,5.082078714207612,58.96998011033294,0.11681664318965057,0.06888675125449555,0.09765625,,
1.0249750000000932,1200,,,,-0.03125,-0.005859375,-0.97265625,0.030712665036881356,0.5936713758193088,22.942966486324845,0.37591613356352205,1580,0,8.6246312540167,5.082331027544627,58.9280964931418,0.11681084380411227,0.06883440675134044,0.09765625,,
1.0334750000000932,1200,,,,0,0.07421875,-0.96484375,0.030712665036881356,0.5936713758193088,22.942951879504218,0.37643516848430925,1580,0,8.63653395628857,5.0824490685266435,58.84824970584328,0.11680813084692826,0.0687395405175285,0.09765625,,
1.0444200000000419,1200,,,,-0.0625,0.08203125,-0.99609375,0.030712665036881356,0.5936713758193088,22.94273780485019,0.37590986267573806,1580,0,8.624401417626698,5.082504984101946,58.93168392781713,0.11680684577315918,0.068836241157091,0.09765625,,
1.0524500000000698,1200,,,,-0.0625,-0.046875,-0.9453125,0.030712665036881356,0.5936713758193088,22.94262152212319,0.37691506312619427,1580,0,8.647419639291446,5.082517031421701,58.77495534422975,0.11680656890061514,0.06865300871046351,0.09765625,,
1.060335000000079,1200,,,,-0.03125,0.083984375,-1.0078125,0.030712665036881356,0.5936713758193088,22.94255149399933,0.37673063177305277,1580,0,8.643161918820162,5.080130206609033,58.77629337878351,0.11686144875715344,0.06868682796820126,0.09765625,,
1.0686800000000511,1200,,,,-0.0625,0.080078125,-0.970703125,0.030712665036881356,0.5936713758193088,22.942623150291386,0.3760356626202075,1579,0,8.627244498565533,5.079309627133453,58.875225200560834,0.11688032811544742,0.06881355639312409,0.09765625,,
1.076329999999958,1200,,,,-0.0625,0.08203125,-0.9921875,0.030712665036881356,0.5936713758193088,22.942741627536048,0.3766846135622697,1579,0,8.642177764027414,5.079009446071003,58.77001821476178,0.11688723600987952,0.06869464989373779,0.09765625,,
1.084100000000093,1200,,,,0,-0.009765625,-0.96875,0.030712665036881356,0.5936713758193088,22.942803766990085,0.37535031931394697,1579,0,8.611588719896954,5.078567276844438,58.97363938329382,0.11689741288377417,0.06893865872247702,0.09765625,,
1.0918249999999534,1200,,,,-0.0625,0.1171875,-1.015625,0.030712665036881356,0.5936713758193088,22.942861909700472,0.3758949610109835,1579,0,8.624106183027237,5.078245090115177,58.88430618015199,0.11690482938188476,0.06883859767261331,0.09765625,,
1.1001049999999815,1200,,,,-0.03125,0.05859375,-0.982421875,0.030421269062067716,0.5936713758193088,22.942819473820112,0.3749222586556999,1579,0,8.601773697054613,5.029935978537514,58.475567431631525,0.11802762069984091,0.06901732093028576,0.09765625,,
1.108109999999986,1200,,,,-0.0625,0,-0.97265625,0.030421269062067716,0.5936713758193088,22.942877452692414,0.3752801529189195,1579,0,8.61000655884644,5.029885905981637,58.41907171154974,0.11802879566578307,0.06895132678027231,0.09765625,,
1.1160750000000699,1200,,,,-0.0625,0.109375,-1.03515625,0.030421269062067716,0.5936713758193088,22.942997390012728,0.3749827546365051,1580,0,8.60322836092512,5.032106521040948,58.49090957408733,0.11797671081424191,0.06900565124084074,0.09765625,,
1.1252050000000744,1200,,,,-0.0625,0.06640625,-0.955078125,0.030421269062067716,0.6085001041108739,22.943052482413755,0.37466470462869494,1580,0,8.595951981604196,5.033040086486961,58.55128201341678,0.12090110423412186,0.07078914649745567,0.09765625,,
1.1331149999999908,1200,,,,-0.0625,-0.01953125,-0.955078125,0.030421269062067716,0.6085001041108739,22.942901712873198,0.37482318008240506,1580,0,8.59953138033719,5.033357180957402,58.53059845175008,0.1208934876334626,0.07075968180105813,0.095703125,,
1.1427449999999952,1200,,,,0.0625,0.03515625,-0.97265625,0.030421269062067716,0.6085001041108739,22.9426889912682,0.37410454320980857,1580,0,8.582964185083092,5.033027837976237,58.63973948211824,0.12090139846227228,0.07089626508851415,0.095703125,,
1.15125,1200,,,,-0.0625,0.103515625,-1.02734375,0.030421269062067716,0.6085001041108739,22.94284624151985,0.37407038648043467,1580,0,8.582239360526518,5.032889458595666,58.64307958764389,0.12090472264826266,0.07090225272784077,0.095703125,,
1.1596600000000326,1200,,,,-0.0625,0.02734375,-0.943359375,0.030421269062067716,0.6085001041108739,22.94290830134647,0.37357479988585157,1580,0,8.57089237747495,5.032845329340613,58.720202140997216,0.1209057827713131,0.07099612004347003,0.095703125,,
1.1678600000001025,1200,,,,-0.03125,0.00390625,-1.005859375,0.030421269062067716,0.6085001041108739,22.94276109880439,0.37730782306929395,1579,0,8.656483245388767,5.031308005319166,58.12184766832766,0.12094272572213019,0.07029414681013985,0.095703125,,
1.1764000000001398,1200,,,,-0.0625,0.140625,-1.0625,0.030421269062067716,0.6085001041108739,22.942756593922365,0.38003790950698824,1579,0,8.719117254281926,5.029994932180572,57.68926813904653,0.12097429765144527,0.06978918695147054,0.095703125,,
1.1844949999999954,1200,,,,-0.09375,0.048828125,-0.970703125,0.030421269062067716,0.6085001041108739,22.942677355285362,0.37894889583717645,1579,0,8.694102251333979,5.029424304476622,57.84869051551508,0.12098802313601899,0.06998998706479541,0.095703125,,
1.1929300000000511,1200,,,,0,0.0234375,-0.951171875,0.030421269062067716,0.6085001041108739,22.942735381602116,0.3768088989896263,1583,0,8.645026858951837,5.041411593082838,58.31574239543868,0.12070034213151286,0.07038730058782619,0.09765625,,
1.201160000000149,1200,,,,-0.0625,0.03515625,-1.0625,0.030421269062067716,0.6085001041108739,22.942731690369076,0.37499071250435084,1586,0,8.603311303367649,5.0539860210271454,58.74466054772226,0.12040003703595632,0.07072859305610443,0.09765625,,
1.2093449999999721,1200,,,,-0.0625,0.0234375,-0.96484375,0.030421269062067716,0.6085001041108739,22.94279394176303,0.37438657823191057,1588,0,8.589474118936469,5.058342029114771,58.890008387860235,0.12029635414301228,0.07084253304511,0.09765625,,
1.2170899999999674,1200,,,,-0.03125,0.10546875,-0.9765625,0.030421269062067716,0.6085001041108739,22.942591066476155,0.37306502118040347,1588,0,8.559078222148262,5.060060939880816,59.119227661536435,0.12025548927978057,0.07109411648280801,0.09765625,,
1.2261200000001118,1200,,,,0,0.03125,-0.98046875,0.030421269062067716,0.6085001041108739,22.94274253611951,0.3730907411926134,1587,0,8.559724817792127,5.056440641255496,59.07246726840153,0.1203415895256679,0.07108874608282428,0.095703125,,
1.2341850000000558,1200,,,,-0.0625,0.03515625,-1.00390625,0.030421269062067716,0.6085001041108739,22.943003137223485,0.37192968668765175,1587,0,8.533183968501342,5.055218238544835,59.241875684448274,0.12037068933467707,0.07130985413616284,0.09765625,,
1.2423350000000792,1200,,,,-0.0625,0.060546875,-1.029296875,0.030421269062067716,0.6085001041108739,22.942986883358017,0.37095830081693115,1587,0,8.51089142991563,5.054746368506353,59.391503347569575,0.12038192616391985,0.07149663570751319,0.09765625,,
1.2500750000000698,1200,,,,-0.0625,0.12109375,-0.9375,0.030525513298806723,0.6085001041108739,22.94303721662605,0.37119398701416706,1584,0,8.516317458653841,5.064112114356102,59.4636371758337,0.12015928762435073,0.07145108282601038,0.09765625,,
1.2577099999999628,1200,,,,-0.03125,0.009765625,-0.953125,0.030525513298806723,0.6085001041108739,22.943084072401078,0.37077998228827586,1583,0,8.506836306003295,5.061040028618802,59.493798241388674,0.12023222512961201,0.07153071743974358,0.095703125,,
1.2662449999999954,1200,,,,0,0.02734375,-0.990234375,0.030525513298806723,0.6085001041108739,22.94312911350142,0.37070177359993495,1583,0,8.50505865430728,5.059813122970843,59.49180750691666,0.12026137909093293,0.07154566815394113,0.095703125,,
1.2742150000000838,1200,,,,-0.125,0.046875,-0.97265625,0.030525513298806723,0.6280611578794516,22.94326979015898,0.36903424086639175,1582,0,8.466852150004138,5.057525270057001,59.73324182889539,0.1241834937727109,0.07417882664682465,0.095703125,,
1.2821049999999814,1200,,,,-0.0625,0.029296875,-0.931640625,0.030525513298806723,0.6280611578794516,22.94337198504998,0.36796665431373576,1582,0,8.442395828014336,5.056614540296211,59.8954922667436,0.12420586004221322,0.0743937112964262,0.095703125,,
1.289685000000056,1200,,,,-0.03125,0.025390625,-1.03125,0.030525513298806723,0.6280611578794516,22.943401858050194,0.3677152663630698,1582,0,8.436639125507877,5.056266576244921,59.93223724548653,0.1242144076877146,0.07444447350847698,0.095703125,,
1.298935000000056,1200,,,,-0.0625,0.140625,-0.98046875,0.030525513298806723,0.6280611578794516,22.943427655948522,0.3677788522582758,1582,0,8.43810749017553,5.056133138781157,59.92022671751932,0.12421768585604401,0.0744315189881975,0.095703125,,
1.3081650000000373,1200,,,,-0.03125,0.046875,-0.970703125,0.030525513298806723,0.6280611578794516,22.94329844906154,0.3678659749245547,1580,0,8.440058851949047,5.0510207068083615,59.84579960176391,0.12434341380404097,0.07441431024315838,0.095703125,,
1.324600000000093,1200,,,,-0.0625,0.1015625,-1.02734375,0.030525513298806723,0.6280611578794516,22.94337351659487,0.3687138220362083,1579,0,8.459538939708015,5.048891259359789,59.68281835858603,0.12439585754894852,0.07424295370654437,0.095703125,,
1.332295000000042,1200,,,,-0.03125,0.056640625,-1.005859375,0.030525513298806723,0.6280611578794516,22.943403953648172,0.36873696918735915,1580,0,8.4600812367095,5.050496611515171,59.697968260639676,0.12435631704958822,0.07423819468236363,0.095703125,,
1.3401999999999534,1200,,,,-0.0625,0.017578125,-0.99609375,0.030525513298806723,0.6280611578794516,22.943254770497088,0.3681860869532397,1580,0,8.447387195920571,5.05109894467106,59.79480787988914,0.12434148781465862,0.07434975375377087,0.095703125,,
1.3482850000000326,1200,,,,0,-0.0625,-0.97265625,0.030525513298806723,0.6280611578794516,22.94348687276673,0.3679168606818755,1580,0,8.441295663324157,5.051374937855403,59.841227452826686,0.1243346941389584,0.07440340712247047,0.095703125,,
1.3562000000000698,1200,,,,-0.03125,0.087890625,-0.95703125,0.030525513298806723,0.6280611578794516,22.943446713174666,0.3677666292870301,1580,0,8.437834061930836,5.051183575906701,59.86350927065796,0.12433940450614346,0.0744339309436161,0.095703125,,
1.3642150000000839,1200,,,,-0.0625,0.125,-1,0.030525513298806723,0.6280611578794516,22.94340896319361,0.3674154905974138,1580,0,8.429763860188881,5.050959269326324,59.91815848105085,0.1243449262585758,0.07450518997875925,0.095703125,,
1.372625,1200,,,,-0.03125,0.015625,-0.9609375,0.030525513298806723,0.6280611578794516,22.943438314265176,0.36750358289965024,1580,0,8.431795784529564,5.050868330462841,59.9026406655868,0.12434716503922379,0.0744872354512904,0.095703125,,
1.3801600000000327,1200,,,,-0.03125,0.119140625,-1.021484375,0.030525513298806723,0.6280611578794516,22.943400809633548,0.3675856408285475,1580,0,8.433664689395364,5.0505343197438295,59.88540576073007,0.12435538858219417,0.07447072903777957,0.095703125,,
1.3882700000000185,1200,,,,-0.0625,0.03515625,-0.966796875,0.030525513298806723,0.6280611578794516,22.94333171622868,0.36830771107750016,1580,0,8.450205988895998,5.049796952811105,59.75945390499115,0.12437354684723005,0.07432495239817301,0.095703125,,
1.3967200000000886,1200,,,,-0.0625,-0.01953125,-0.91015625,0.030525513298806723,0.6280611578794516,22.94329901778017,0.36792433653988665,1580,0,8.441398069153003,5.049508531655967,59.818391340981115,0.12438065089742137,0.07440250450627904,0.095703125,,
1.4048950000000187,1200,,,,-0.03125,0.017578125,-1.001953125,0.0313472108456292,0.6280611578794516,22.9433370822513,0.36834644930771393,1580,0,8.451096749517271,5.185310599695089,61.35665882645676,0.12112315083235002,0.07431711841605962,0.095703125,,
1.4126150000001072,1200,,,,-0.0625,0.0703125,-1.005859375,0.0313472108456292,0.6280611578794516,22.943239345972742,0.369448085079972,1579,0,8.476335841901099,5.182496426740316,61.140763218956764,0.12118892251209697,0.0740958321607262,0.095703125,,
1.4201000000000932,1200,,,,-0.0625,0.06640625,-0.9453125,0.0313472108456292,0.6280611578794516,22.943272447319384,0.3700033085006345,1578,0,8.489086713339622,5.1814552284745385,61.036662758226726,0.12121327507144314,0.07398453792355845,0.095703125,,
1.4285850000000793,1200,,,,0,-0.0390625,-0.951171875,0.0313472108456292,0.6380744831071636,22.94330896577546,0.37028900636543444,1578,0,8.495655079672158,5.180966687789458,60.98372214034599,0.1231574185973792,0.07510597795264853,0.095703125,,
1.4363300000000745,1200,,,,-0.0625,0.078125,-0.9453125,0.0313472108456292,0.6380744831071636,22.943278230258446,0.37002842969279015,1578,0,8.48966521554731,5.181695320306397,61.035331650263956,0.12314010061661322,0.07515896880581861,0.095703125,,
1.445630000000121,1200,,,,0,0.04296875,-0.9609375,0.0313472108456292,0.6380744831071636,22.943244543575698,0.37046064551422153,1579,0,8.499569183803693,5.182500220869618,60.973681239575086,0.12312097557423651,0.07507139118569008,0.09375,,
1.4564150000000373,1200,,,,-0.03125,0.025390625,-1.005859375,0.0313472108456292,0.6380744831071636,22.943138999472705,0.37015041654846953,1579,0,8.492412457584258,5.182788697685104,61.028461860169635,0.12311412259430142,0.07513465535194572,0.09375,,
1.4723649999999906,1200,,,,0,-0.0625,-1.01953125,0.0313472108456292,0.6380744831071636,22.943149274037783,0.37078691477299935,1580,0,8.50701953449685,5.185148068107213,60.95140662462215,0.1230581026281254,0.07500564451741355,0.09375,,
1.4799850000001025,1200,,,,-0.09375,0.068359375,-0.98828125,0.0313472108456292,0.6380744831071636,22.943093387547133,0.3719762726801699,1580,0,8.534286362052836,5.185665041888317,60.7627260428716,0.12304583461387897,0.07476600339359615,0.09375,,
1.4875550000000513,1200,,,,-0.03125,0.01953125,-0.95703125,0.0313472108456292,0.6380744831071636,22.943305741316433,0.3712919447514006,1580,0,8.518664607719353,5.185857309366797,60.876411364611435,0.1230412726464072,0.07490311128447996,0.09375,,
1.4952900000000373,1200,,,,0,0.10546875,-0.9453125,0.0313472108456292,0.6380744831071636,22.943405187486057,0.37097619873602367,1580,0,8.511457242513943,5.185021271578034,60.918138032572514,0.12306111193888487,0.07496653803534846,0.09375,,
1.5029950000001118,1200,,,,-0.0625,0.0625,-0.962890625,0.0313472108456292,0.6380744831071636,22.943434139764484,0.3702553322346354,1579,0,8.494928830021976,5.184692855115754,61.03279920124229,0.12306890705735313,0.07511239892347785,0.09375,,
1.5110350000000325,1200,,,,-0.0625,-0.01171875,-0.97265625,0.0313472108456292,0.6380744831071636,22.943527685812015,0.36849273583888487,1579,0,8.454523286740068,5.184561610489157,61.3229325256048,0.12307202248619088,0.075471373307104,0.09375,,
1.5186300000000046,1200,,,,-0.03125,0.072265625,-0.96484375,0.0313472108456292,0.6380744831071636,22.943357970329316,0.36789976966953664,1580,0,8.440856112729882,5.185121493542202,61.42885774018089,0.12305873332029962,0.07559357422819545,0.09375,,
1.5256050000000978,1200,,,,-0.03125,0.04296875,-1.009765625,0.0313472108456292,0.6380744831071636,22.943125836324754,0.36739157357376734,1580,0,8.429111103708308,5.185621148332175,61.52037960504293,0.12304687613216483,0.07569890528865478,0.09375,,
1.5345600000000559,1200,,,,-0.0625,0.1015625,-0.9921875,0.0313472108456292,0.6380744831071636,22.942969112110724,0.3737898503414696,1580,0,8.575848990804827,5.1858565280689835,60.47047392776328,0.1230412911837263,0.0744036519056385,0.091796875,,
1.544335000000079,1200,,,,-0.0625,-0.025390625,-0.974609375,0.0313472108456292,0.6380744831071636,22.942880105467708,0.3777962794136027,1580,0,8.667734742878066,5.185951684351353,59.83053056177617,0.1230390335167522,0.07361490655115445,0.09375,,
1.553380000000121,1200,,,,0,0.0625,-0.978515625,0.03192634912550848,0.6380744831071636,22.942785581278773,0.37461162491169586,1585,0,8.594634186603468,5.297620501392136,61.63869673068324,0.12044548735408418,0.07424102867597739,0.091796875,,
1.5610650000000605,1200,,,,-0.0625,0.005859375,-0.958984375,0.03192634912550848,0.6380744831071636,22.942845115568073,0.37306952053438064,1586,0,8.559276226959538,5.302259427624149,61.94752087709686,0.12034011006380987,0.07454771480529997,0.09375,,
1.5694400000000606,1200,,,,0.0625,0.07421875,-0.99609375,0.03192634912550848,0.6380744831071636,22.94296678065033,0.3720309962789799,1586,0,8.535494789000882,5.304087973818703,62.14154076520232,0.12029862367606602,0.07475541827163988,0.09375,,
1.5843100000000558,1200,,,,-0.09375,0.0390625,-0.92578125,0.03192634912550848,0.6438998856192626,22.94325003876397,0.3693347281071723,1590,0,8.473739014961762,5.314232352944803,62.71413768540266,0.12116517360451037,0.0759876938010898,0.09375,,
1.599685000000056,1200,,,,-0.03125,0.107421875,-0.96484375,0.03192634912550848,0.6438998856192626,22.943275141354064,0.37144192855304903,1588,0,8.522094365827781,5.310261362932896,62.31169399186876,0.12125578038660456,0.07555653082195345,0.09375,,
1.6091250000001165,1200,,,,-0.0625,0.03125,-1.1015625,0.03192634912550848,0.6438998856192626,22.94330846894246,0.3707404157526424,1588,0,8.506011720516847,5.307813374261832,62.400729609379326,0.1213117041269016,0.07569938847675814,0.09375,,
1.6251500000001398,1200,,,,-0.03125,0.00390625,-0.978515625,0.03192634912550848,0.6438998856192626,22.943513547025606,0.3677234832141133,1587,0,8.436868718682451,5.305354275295829,62.8829777041303,0.12136793363971127,0.07631977065062329,0.091796875,,
1.6318700000001118,1200,,,,0.0625,0.06640625,-0.98828125,0.03192634912550848,0.6438998856192626,22.94369367695968,0.3688274772791197,1587,0,8.462264658337928,5.3044679599865034,62.68378707300267,0.12138821281916103,0.07609072885528623,0.091796875,,
1.639625,1200,,,,-0.09375,0.076171875,-1.001953125,0.03192634912550848,0.6438998856192626,22.94380221670912,0.3691507879109643,1586,0,8.469722665971501,5.304021271289062,62.62331696643193,0.12139843576886195,0.0760237272238247,0.091796875,,
1.654685000000056,1200,,,,-0.03125,-0.009765625,-0.998046875,0.03192634912550848,0.6438998856192626,22.943629031817945,0.3687803138522579,1584,0,8.461158715263599,5.2971547692057435,62.60554786249174,0.1215557999857741,0.07610067453972852,0.09375,,
1.6622650000001304,1200,,,,0,0.078125,-0.9921875,0.03192634912550848,0.6438998856192626,22.94364538129092,0.36851162236703827,1584,0,8.454999982473522,5.294190770186727,62.616094395755454,0.1216238540638293,0.07615610726836321,0.091796875,,
1.6740700000000652,1200,,,,-0.0625,0.08984375,-0.9453125,0.03192634912550848,0.6438998856192626,22.943841348607997,0.36771158885271554,1583,0,8.436716356681279,5.292650213161536,62.733532685025416,0.12165925570105501,0.07632114893958,0.091796875,,
1.6914400000000605,1200,,,,-0.0625,0.072265625,-1.001953125,0.03192634912550848,0.6438998856192626,22.94360544079297,0.3678558152384027,1581,0,8.439938683931151,5.285720708302777,62.62747759490589,0.12181874925926918,0.07629200989874338,0.091796875,,
1.700140000000014,1200,,,,-0.0625,0.021484375,-0.982421875,0.03205797037091725,0.6438998856192626,22.943409114604922,0.36792848262092537,1581,0,8.441533701687698,5.3060076861614744,62.855967572582884,0.12135298772721514,0.07627759461417882,0.091796875,,
1.707975000000093,1200,,,,0,-0.0390625,-1.015625,0.03205797037091725,0.6438998856192626,22.943242049794783,0.3682028828039845,1581,0,8.447767863604037,5.307862209993888,62.83153485859893,0.12131058798152262,0.07622130437478171,0.091796875,,
1.7165300000000279,1200,,,,-0.03125,0.08203125,-0.974609375,0.03205797037091725,0.6438998856192626,22.943280070889312,0.368252419169894,1581,0,8.448918389797406,5.308603258759441,62.83174974408452,0.1212936537603932,0.0762109249861866,0.091796875,,
1.7256100000001025,1200,,,,-0.03125,0.0546875,-0.9375,0.03205797037091725,0.6595415499249528,22.943173946820924,0.3701987223979303,1581,0,8.493533682866586,5.308902519614792,62.50522712736245,0.12423312492330493,0.07765219690073168,0.091796875,,
1.7347100000000792,1200,,,,-0.03125,-0.01171875,-0.98046875,0.03205797037091725,0.6595415499249528,22.943219609564274,0.37086218357435974,1581,0,8.508772522629076,5.308842836483544,62.39258156643251,0.12423452157830651,0.07751312520941209,0.091796875,,
1.7425000000001165,1200,,,,-0.0625,0.16796875,-0.98828125,0.03205797037091725,0.6595415499249528,22.943323279882392,0.3701411625983265,1581,0,8.492268352684919,5.308506573125295,62.509877840199856,0.12424239112068361,0.07766376691528264,0.091796875,,
1.7501500000001398,1200,,,,-0.0625,0.064453125,-1.015625,0.03205797037091725,0.6595415499249528,22.943547699383846,0.3682230122240206,1581,0,8.448342244972617,5.308375636495797,62.83334034738791,0.1242454556890277,0.07806757003924983,0.091796875,,
1.7618150000000605,1200,,,,-0.0625,-0.03515625,-0.96875,0.03205797037091725,0.6595415499249528,22.943504376261394,0.3684842530107263,1581,0,8.45432007153501,5.30832227288568,62.78828135166491,0.12424670470627183,0.07801237052114623,0.091796875,,
1.7695350000000325,1200,,,,-0.01953125,0.044921875,-1.001953125,0.03205797037091725,0.6595415499249528,22.943447252616764,0.36823632188221117,1581,0,8.44861062760212,5.307745780502322,62.823889210393915,0.12426019956489591,0.0780650901072646,0.091796875,,
1.778070000000065,1200,,,,0,0.07421875,-1,0.03205797037091725,0.6595415499249528,22.94353866797936,0.3684926402791048,1581,0,8.45452514110945,5.307600914840668,62.778226171838845,0.12426359112283633,0.07801047828434325,0.091796875,,
1.7867750000000233,1200,,,,-0.0625,0.03515625,-0.955078125,0.03205797037091725,0.6595415499249528,22.943416599985667,0.36756930642385766,1581,0,8.433295726650353,5.306530844842517,62.923571244788235,0.12428864906457095,0.07820685664333012,0.091796875,,
1.7953300000000745,1200,,,,-0.03125,0.0546875,-0.96484375,0.03205797037091725,0.6595415499249528,22.943231065237608,0.3676572886330998,1580,0,8.435246125927966,5.304157962224995,62.880891476554055,0.12434425117465535,0.07818877363846882,0.091796875,,
1.8036500000001396,1200,,,,-0.0625,0.021484375,-0.998046875,0.03205797037091725,0.6595415499249528,22.943335491469202,0.3666549215580527,1580,0,8.412286874904726,5.303336135116136,63.0427399110328,0.12436352007895304,0.07840217050757942,0.091796875,,
1.8123800000001211,1200,,,,-0.0625,-0.05859375,-0.94921875,0.03205797037091725,0.6595415499249528,22.94322616452893,0.3663191462572762,1580,0,8.404543020977838,5.302999326286955,63.09681933985709,0.1243714187659061,0.07847440940914091,0.091796875,,
1.820630000000121,1200,,,,-0.03125,0.033203125,-0.978515625,0.03205797037091725,0.6595415499249528,22.94316653466109,0.36709330654049577,1579,0,8.422282865717987,5.301470587453557,62.945767459706595,0.12440728266715687,0.07830911885060843,0.091796875,,
1.8287050000000744,1200,,,,-0.0625,0.080078125,-1.01953125,0.03205797037091725,0.6595415499249528,22.94300994184537,0.36784058483375637,1579,0,8.439370194855089,5.300859496221555,62.81107918992734,0.12442162452996028,0.07815056511290742,0.091796875,,
1.8363850000001258,1200,,,,0,0.1015625,-0.9921875,0.03205797037091725,0.6595415499249528,22.943058213398707,0.3670601127651292,1579,0,8.421481534987052,5.300621743433078,62.94167744014685,0.12442720530701072,0.07831657021212798,0.091796875,,
1.843725000000093,1200,,,,-0.03125,-0.015625,-0.96484375,0.03205797037091725,0.6595415499249528,22.94309893987764,0.36743392031669264,1579,0,8.430072787692996,5.300239682027478,62.87300021614595,0.12443617449252052,0.07823675625764619,0.08984375,,
1.8539749999999766,1200,,,,-0.03125,0.095703125,-1.017578125,0.032264632566741995,0.6595415499249528,22.943155455981703,0.36754404252161815,1579,0,8.432620104493434,5.334027116685906,63.2546830117913,0.12364795594341367,0.07821312258256569,0.091796875,,
1.8618250000000698,1200,,,,-0.03125,0.072265625,-0.958984375,0.032264632566741995,0.6595415499249528,22.943199304417657,0.36830488589180327,1579,0,8.450092401806446,5.33391573727548,63.12257290979688,0.12365053788079547,0.07805140092716113,0.091796875,,
1.869980000000098,1200,,,,-0.125,-0.04296875,-0.9609375,0.032264632566741995,0.6674486090339985,22.943175924136312,0.36872504889319124,1579,0,8.45972366439225,5.334549661150247,63.05820228625025,0.12511807958126342,0.07889721171902465,0.091796875,,
1.8778950000000185,1200,,,,-0.03125,0,-0.9765625,0.032264632566741995,0.6674486090339985,22.94332953139573,0.3680419966308623,1579,0,8.44410881009471,5.335608196152289,63.187345356963064,0.12509325731887908,0.07904310852035461,0.091796875,,
1.8857350000001025,1200,,,,-0.0625,0.0390625,-0.953125,0.032264632566741995,0.6674486090339985,22.9433003117797,0.37287487756474963,1579,0,8.554980294686137,5.335950504482911,62.37244646603449,0.12508523241983832,0.07801871962797849,0.091796875,,
1.8933500000000931,1200,,,,-0.09375,0.078125,-1.01953125,0.032264632566741995,0.6674486090339985,22.943134247808366,0.3785903800619748,1580,0,8.68604991469068,5.33772039689007,61.45164314405339,0.12504375639886942,0.07684144295615267,0.091796875,,
1.9018150000000604,1200,,,,0,0.029296875,-0.921875,0.032264632566741995,0.6674486090339985,22.94311172377725,0.3823195080250191,1581,0,8.771599186797566,5.341537849872235,60.89582681698413,0.12495439099995582,0.07609200954355032,0.091796875,,
1.9123250000000698,1200,,,,-0.0625,0.056640625,-1.0078125,0.032264632566741995,0.6674486090339985,22.943252648278474,0.38009143373209764,1581,0,8.720533793561911,5.343076082049771,61.27005764250799,0.12491841755282368,0.07653758644072389,0.091796875,,
1.9203950000000187,1200,,,,0,-0.03515625,-0.8984375,0.032264632566741995,0.6674486090339985,22.943369477035446,0.3776209779631381,1583,0,8.663897619687738,5.350173545740528,61.75250194072998,0.12475270256707452,0.07703791507384578,0.091796875,,
1.928390000000014,1200,,,,0,0.052734375,-1.046875,0.032264632566741995,0.6674486090339985,22.943396841507894,0.37669034214068353,1589,0,8.642556006097086,5.36739859377892,62.10429634465044,0.12435234636898486,0.07722814970052051,0.091796875,,
1.936420000000042,1200,,,,-0.09375,0.04296875,-0.97265625,0.032264632566741995,0.6674486090339985,22.943429792854808,0.3750947980351153,1591,0,8.605961164383721,5.375858774072524,62.46668642104537,0.12415664865547939,0.07755654438649735,0.091796875,,
1.9449050000001444,1200,,,,0,0.0625,-0.966796875,0.032264632566741995,0.6674486090339985,22.94335956697829,0.37352424311735993,1592,0,8.569901016825005,5.378746498202279,62.76322780907694,0.12408999183305584,0.07788288426244581,0.091796875,,
1.9525150000001303,1200,,,,0,0.06640625,-0.98046875,0.032264632566741995,0.6674486090339985,22.943195030939922,0.37246219020188365,1590,0,8.545472671452856,5.371194440699834,62.85426970754857,0.12426446601457125,0.07810552261944363,0.08984375,,
1.9605800000000746,1200,,,,-0.0625,-0.00390625,-0.984375,0.032264632566741995,0.6674486090339985,22.943332897633848,0.3726212976085127,1589,0,8.549174475780402,5.368207452625447,62.792114815687114,0.12433360948216843,0.07807170282053123,0.091796875,,
1.9685900000000838,1200,,,,-0.0625,0.00390625,-1.03515625,0.032264632566741995,0.6674486090339985,22.943365167789835,0.37266528583049996,1588,0,8.550195738167936,5.36704081714021,62.77097018003723,0.12436063592108916,0.07806237768973155,0.091796875,,
1.9768750000001165,1200,,,,-0.03125,0.087890625,-0.986328125,0.032264632566741995,0.6674486090339985,22.943397601698294,0.37049284982330155,1588,0,8.500364762082302,5.364434071997673,63.108280904919276,0.12442106661690149,0.07851999622549093,0.091796875,,
1.9850650000000605,1200,,,,-0.03125,0.03125,-0.9375,0.032264632566741995,0.6674486090339985,22.943500155941436,0.3701939093697027,1586,0,8.493544017352344,5.359084054261177,63.095970813979974,0.12454527719215172,0.07858305174735052,0.091796875,,
1.9920500000000465,1200,,,,-0.0625,0.0546875,-1.0546875,0.032264632566741995,0.6674486090339985,22.943577872526173,0.37070332379027593,1586,0,8.50526057698648,5.357332131465706,62.988453827758875,0.12458600524574759,0.07847479839006695,0.091796875,,
2.0000250000000235,1200,,,,-0.0625,0.0390625,-0.994140625,0.031820359022787854,0.6674486090339985,22.94350050791072,0.37158751851002136,1585,0,8.525518419667959,5.282734821964462,61.963795770793816,0.12634527977041218,0.07828833112297627,0.091796875,,
2.007869999999995,1200,,,,-0.125,0.1015625,-1.015625,0.031820359022787854,0.6674486090339985,22.94361094076425,0.37090659480031113,1583,0,8.50993660646203,5.27618892018495,62.00033166144233,0.1265020299937634,0.07843167815459055,0.091796875,,
2.0167800000000278,1200,,,,0,0.0234375,-0.9609375,0.031820359022787854,0.6674486090339985,22.943522516520343,0.37009743016880986,1582,0,8.491338722384404,5.273038258160233,62.099021491861315,0.12657761547644675,0.07860346063860424,0.091796875,,
2.02607500000007,1200,,,,-0.03125,0.091796875,-0.986328125,0.031820359022787854,0.6699465975971823,22.943326527617028,0.37004691393746897,1582,0,8.490107177004347,5.271901734144969,62.09464290891448,0.1270787338956041,0.07890908602564503,0.091796875,,
2.0348150000000604,1200,,,,-0.09375,0.076171875,-0.986328125,0.031820359022787854,0.6699465975971823,22.94321727721526,0.3695238229323602,1581,0,8.47806535864436,5.268011325841363,62.13695109663223,0.12717258110491703,0.07902116452948725,0.091796875,,
2.0432299999999812,1200,,,,0,-0.0390625,-0.984375,0.031820359022787854,0.6699465975971823,22.943255231872495,0.36971816374200034,1581,0,8.48253819459194,5.266701548041731,62.0887454582819,0.12720420769737414,0.07897949672944687,0.091796875,,
2.0516250000001164,1200,,,,-0.0625,0.072265625,-1.009765625,0.031820359022787854,0.6699465975971823,22.94329640265108,0.3704085377313115,1580,0,8.498392871242045,5.2661439916829895,61.966351420434385,0.12721767552411273,0.07883215188417964,0.091796875,,
2.061295000000042,1200,,,,-0.0625,0.0234375,-0.951171875,0.031820359022787854,0.6699465975971823,22.94333054269553,0.37034947589610284,1580,0,8.497050441798338,5.265334778130026,61.96661787752854,0.12723722722814457,0.07884460639442703,0.091796875,,
2.0700000000001166,1200,,,,-0.0625,0.017578125,-0.9765625,0.031820359022787854,0.6699465975971823,22.943200123168765,0.3705575332037702,1580,0,8.501775641441855,5.264604558590677,61.92358844343519,0.127254875488032,0.07880078537141483,0.091796875,,
2.07857500000007,1200,,,,-0.03125,0.060546875,-1.005859375,0.031820359022787854,0.6699465975971823,22.94303900587572,0.37027028993504074,1580,0,8.495125704696552,5.264406541354327,61.9697309298659,0.12725966209760675,0.07886247018414344,0.091796875,,
2.0863850000001256,1200,,,,0,0.015625,-1.015625,0.031820359022787854,0.6699465975971823,22.94302068426761,0.3695757905619168,1579,0,8.479185007266612,5.262918291965167,62.06868098118955,0.12729564861760853,0.07901073004339947,0.091796875,,
2.0937600000000094,1200,,,,-0.03125,0.052734375,-0.98046875,0.031820359022787854,0.6699465975971823,22.943064856011706,0.36926482261410826,1579,0,8.472066774279144,5.26236075570813,62.11425022857996,0.12730913532875623,0.07907711488194515,0.091796875,,
2.1009949999999953,1200,,,,0,-0.046875,-1.02734375,0.031820359022787854,0.6699465975971823,22.942922268362594,0.36804880614759655,1579,0,8.44411515040796,5.262121416807613,62.31702579936258,0.1273149257744837,0.07933887514132434,0.091796875,,
2.1091650000001536,1200,,,,-0.03125,0.0546875,-0.95703125,0.031820359022787854,0.6699465975971823,22.943300075992646,0.3681044742291078,1579,0,8.445531411553922,5.262020477280246,62.30538045340202,0.12731736801287674,0.07932557052368083,0.091796875,,
2.1168549999999815,1200,,,,-0.0625,0.05859375,-0.96875,0.031820359022787854,0.6699465975971823,22.943506029656945,0.36758203304407433,1579,0,8.433620591540278,5.260660464618118,62.377248389559526,0.1273502827454984,0.0794376021929659,0.08984375,,
2.1247200000000883,1200,,,,-0.0625,-0.03515625,-0.96484375,0.031820359022787854,0.6699465975971823,22.94326901327123,0.3682990396048409,1579,0,8.4499839429833,5.260036120577389,62.24906646059629,0.1273653986854453,0.07928377167550629,0.091796875,,
2.1320350000000325,1200,,,,-0.0625,0.087890625,-0.984375,0.031820359022787854,0.6699465975971823,22.94330432891705,0.36834204878490906,1578,0,8.45098372240898,5.259791431061292,62.23880679256559,0.12737132382110522,0.07927439214215075,0.08984375,,
2.142030000000028,1200,,,,0,0.09375,-0.95703125,0.031820359022787854,0.6699465975971823,22.943272806508777,0.3688133433189485,1578,0,8.461785150447216,5.2582793048094665,62.141489193111454,0.12740795206226838,0.07917319876193911,0.08984375,,
2.150844999999972,1200,,,,-0.0625,0.052734375,-0.958984375,0.031769693698658084,0.6699465975971823,22.9431536199711,0.3675012943230077,1578,0,8.431638651190978,5.2492499392455425,62.25658091389009,0.12762710965396926,0.07945627478978261,0.08984375,,
2.1586500000000233,1200,,,,-0.03125,-0.01171875,-0.98046875,0.031769693698658084,0.6699465975971823,22.943392838936635,0.367906100581829,1578,0,8.441014193490236,5.249058261172358,62.18516093978926,0.1276317701696746,0.0793680216903141,0.08984375,,
2.166704999999958,1200,,,,-0.0625,0.0546875,-0.94140625,0.031769693698658084,0.6699465975971823,22.943357328763966,0.37051701699694334,1577,0,8.500904317348583,5.247815639192522,61.732439788586,0.12766199189502522,0.07880886227950598,0.08984375,,
2.174790000000037,1200,,,,-0.0625,0.064453125,-0.984375,0.031769693698658084,0.6715428913464154,22.943193604035237,0.3739431388358776,1577,0,8.579449831212168,5.246159380324277,61.14796966629108,0.1280065744599825,0.07827342132164841,0.08984375,,
2.1827500000001163,1200,,,,0,0.044921875,-0.986328125,0.031769693698658084,0.6715428913464154,22.943036530084928,0.3778751091823737,1577,0,8.66960243378103,5.245500094339797,60.504505649541116,0.12802266309575508,0.07745947942546412,0.08984375,,
2.1909349999999397,1200,,,,-0.09375,0.05078125,-0.99609375,0.031769693698658084,0.6715428913464154,22.942953115418796,0.37617201331300754,1577,0,8.630496864773027,5.245241073737738,60.775655862261665,0.12802898511352437,0.07781045539654179,0.08984375,,
2.1988200000000653,1200,,,,-0.0625,0.12109375,-0.8984375,0.031769693698658084,0.6715428913464154,22.943004532143448,0.3766816594303262,1583,0,8.64220901948529,5.267270612172693,60.94819739139334,0.12749352383651524,0.07770500456912241,0.08984375,,
2.2081350000000093,1200,,,,0,0.015625,-0.96875,0.031769693698658084,0.6715428913464154,22.94283906013005,0.37447589890905963,1586,0,8.591540280568086,5.276473263679154,61.41475324992908,0.12727116348129947,0.0781632710103539,0.08984375,,
2.218695000000065,1200,,,,-0.0625,0.056640625,-0.99609375,0.031769693698658084,0.6715428913464154,22.943027673250413,0.3731475364524785,1587,0,8.561134255034432,5.2795841900892295,61.6692138309189,0.12719617060128094,0.07844087843284435,0.08984375,,
2.2277149999999675,1200,,,,-0.1875,0.08984375,-0.9921875,0.031769693698658084,0.6715428913464154,22.94322455426585,0.3715912465287731,1587,0,8.525501411509202,5.27989822939287,61.93064753077334,0.12718860519090638,0.0787687267800871,0.08984375,,
2.2447900000000374,1200,,,,-0.0625,0.046875,-0.9453125,0.031769693698658084,0.6715428913464154,22.943225696270414,0.37106659917783513,1587,0,8.51346473328458,5.280016993951047,62.019602586806776,0.12718574431024673,0.07888009316828724,0.08984375,,
2.252780000000028,1200,,,,-0.09375,0.01171875,-0.96875,0.031769693698658084,0.6715428913464154,22.94319824652718,0.37033510221289057,1586,0,8.496671667718255,5.275766926748578,62.09215953104332,0.12728820296090734,0.07903599404668481,0.08984375,,
2.260615000000107,1200,,,,-0.03125,0.068359375,-0.970703125,0.031769693698658084,0.6715428913464154,22.9431386539106,0.3696298017437349,1585,0,8.480467792023996,5.274081049148623,62.19092128513209,0.12732889105957526,0.07918701041209204,0.08984375,,
2.2689850000001024,1200,,,,-0.0625,0.00390625,-0.9765625,0.031769693698658084,0.6715428913464154,22.9432443276939,0.3696086325382078,1585,0,8.480021161948935,5.273435755964789,62.18658721781789,0.12734447188189077,0.07919118107390156,0.08984375,,
2.277780000000028,1200,,,,-0.03125,0.064453125,-0.97265625,0.031769693698658084,0.6715428913464154,22.943286101057893,0.36958550644307636,1584,0,8.479506013127876,5.270485547639806,62.15557297182288,0.1274157542557234,0.0791959921140147,0.08984375,,
2.2859899999999906,1200,,,,-0.03125,0.095703125,-0.974609375,0.031769693698658084,0.6715428913464154,22.943125948523207,0.37147146116263385,1584,0,8.522716519736255,5.268243549196356,61.814135633827085,0.12746997838565302,0.07879446533171762,0.08984375,,
2.293890000000014,1200,,,,-0.09375,0.013671875,-0.994140625,0.031769693698658084,0.6715428913464154,22.94316934838814,0.37092731494205355,1583,0,8.510248202658437,5.267346828977701,61.89416223292152,0.1274916790464603,0.07890990666249174,0.08984375,,
2.30289000000013,1200,,,,-0.0625,-0.0390625,-0.953125,0.0314403397886997,0.6715428913464154,22.943214550328346,0.37224879330544525,1583,0,8.54058393090766,5.211395159029109,61.019190270696896,0.1288604818582832,0.07862962260884267,0.091796875,,
2.310790000000037,1200,,,,0,0.041015625,-1.005859375,0.0314403397886997,0.6715428913464154,22.94331865854713,0.3716720165926881,1582,0,8.52738951315086,5.209999794454163,61.09724185132331,0.12889499382730227,0.07875128611291513,0.08984375,,
2.3190350000000324,1200,,,,0,0.0703125,-0.9921875,0.0314403397886997,0.670256695996587,22.94322140749094,0.37240217995419395,1582,0,8.544105667321357,5.209450509081704,60.97127905388964,0.12866168798957195,0.07844667681956673,0.08984375,,
2.3267500000001164,1200,,,,-0.0625,0.05859375,-0.958984375,0.0314403397886997,0.670256695996587,22.94345699635542,0.3722439801251984,1582,0,8.54056375015467,5.208767036933214,60.98856222270904,0.12867857042637418,0.0784792099917817,0.08984375,,
2.3472150000000838,1200,,,,-0.03125,0.056640625,-1.001953125,0.0314403397886997,0.670256695996587,22.943479085620723,0.3724629066920123,1582,0,8.545594909857687,5.2070035313848955,60.93201920182769,0.12872215122510589,0.0784330059014872,0.08984375,,
2.3555750000000697,1200,,,,-0.0625,0.06640625,-0.982421875,0.0314403397886997,0.670256695996587,22.943580297662695,0.37133671840328564,1581,0,8.519793816156344,5.205882680849372,61.10338810051129,0.1287498656975555,0.07867053011606441,0.08984375,,
2.3642700000000185,1200,,,,-0.03125,0.03125,-0.947265625,0.0314403397886997,0.670256695996587,22.943392680446305,0.3702012179185359,1580,0,8.493671913484445,5.203562338887723,61.26399031997709,0.12880727708161874,0.07891247776270896,0.08984375,,
2.373600000000093,1200,,,,0,0.046875,-0.96484375,0.0314403397886997,0.670256695996587,22.943297026521215,0.3701541700056442,1580,0,8.492557068044926,5.2027484493276654,61.262449079136914,0.12882742698874902,0.07892283685894465,0.087890625,,
2.3815799999999583,1200,,,,-0.0625,0.07421875,-0.9609375,0.0314403397886997,0.670256695996587,22.943258541474428,0.370095308964925,1580,0,8.491192358569133,5.200817134701902,61.24955029965074,0.12887526683535364,0.07893552138412904,0.087890625,,
2.3886800000000514,1200,,,,-0.03125,0.0078125,-0.96484375,0.0314403397886997,0.670256695996587,22.943375706420046,0.3711691847165437,1579,0,8.515874055597283,5.197714899300906,61.03560087158135,0.1289521855242073,0.0787067412717363,0.087890625,,
2.3971450000000187,1200,,,,0,0.0703125,-0.9453125,0.0314403397886997,0.670256695996587,22.943604657654046,0.371071239641888,1578,0,8.513711822169082,5.196235862450838,61.033729717280536,0.12898888998476987,0.07872673047862479,0.087890625,,
2.404155000000028,1200,,,,-0.0625,0.083984375,-1.001953125,0.0314403397886997,0.670256695996587,22.943623550137488,0.37098140229007237,1578,0,8.511657638245534,5.195667631246711,61.04178354050514,0.12900299702884527,0.07874573020711201,0.087890625,,
2.4115200000000185,1200,,,,-0.0625,0.00390625,-0.94921875,0.0314403397886997,0.670256695996587,22.943466373387334,0.3711862744240847,1579,0,8.51629980551191,5.197473157415565,61.0297109790764,0.12895818327417222,0.07870280653609496,0.087890625,,
2.4190050000000047,1200,,,,-0.0625,-0.05078125,-0.951171875,0.0314403397886997,0.670256695996587,22.943589167337095,0.3710895696599308,1579,0,8.514126630561373,5.1993815742385765,61.06770312266027,0.12891084957440208,0.07872289491099502,0.087890625,,
2.427520000000135,1200,,,,0,0.07421875,-1.048828125,0.0314403397886997,0.670256695996587,22.943474482498686,0.37099290268901,1579,0,8.511866196033418,5.200161902605706,61.09308796499895,0.12889150540884767,0.07874380077883868,0.087890625,,
2.4345500000000464,1200,,,,-0.0625,0.1171875,-0.90625,0.0314403397886997,0.670256695996587,22.943496833326442,0.3706394979694896,1579,0,8.503766147968687,5.200003788071173,61.149421298624375,0.12889542456375863,0.07881880620114332,0.087890625,,
2.4418649999999906,1200,,,,-0.125,0.0546875,-0.94921875,0.0314403397886997,0.670256695996587,22.943577008778373,0.3709549457007814,1579,0,8.511033363473079,5.199498031211163,61.09126599745128,0.12890796226351459,0.0787515061182978,0.087890625,,
2.4498499999999765,1200,,,,0,-0.013671875,-0.96875,0.03159306304685705,0.670256695996587,22.943399046447624,0.37086707687286335,1579,0,8.508951337883671,5.224518561209367,61.400263719322176,0.12829061436838624,0.07877077554932778,0.087890625,,
2.4582050000000746,1200,,,,-0.03125,0.060546875,-1.001953125,0.03159306304685705,0.670256695996587,22.94342792029051,0.3707865373682007,1579,0,8.507114193921417,5.224428150458207,61.412460575540585,0.1282928344871203,0.0787877864006463,0.087890625,,
2.4664700000000885,1200,,,,-0.0625,0.09375,-0.9453125,0.03159306304685705,0.670256695996587,22.94353062371137,0.37116835049768304,1579,0,8.515912416196027,5.223900340565855,61.34281431348162,0.1283057968758999,0.07870638673101618,0.087890625,,
2.4734950000001117,1200,,,,-0.0625,0.03515625,-0.939453125,0.03159306304685705,0.6604253283838517,22.94363742689311,0.3705199022191982,1579,0,8.501074295965172,5.2237295298153965,61.44787526789071,0.12642793326384008,0.07768727873573657,0.087890625,,
2.4822249999999766,1200,,,,-0.0625,0.056640625,-1.00390625,0.03159306304685705,0.6604253283838517,22.94365559941294,0.37110512674839574,1579,0,8.514508219291677,5.22364889028275,61.34997765868978,0.12642988498181848,0.07756470619025282,0.087890625,,
2.4901300000000046,1200,,,,0,-0.03515625,-0.97265625,0.03159306304685705,0.6604253283838517,22.943738889121406,0.37144117049912306,1579,0,8.522249228601504,5.223305166253102,61.29021841702513,0.1264382048077047,0.07749425188920779,0.087890625,,
2.498130000000121,1200,,,,-0.09375,0.064453125,-0.978515625,0.03159306304685705,0.6604253283838517,22.943621602833062,0.37090766470240893,1579,0,8.509965108522552,5.22255258716939,61.369847238728546,0.12645642477710323,0.0776061147092659,0.087890625,,
2.506070000000065,1200,,,,0,0.009765625,-1.00390625,0.03159306304685705,0.6604253283838517,22.943743265208887,0.3691564647709035,1578,0,8.46983115239574,5.22224691630279,61.657036868151124,0.12646382658049707,0.07797384817961178,0.08984375,,
2.514020000000135,1200,,,,0,0.1328125,-1,0.03159306304685705,0.6604253283838517,22.943629507289156,0.3689529787001317,1578,0,8.46512044890657,5.222135177746976,61.69002803051094,0.12646653253981524,0.07801723937302725,0.08984375,,
2.5240250000000235,1200,,,,-0.0625,0.03125,-0.93359375,0.03159306304685705,0.6604253283838517,22.943647290580095,0.3686518788616054,1579,0,8.458218681610335,5.223010647234921,61.750716596990706,0.1264453344994583,0.07808090015687741,0.08984375,,
2.5319950000001117,1200,,,,0,-0.013671875,-0.95703125,0.03159306304685705,0.6604253283838517,22.94366917319361,0.3681470673279868,1579,0,8.446644519854763,5.223408721968581,61.840044406869346,0.12643569813065533,0.07818789187013253,0.08984375,,
2.5400350000000325,1200,,,,-0.0625,0.1015625,-0.9765625,0.03159306304685705,0.6604253283838517,22.94362077243255,0.3679879233688131,1579,0,8.442975362609017,5.223522228189056,61.86826330587446,0.12643295070514418,0.07822187084764505,0.08984375,,
2.5484300000000513,1200,,,,-0.0625,0.080078125,-0.96484375,0.03159306304685705,0.6604253283838517,22.943639473440296,0.3693313597735028,1579,0,8.473805564878718,5.222633992840937,61.632686198124794,0.12645445368929686,0.07793727662587736,0.087890625,,
2.5568349999999627,1200,,,,-0.0625,0.041015625,-0.9921875,0.03159306304685705,0.6604253283838517,22.94336853705821,0.3690872935874962,1578,0,8.468105799123327,5.221283639546925,61.65822396890065,0.1264871579436278,0.07798973513677913,0.087890625,,
2.5650650000000605,1200,,,,0,-0.015625,-0.953125,0.03159306304685705,0.6604253283838517,22.943334236765132,0.36845530127760523,1578,0,8.453593128520092,5.220822221385164,61.75861721770769,0.12649833692452964,0.07812362368798645,0.087890625,,
2.5738950000000185,1200,,,,-0.0625,0.072265625,-0.98046875,0.03159306304685705,0.6604253283838517,22.94336703885559,0.36881214349189795,1578,0,8.46179237652169,5.2197062841616795,61.68558683434981,0.1265253813969957,0.07804792400913607,0.087890625,,
2.58325,1200,,,,-0.03125,0.048828125,-0.966796875,0.03159306304685705,0.6604253283838517,22.943324586567076,0.36936121831475244,1577,0,8.474374321485229,5.218704867635993,61.58218494555898,0.12654966033421544,0.07793204587499326,0.087890625,,
2.5906999999999534,1200,,,,-0.03125,-0.00390625,-0.9765625,0.03159306304685705,0.6604253283838517,22.943422028591485,0.3685108135538628,1577,0,8.454899117465866,5.218409931064392,61.7205463786595,0.12655681272803834,0.07811155629516216,0.087890625,,
2.5995050000000046,1200,,,,-0.0625,0.0234375,-0.94921875,0.03132295896022845,0.6604253283838517,22.94365765972407,0.3689924555133112,1577,0,8.466036578318377,5.173675292711432,61.110948964729,0.1276510973377563,0.07800879694699277,0.087890625,,
2.607119999999995,1200,,,,-0.03125,0.0625,-0.994140625,0.03132295896022845,0.6604253283838517,22.94367389799272,0.36838502912698773,1577,0,8.452105977192156,5.173631653454624,61.211154562135974,0.1276521740667141,0.07813736956990325,0.087890625,,
2.6161600000000327,1200,,,,-0.0625,0.052734375,-0.953125,0.03132295896022845,0.6604253283838517,22.943802224872783,0.36842942450096167,1577,0,8.453171849573764,5.1736125440721255,61.20321029949244,0.1276526455659229,0.07812751711857752,0.087890625,,
2.624210000000079,1200,,,,0,-0.03515625,-0.98046875,0.03132295896022845,0.6529397288160936,22.943746652235,0.36804172143011626,1577,0,8.444256013945036,5.173452480838115,61.265935948585145,0.1262096697001681,0.07732353539942584,0.087890625,,
2.6320700000000654,1200,,,,-0.03125,0.095703125,-1,0.03132295896022845,0.6529397288160936,22.943759111823226,0.36724515172672856,1577,0,8.425984296203032,5.173081517501595,61.394388307045865,0.1262187202361039,0.0774912112179375,0.087890625,,
2.6402350000001023,1200,,,,-0.0625,0.044921875,-0.955078125,0.03132295896022845,0.6529397288160936,22.94377084403383,0.36860766882068774,1577,0,8.457249884775372,5.172936409807882,61.165703748687065,0.12622226083779428,0.0772047341289403,0.087890625,,
2.648329999999958,1200,,,,-0.125,-0.0234375,-0.90234375,0.03132295896022845,0.6529397288160936,22.943782183492818,0.3690652726955091,1577,0,8.46775322821714,5.17287830932636,61.08914808816996,0.1262236785348084,0.07710896990246469,0.087890625,,
2.65670000000007,1200,,,,-0.03125,0.0078125,-0.982421875,0.03132295896022845,0.6529397288160936,22.943721052960413,0.36931003793841155,1577,0,8.473346492517141,5.171878479745343,61.037023380463175,0.1262480801459673,0.07705807019607994,0.087890625,,
2.6651600000000326,1200,,,,-0.03125,0.09375,-1.00390625,0.03132295896022845,0.6529397288160936,22.943734720289655,0.3686667558308616,1577,0,8.458592245973088,5.171539360605516,61.13948054497542,0.12625635875265645,0.07719248189637476,0.087890625,,
2.6755900000000836,1200,,,,-0.0625,0.078125,-0.91015625,0.03132295896022845,0.6529397288160936,22.94381479781604,0.3686929697483753,1577,0,8.459223215163513,5.171403756006643,61.133317143549114,0.1262596694481062,0.07718672414810757,0.087890625,,
2.691685000000056,1200,,,,-0.0625,0.15234375,-1.02734375,0.03132295896022845,0.6529397288160936,22.943718036539433,0.36944743613474557,1577,0,8.476497803998011,5.173332375028221,61.03148369351521,0.12621259982595487,0.07702942228193925,0.087890625,,
2.6994250000000464,1200,,,,-0.03125,0.052734375,-1.017578125,0.03132295896022845,0.6529397288160936,22.943731859958792,0.36975373229814434,1577,0,8.483530488067608,5.173495478634408,60.98281235519948,0.1262086207502482,0.0769655663682092,0.087890625,,
2.7063850000001257,1200,,,,-0.0625,0.0703125,-0.953125,0.03132295896022845,0.6529397288160936,22.94374335000786,0.36945066719789127,1577,0,8.476581288677584,5.173555251554746,61.03351192378954,0.12620716259285597,0.07702866362978718,0.087890625,,
2.715180000000051,1200,,,,-0.03125,0.01171875,-0.98046875,0.03132295896022845,0.6529397288160936,22.94368947106395,0.3703066801976376,1577,0,8.496201479515184,5.1735838041907725,60.89290392494306,0.1262064660646245,0.07685078212779767,0.087890625,,
2.7227249999999765,1200,,,,0,0.03125,-0.9921875,0.03132295896022845,0.6529397288160936,22.943899546555894,0.3699351371646555,1577,0,8.48775462584723,5.17359473493796,60.95363217950639,0.12620619941618283,0.07692726257987442,0.087890625,,0.24443499999993948,6237,
2.7310150000001303,1200,,,,-0.0625,0.1171875,-0.97265625,0.03132295896022845,0.6529397288160936,22.943841825674046,0.3703067666319174,1577,0,8.496259880579505,5.1735989755922756,60.89266392872389,0.12620609596849258,0.07685025387565694,0.087890625,,
2.738585000000079,1500,,,,-0.0625,0.08203125,-0.96484375,0.03132295896022845,0.6529397288160936,22.94405043856993,0.3692713402031842,1577,0,8.472580255140175,5.173600776448124,61.062871293657984,0.12620605203796995,0.0770650391207526,0.087890625,,
2.7478700000001117,1500,,,,0,-0.09765625,-1.00390625,0.03132295896022845,0.6529397288160936,22.943982591134436,0.3690546301092188,1577,0,8.467583008403475,5.1736014656713785,61.09891642676484,0.12620603522489562,0.07711051998759237,0.087890625,,
2.757365000000107,1500,,,,-0.0625,0.078125,-1.00390625,0.03099604125757059,0.6529397288160936,22.94381801885659,0.3682531036919909,1577,0,8.449132195988165,5.119604892359552,60.5932629955826,0.12753713275618875,0.07727891026798277,0.08984375,,
2.7661650000000373,1500,,,,-0.21875,0.037109375,-0.837890625,0.03099604125757059,0.6424199948313666,22.928952229367937,0.9256612983449306,1577,0,21.224443690325614,5.118959047677579,24.11822482777661,0.12549817039908265,0.030267930891596947,0.08984375,,
2.774170000000042,1500,,,,0.1875,0.5,-1.00390625,0.03099604125757059,0.6424199948313666,22.908016438921386,1.528486602768852,1577,0,35.01459622289996,5.118441556559855,14.618022506889094,0.12551085867299464,0.018347205569408116,0.09765625,,
2.782560000000056,1500,,,,-0.3125,-0.01171875,-0.82421875,0.03099604125757059,0.6424199948313666,22.891631000775476,2.0185910764786255,1577,0,46.20884206420684,5.118232366983333,11.076305179583569,0.12551598848373632,0.013902533933629604,0.1015625,,
2.791344999999972,1500,,,,-0.09375,0.283203125,-0.88671875,0.03099604125757059,0.6424199948313666,22.876765933088983,2.4317639548413017,1820,0,55.630894799427224,5.906312520109095,10.616964802388736,0.10876837157602702,0.011547899726358184,0.103515625,,
2.7990650000000605,1500,,,,-0.15625,-0.001953125,-0.8046875,0.03099604125757059,0.6424199948313666,22.867148552232983,2.7104657312543745,2003,0,61.980622522330584,6.50060863893786,10.488130603392696,0.09882459174412508,0.010364852250393474,0.109375,,
2.8075550000000513,1500,,,,-0.5,0.24609375,-1.1484375,0.03099604125757059,0.6424199948313666,22.858596840350714,2.925349577809448,2282,0,66.86938661623634,7.408069627449796,11.078417198537704,0.08671894665392307,0.00960708670049895,0.11328125,,
2.83170000000007,1500,,,,-0.01953125,-0.048828125,-0.927734375,0.03099604125757059,0.6424199948313666,22.842456063141125,3.326404831321099,2669,0,75.98325620767257,8.663829948399444,11.40228832089009,0.07414965421269,0.008454757362273939,0.125,,
2.8388250000000697,1500,,,,0,0.380859375,-1.0625,0.03099604125757059,0.6424199948313666,22.83808354708826,3.4345700810542055,3995,0,78.43899845944564,12.965770206916428,16.529749820326888,0.0495473839640221,0.00819005861176962,0.12890625,,
2.8484050000001444,1500,,,,-0.03125,-0.046875,-1.0390625,0.03099604125757059,0.6424199948313666,22.835277989718826,3.5034801001573554,5521,0,80.00294201854116,17.9199592028248,22.399125270507852,0.03584941168449196,0.008029954631949434,0.130859375,,
2.855980000000098,1500,,,,-0.09375,-0.041015625,-0.869140625,0.03099604125757059,0.6424199948313666,22.832949173939788,3.550715521801876,6113,0,81.07330704042133,19.84361519949386,24.476138847525096,0.032374140920035197,0.007923939682281252,0.134765625,,
2.8645100000000094,1500,,,,-0.0625,0.10546875,-0.9609375,0.03099604125757059,0.6424199948313666,22.831329373371716,3.5840839139123,6425,0,81.82940034033497,20.85567435210053,25.486774026645833,0.030803127435995076,0.00785072348275181,0.134765625,,
2.8724600000000793,1500,,,,0.03125,0.263671875,-0.955078125,0.03099604125757059,0.6424199948313666,22.83038372738916,3.6067733573290184,6461,0,82.3440197655452,20.97139791717322,25.468027887008958,0.030633150797510583,0.007801659387779503,0.138671875,,
2.8814150000000374,1500,,,,-0.125,0.173828125,-1.080078125,0.03099604125757059,0.6424199948313666,22.829300683853596,3.6259819581749277,6322,0,82.77863239740368,20.51943076530637,24.788318157754386,0.03130788578782365,0.007760698337552093,0.140625,,
2.8890400000000374,1500,,,,-0.0625,0.2109375,-1.234375,0.03099604125757059,0.6424199948313666,22.828649267042966,3.633345419586037,5961,0,82.9443682497467,19.35009114612876,23.32899936963213,0.03319984334853591,0.007745191245498798,0.14453125,,
2.897215000000084,1500,,,,-0.03125,-0.35546875,-0.931640625,0.03099604125757059,0.6424199948313666,22.828324079981122,3.634181247988743,5136,0,82.96226729447727,16.670520243342217,20.094099145301396,0.03853628953709065,0.007743520226503404,0.1484375,,
2.9053050000000513,1500,,,,0.21875,-0.0390625,-0.705078125,0.03087004633713662,0.6424199948313666,22.828111175705324,3.6312945556639225,4122,0,82.89559582842949,13.325076718374252,16.074529153458773,0.04821135430653987,0.007749748203282052,0.15234375,,
2.913170000000042,1500,,,,0.125,-0.625,-0.50390625,0.03087004633713662,0.6424199948313666,22.827510795849545,3.639990686153806,3753,0,83.09192668496779,12.13276751042124,14.60162015068088,0.05294917208951466,0.007731436981441269,0.158203125,,
2.9221850000000558,1500,,,,-0.09375,0.142578125,-1.232421875,0.03087004633713662,0.6376372392047648,22.827208843071414,3.6398497424883494,3602,0,83.08761022918125,11.643486812977265,14.013505480372993,0.0547634269224306,0.00767427583301487,0.16015625,,
2.930240000000107,1500,,,,-0.25,0.154296875,-1.126953125,0.03087004633713662,0.6376372392047648,22.827247196967313,3.6315315819135607,3551,0,82.8978691239346,11.479576794684295,13.847855096880732,0.05554536117568616,0.007691841128648067,0.166015625,,
2.937620000000112,1500,,,,0.625,-0.02734375,-0.55859375,0.03087004633713662,0.6376372392047648,22.827541528449853,3.6212174461249655,3535,0,82.66349163496477,11.427821614015244,13.824508725665218,0.05579691919785984,0.007713649963160506,0.169921875,,
2.945515000000014,1500,,,,-0.15625,-0.029296875,-1.193359375,0.03087004633713662,0.6376372392047648,22.82766211529879,3.609566835849329,3533,0,82.39797211135665,11.421478930729815,13.861359252014443,0.05582790486871045,0.007738506456724817,0.17578125,,
2.953520000000019,1500,,,,-0.375,0.671875,-0.87890625,0.03087004633713662,0.6376372392047648,22.827874893542944,3.5958197682727304,3541,0,82.08492380985847,11.447900529903114,13.94641061788768,0.05569905482137879,0.007768018895671851,0.1796875,,
2.9613649999999905,1500,,,,-0.03125,-0.36328125,-0.87109375,0.03087004633713662,0.6376372392047648,22.82813894618167,3.5863860284725235,3552,0,81.87051857261542,11.48337477344957,14.02626363391645,0.055526990260653185,0.007788362041938327,0.18359375,,
2.969225000000093,1500,,,,0.125,0.00390625,-1.0078125,0.03087004633713662,0.6376372392047648,22.828332026928795,3.571694512245904,3557,0,81.53582822430899,11.500168557000427,14.104435813619148,0.05544590377474248,0.00782033190918959,0.185546875,,
2.977430000000051,1500,,,,-0.03125,0.037109375,-0.9296875,0.03087004633713662,0.6376372392047648,22.828510636120473,3.5615821276120947,3556,0,81.3056154816093,11.495086324227001,14.138121033998077,0.05547041763930759,0.007842474783909526,0.189453125,,
2.9876000000000933,1500,,,,-0.0625,0.115234375,-1.06640625,0.03087004633713662,0.6376372392047648,22.828978349688388,3.5528012778383435,3565,0,81.10682345251678,11.525698864517052,14.210516913246718,0.05532308684272422,0.007861696612715496,0.1953125,,
2.995445000000065,1500,,,,0.09375,-0.294921875,-0.7890625,0.03087004633713662,0.6376372392047648,22.829409780530366,3.540400400628512,3571,0,80.82525153310218,11.54509035907829,14.284014141731403,0.055230164457168524,0.007889084501563462,0.19921875,,
3.00325,1500,,,,-0.125,0.4765625,-1.03515625,0.03087004633713662,0.6376372392047648,22.829610776777564,3.533698510698089,3566,0,80.67296160171591,11.528616803191905,14.29055853943844,0.055309084349843544,0.007903977076641776,0.203125,,
3.010594999999972,1500,,,,-0.03125,0.080078125,-0.712890625,0.03087004633713662,0.6376372392047648,22.829707629397642,3.5256335215714807,3568,0,80.4891825058805,11.535629745572228,14.331900742971815,0.05527545988111415,0.007922024045382487,0.208984375,,
3.0183250000000696,1500,,,,-0.0625,-0.3671875,-1.2421875,0.03087004633713662,0.6376372392047648,22.82975484727801,3.5175747866557336,3568,0,80.30537003631665,11.535708543798508,14.364803422961245,0.055275082304983576,0.007940156914990927,0.2109375,,
3.0260400000000374,1500,,,,0,0.326171875,-1.099609375,0.03087004633713662,0.6376372392047648,22.830059843764936,3.5062591148203603,3567,0,80.0481054190951,11.532257926102687,14.406659427759202,0.055291621405857125,0.00796567558802784,0.216796875,,
3.034115000000107,1500,,,,-0.125,-0.275390625,-0.939453125,0.03087004633713662,0.6376372392047648,22.830351187788448,3.494180158904876,3570,0,79.77336014120077,11.540197446244685,14.466229610760106,0.05525358142050329,0.00799310995645829,0.220703125,,
3.0435100000000093,1500,,,,0.125,0.00390625,-0.69140625,0.03087004633713662,0.6376372392047648,22.830565596838635,3.4833951869667334,3571,0,79.52788231575599,11.542568618767772,14.513863921258935,0.05524223076031718,0.00801778219962028,0.224609375,,
3.051685000000056,1500,,,,0,-0.18359375,-0.96484375,0.10151579424530816,0.6376372392047648,22.83080792633402,3.478771697583208,3570,0,79.42316844708917,37.95532213562451,47.78872824862172,0.016799679289410757,0.00802835308225649,0.224609375,,
3.058600000000093,1500,,,,0,0.060546875,-0.845703125,0.10151579424530816,0.6376372392047648,22.83103225653129,3.469318789134471,3556,0,79.2081291829192,37.79885718210026,47.72093164176307,0.016869220043687447,0.00805014896554668,0.228515625,,
3.066420000000042,1500,,,,0,-0.40625,-1.18359375,0.10151579424530816,2.2091441420910765,22.831256140262465,3.4581100872505677,3563,0,78.9529971632431,37.87500053772519,47.971580432108105,0.05832723724691885,0.027980497529732196,0.232421875,,
3.076085000000079,1500,,,,-0.15625,0.1484375,-0.91796875,0.10151579424530816,2.2091441420910765,22.831378713304073,3.4438521152478567,3582,0,78.62789187583712,38.079440778220004,48.429939897602765,0.05801409098829579,0.028096189397772232,0.232421875,,
3.084015000000014,1500,,,,-0.03125,-0.310546875,-1.001953125,0.10151579424530816,2.2091441420910765,22.831476180151608,3.4331636310179845,3575,0,78.38419366414992,38.00295584771074,48.48293268224549,0.05813085042499802,0.0281835410791686,0.234375,,
3.0913200000000653,1500,,,,0,0.46484375,-0.8359375,0.10151579424530816,2.2091441420910765,22.831673406729585,3.427739148689004,3572,0,78.26102076632864,37.970496921366035,48.51776344029316,0.058180543348327604,0.028227898390018803,0.236328125,,
3.099670000000042,1500,,,,-0.0625,-0.0390625,-1.05859375,0.10151579424530816,2.2091441420910765,22.83168935220245,3.419558850245099,3570,0,78.07430539037068,37.95301580137955,48.61140372830073,0.05820734124666785,0.028295405652927423,0.23828125,,
3.1087900000000372,1500,,,,-0.09375,0.1875,-1.12890625,0.10151579424530816,2.2091441420910765,22.831706522719415,3.41002692634166,3554,0,77.85673401680371,37.784279535366394,48.53052213468326,0.058467282405723776,0.028374477429457545,0.2421875,,
3.1174400000000606,1500,,,,-0.0625,-0.3359375,-0.96875,0.10151579424530816,2.2091441420910765,22.83172282492237,3.4057943574979985,3554,0,77.76015276907887,37.77756105090126,48.582158992263984,0.05847768041760262,0.028409719675467727,0.24609375,,
3.125645000000135,1500,,,,-0.1875,0.6015625,-1.015625,0.10151579424530816,2.2091441420910765,22.831866517246294,3.405659978372409,3556,0,77.75757402932673,37.800523390706694,48.613300842500564,0.05844215751346441,0.0284106618508685,0.25,,
3.1337500000001164,1500,,,,0.03125,-0.212890625,-0.958984375,0.10151579424530816,2.2091441420910765,22.831677173100687,3.402661757887057,3580,0,77.68847478533257,38.05525720224136,48.98443084047534,0.058050958119945734,0.028435931432498125,0.251953125,,
3.144380000000121,1500,,,,-0.25,0.42578125,-0.78125,0.10151579424530816,2.2091441420910765,22.831627715914962,3.400237069267946,3573,0,77.6329469113795,37.978790326420416,48.92096955919298,0.05816783849890706,0.02845627056529086,0.25390625,,
3.151835000000079,1500,,,,-0.01953125,-0.03125,-1.107421875,0.10151579424530816,2.2091441420910765,22.831741067165076,3.39119280944459,3565,0,77.42683613407095,37.90003013849056,48.9494754413877,0.05828871729174461,0.028532021355822435,0.26171875,,
3.160984999999986,1500,,,,-0.3125,0.98828125,-1.40234375,0.10151579424530816,2.2091441420910765,22.83175244915316,3.385865807818508,3560,0,77.30524995016417,37.844837995716716,48.95506840753232,0.05837372437269008,0.028576896698674796,0.26953125,,
3.1691800000000514,1500,,,,0,-0.416015625,-0.9609375,0.10151579424530816,2.2091441420910765,22.83206757693613,3.3787812561725645,3584,0,77.14456196861714,38.09679905256715,49.38364815405284,0.057987657678085516,0.02863642084052236,0.271484375,,
3.1773800000000048,1500,,,,0,0.478515625,-1.14453125,0.10151579424530816,2.2091441420910765,22.83206434460798,3.3733467157262043,3580,0,77.0204692701327,38.05453201716577,49.4083357031982,0.05805206436633009,0.028682558844753066,0.27734375,,
3.185515000000014,1500,,,,0,-0.59765625,-0.734375,0.10151579424530816,2.2091441420910765,22.831993880485598,3.3765983011986402,3573,0,77.09447174982542,37.985087298898534,49.27083153531635,0.058158195733701415,0.028655026643931564,0.28125,,
3.1938050000000513,1500,,,,-0.21875,0.51953125,-0.95703125,0.10151579424530816,2.2091441420910765,22.831798774595907,3.376936192080978,3571,0,77.10152761224305,37.96640757488714,49.242095131794,0.05818680995123472,0.02865240431034318,0.283203125,,
3.202655000000028,1500,,,,0,-0.419921875,-0.90234375,0.13183909268353672,2.2091441420910765,22.831590368105875,3.374797385088791,4152,0,77.05199147170214,57.32559723690629,74.39859261516881,0.038536783715684114,0.02867082472362054,0.291015625,,
3.2123750000001166,1500,,,,0.15625,0.10546875,-0.94921875,0.13183909268353672,2.2091441420910765,22.831708885044385,3.3717032553979442,3984,0,76.98174717400232,54.998737439817994,71.44386748654068,0.04016717919222087,0.028696986275171622,0.291015625,,
3.2206200000001117,1500,,,,-0.3125,-0.1484375,-0.83984375,0.13183909268353672,2.9270575610706624,22.831728050915835,3.3660631255480666,3697,0,76.85303788472922,51.04058646437601,66.41323214956195,0.057347647506237304,0.03808642627062985,0.291015625,,
3.227685000000056,1500,,,,0,0.28125,-0.93359375,0.13183909268353672,2.9270575610706624,22.83173964296989,3.3626534468551776,3625,0,76.7752280081327,50.04428900387971,65.18285950069544,0.0584893425270512,0.03812502596228829,0.29296875,,
3.235670000000042,1500,,,,-0.03125,-0.236328125,-0.796875,0.13183909268353672,2.9270575610706624,22.83157329827397,3.358657156845496,3586,0,76.6834270602904,49.50877995335361,64.56255523690744,0.05912198934872743,0.03817066703043068,0.294921875,,
3.243715000000084,1500,,,,-0.25,0.3203125,-0.9609375,0.13183909268353672,2.9270575610706624,22.831660592563203,3.3542945407683047,3577,0,76.58411448230959,49.38176196649534,64.48042430248664,0.059274060797114114,0.03822016590329307,0.294921875,,
3.2518000000000464,1500,,,,-0.09375,-0.05078125,-1.171875,0.13183909268353672,2.9270575610706624,22.831872394559454,3.354449590027039,3581,0,76.58836499347963,49.446606634739474,64.56151223354765,0.05919632832830662,0.03821804475549071,0.296875,,
3.2594000000000234,1500,,,,0,0.17578125,-0.82421875,0.13183909268353672,2.9270575610706624,22.83213680635507,3.351128622544456,3575,0,76.51342716562725,49.35316481568795,64.50261953219535,0.05930840650243843,0.03825547579687567,0.296875,,
3.2676650000000373,1500,,,,0.03125,-0.2109375,-1.1328125,0.13183909268353672,2.9270575610706624,22.832130084156002,3.349190613350494,3574,0,76.46915576065271,49.34893671653332,64.5344338192967,0.059313487905201676,0.03827762359809892,0.298828125,,
3.275525000000023,1500,,,,-0.125,0.45703125,-1.041015625,0.13183909268353672,2.9270575610706624,22.832123740375465,3.348958145931555,3579,0,76.46382678924766,49.41381005432008,64.62377326538494,0.05923561769175416,0.03828029126946946,0.3046875,,
3.283545000000042,1500,,,,0.125,-0.36328125,-1.17578125,0.13183909268353672,2.9270575610706624,22.832440728134927,3.3485297741773783,3579,0,76.45510759530002,49.40942568749462,64.62540861106838,0.059240873989990374,0.03828465688079941,0.30859375,,
3.3041100000001022,1500,,,,-0.125,-0.05078125,-1,0.13183909268353672,2.9270575610706624,22.832569456353692,3.3417308735359805,3572,0,76.30030227445177,49.31523813208817,64.633083568531,0.05935401859422637,0.03836233243928776,0.3203125,,
3.3119649999999674,1500,,,,0.125,0.421875,-1.484375,0.13183909268353672,2.9270575610706624,22.83260596807792,3.3395793026966767,3571,0,76.25129831762165,49.30092887927677,64.65585500448239,0.05937124568663099,0.03838698652550314,0.32421875,,
3.3259800000000976,1500,,,,-0.125,1.05859375,-0.86328125,0.13183909268353672,2.9270575610706624,22.83249617218192,3.330727028377718,3552,0,76.0488121260171,49.0392319535975,64.48388946869646,0.059688079206467556,0.03848919502148654,0.333984375,,
3.333665000000037,1500,,,,0,-0.64453125,-0.84375,0.13183909268353672,2.9270575610706624,22.832379061432615,3.3298424558568223,3563,0,76.02822516697466,49.18835211709427,64.69748834602656,0.05950712790911797,0.038499617144056725,0.3359375,,
3.3421650000000374,1500,,,,-0.28125,-0.048828125,-1.064453125,0.13183909268353672,2.9270575610706624,22.832557529218338,3.327514348962023,3572,0,75.97566280197489,49.317528291845974,64.9122712103066,0.05935126236962313,0.03852625239611042,0.33984375,,
3.350109999999986,1500,,,,0.25,-0.212890625,-1.0078125,0.14431563021273866,2.9270575610706624,22.832528695168605,3.3285037904602017,3578,0,75.99815830766002,54.07913675414928,71.15848325590086,0.05412544905029537,0.03851484859963558,0.34375,,
3.358535000000149,1500,,,,-0.0625,0.267578125,-0.99609375,0.14431563021273866,2.9270575610706624,22.8323983666205,3.3269757635955663,3578,0,75.9628359905054,54.069744312210666,71.17920705194426,0.05413485116869028,0.03853275780062392,0.34375,,
3.3756600000000327,1500,,,,-0.3125,0.205078125,-0.830078125,0.14431563021273866,3.2508793745295756,22.83195448055805,3.3245171731439656,3573,0,75.90522476705655,54.003092266170164,71.14542171754152,0.06019802270778603,0.042828137121075784,0.34765625,,
3.385740000000107,1500,,,,0.3125,-0.15625,-1.0703125,0.14431563021273866,3.2508793745295756,22.832071619296702,3.318573935673034,3571,0,75.76991777321804,53.97223909255332,71.23175090950221,0.060232434844047576,0.04290461795484019,0.34765625,,
3.3934950000001116,1500,,,,-0.125,0.18359375,-1.0390625,0.14431563021273866,3.2508793745295756,22.83200267320304,3.3201632701300836,3563,0,75.80597665908061,53.85382069541936,71.04165537977848,0.060364879084727326,0.04288420936979196,0.349609375,,
3.4100350000000326,1500,,,,-0.125,0.072265625,-0.56640625,0.14431563021273866,3.2508793745295756,22.83226596324935,3.3206081496409015,3549,0,75.81700843233435,53.63036152312309,70.73658356091359,0.060616398663058374,0.04287796949191079,0.3515625,,
3.4175700000000653,1500,,,,-0.125,0.0390625,-1.0703125,0.14431563021273866,3.2508793745295756,22.832254066701754,3.320947306979969,3567,0,75.82471265509564,53.901031696786255,71.08636460248286,0.06031200650883651,0.04287361284594472,0.353515625,,
3.4257149999999674,1500,,,,0.0625,0.2890625,-0.81640625,0.14431563021273866,3.2508793745295756,22.832339257341673,3.318281546166051,3562,0,75.76413001343954,53.836733892869056,71.05834104254762,0.06038403780211806,0.042907895516689935,0.353515625,,
3.434820000000065,1500,,,,-0.03125,-0.13671875,-1.236328125,0.14431563021273866,3.2508793745295756,22.83239402046794,3.321516128674686,3561,0,75.83816499523972,53.809682064689646,70.95330176840015,0.060414394766752005,0.042866007830406096,0.353515625,,
3.4436350000000093,1500,,,,-0.0625,-0.1328125,-0.828125,0.14431563021273866,3.2508793745295756,22.832591606463836,3.319207022430199,3568,0,75.78609840045559,53.92641406103082,71.15607637707161,0.06028361854082152,0.042895457651769456,0.35546875,,
3.4543600000001025,1500,,,,-0.09375,-0.146484375,-0.904296875,0.14431563021273866,3.2508793745295756,22.83249718510138,3.3199137479094927,3567,0,75.80192130392287,53.90079271726477,71.10742285957772,0.06031227391370625,0.042886503648045894,0.353515625,,
3.4617400000001073,1500,,,,0.1875,0.2578125,-0.92578125,0.14431563021273866,3.2508793745295756,22.8324052781921,3.318322085040401,3573,0,75.76527468921786,53.99493654161414,71.26607375621136,0.060207115384312164,0.04290724725627119,0.353515625,,
3.4705050000000046,1500,,,,-0.0625,0.01171875,-1.060546875,0.14431563021273866,3.2508793745295756,22.832383895272425,3.3166051135223378,3576,0,75.7260011809656,54.04982817710798,71.37552139844655,0.06014597056399965,0.04292950009021093,0.35546875,,
3.479170000000042,1500,,,,-0.03125,0.091796875,-1.072265625,0.14431563021273866,3.2508793745295756,22.83236456660032,3.3171340041445534,3575,0,75.73801289889514,54.025307717821825,71.33182618606824,0.06017326900772429,0.042922691659065156,0.361328125,,
3.4867700000000186,1500,,,,-0.1875,-0.08984375,-0.982421875,0.14431563021273866,3.2508793745295756,22.83212948877358,3.3135768589359413,3563,0,75.65601591422904,53.84133127304722,71.16596165212682,0.06037888175616034,0.042969211836572076,0.361328125,,
3.4949100000000324,1500,,,,-0.0625,0.66015625,-0.94140625,0.14431563021273866,3.2508793745295756,22.832318637960444,3.311904237342117,3557,0,75.61845284540658,53.76305324180339,71.09779586699018,0.06046679231383121,0.042990556566604624,0.361328125,,
3.5037300000000977,1500,,,,0.1875,-0.216796875,-1.087890625,0.14836576512365182,3.2508793745295756,22.832302639108192,3.3099381100273764,3565,0,75.57350864486286,55.382216010466216,73.28257878130269,0.05869897611022317,0.04301612341179234,0.365234375,,
3.51245000000007,1500,,,,-0.25,0.419921875,-1.14453125,0.14836576512365182,3.2508793745295756,22.832287967977184,3.3087678912108194,3572,0,75.54674131132204,55.50221654873092,73.46738666067773,0.05857206390442632,0.04303136466380414,0.373046875,,
3.5202050000000744,1500,,,,0.0625,0.01953125,-1.01171875,0.14836576512365182,3.3487842444736295,22.83212721043264,3.309528922324818,3574,0,75.56358536112629,55.52313975724773,73.47869941837305,0.060313308273178025,0.044317434495325214,0.37109375,,
3.528395000000019,1500,,,,-0.21875,0.40234375,-0.982421875,0.14836576512365182,3.3487842444736295,22.831947337141862,3.308213178124793,3572,0,75.53294906298399,55.50358329144376,73.48261120476242,0.06033455942636169,0.04433540972537969,0.373046875,,
3.536415000000037,1500,,,,0.125,-0.43359375,-0.99609375,0.14836576512365182,3.3487842444736295,22.831950286281913,3.310813967205252,3563,0,75.5923399063581,55.363625219697234,73.23972943327367,0.06048708391447967,0.04430057660104211,0.37890625,,
3.5448450000000884,1500,,,,-0.625,0.484375,-1.08984375,0.14836576512365182,3.3487842444736295,22.8320506086026,3.306402485397812,3560,0,75.49194887901227,55.31662081358431,73.2748612732702,0.06053848183819746,0.044359488583883076,0.3828125,,
3.55289000000013,1500,,,,0.21875,0.099609375,-1.076171875,0.14836576512365182,3.3487842444736295,22.83211404629718,3.307103248826662,3559,0,75.50815854009026,55.29797594953123,73.23443852781995,0.060558893647933196,0.04434996574172349,0.384765625,,
3.560775000000023,1500,,,,-0.1875,0.408203125,-1.033203125,0.14836576512365182,3.3487842444736295,22.832206295721885,3.3057461230235052,3579,0,75.47747744215549,55.60452225783127,73.670350602861,0.06022503401694079,0.04436799371097258,0.3828125,,
3.5688149999999443,1500,,,,0.375,-0.66015625,-0.61328125,0.14836576512365182,3.3487842444736295,22.832393164442212,3.3045520514234,3568,0,75.45083167046313,55.43469157340768,73.47127970109413,0.060409540477718814,0.044383662450530464,0.388671875,,
3.5770500000000465,1500,,,,-0.3125,0.1015625,-1.2109375,0.14836576512365182,3.3487842444736295,22.832373953600296,3.30538923407296,3554,0,75.46988305455828,55.223050210210765,73.17230128777226,0.06064105897313217,0.04437245837591592,0.390625,,
3.5849950000001116,1500,,,,0.0625,0.21484375,-1.13671875,0.14836576512365182,3.3487842444736295,22.83215897028742,3.3046423582964692,3578,0,75.4521196645705,55.598517818632104,73.68715162118778,0.06023153810318643,0.04438290480586847,0.390625,,
3.594109999999986,1500,,,,-0.125,0.078125,-0.970703125,0.14836576512365182,3.3487842444736295,22.832259705971648,3.301474749735654,3567,0,75.3801288986722,55.42342325147805,73.52524340463727,0.0604218225438524,0.04442529209488547,0.39453125,,
3.6040950000000884,1500,,,,0.25,-0.30078125,-0.857421875,0.14836576512365182,3.3487842444736295,22.83231303218586,3.2987620532332986,3562,0,75.31836781811883,55.336959359658174,73.47073623964822,0.060516231524548936,0.044461720845576196,0.396484375,,
3.611420000000042,1500,,,,-0.375,0.37109375,-0.837890625,0.14836576512365182,3.3487842444736295,22.832213969130883,3.2992915998233734,3578,0,75.3301317537234,55.58764294764107,73.79204264420193,0.06024332148114114,0.04445477747764733,0.400390625,,
3.619255000000121,1500,,,,0.1875,-0.1484375,-0.8984375,0.14836576512365182,3.3487842444736295,22.832203403190007,3.29797992892179,3564,0,75.30014855678043,55.37039823405152,73.53292031329688,0.060479685017222874,0.044472478589447445,0.3984375,,
3.62682500000007,1500,,,,-0.15625,0.064453125,-1.091796875,0.14836576512365182,3.3487842444736295,22.832366418306105,3.2957824283599444,3559,0,75.25051203932894,55.302315959944,73.49094971080169,0.06055414111226708,0.044501813392624094,0.3984375,,
3.6421250000001164,1500,,,,-0.0625,0.203125,-0.96484375,0.14836576512365182,3.3487842444736295,22.832270564281774,3.296709394207921,3577,0,75.27136086036471,55.570029870037104,73.82625906435332,0.06026241577169398,0.04448948718604851,0.3984375,,
3.6514000000000233,1500,,,,0.21875,-0.1640625,-0.84765625,0.14836576512365182,3.3487842444736295,22.832357890380692,3.29616128629906,3575,0,75.25913415319772,55.549049241427234,73.8103751344673,0.06028517661785976,0.04449671501211845,0.400390625,,
3.65907500000007,1500,,,,-0.5,0.0859375,-0.68359375,0.15435470912797666,3.3487842444736295,22.832275594316535,3.296716147048131,3566,0,75.27153162563629,57.63782770696816,76.57320963472681,0.058100458981537505,0.04448938625467117,0.40234375,,
3.666875,1500,,,,0,0.18359375,-1.046875,0.15435470912797666,3.5325663731876964,22.83245860518401,3.2969822852569255,3558,0,75.27821155015373,57.50718188118767,76.39286414618631,0.06142826439463043,0.046926810566350154,0.40234375,,
3.6753099999999397,1500,,,,-0.125,-0.19140625,-0.8125,0.15435470912797666,3.5325663731876964,22.832337971229173,3.2961157971322463,3565,0,75.2580298724309,57.61878799259049,76.5616480929138,0.06130927942534938,0.0469393947619372,0.404296875,,
3.6839949999999955,1500,,,,0.21875,-0.017578125,-0.994140625,0.15435470912797666,3.5325663731876964,22.83210164869686,3.2946115921816674,3578,0,75.22290676566683,57.83695623629662,76.88742528452053,0.06107801314362339,0.04696131172107307,0.40234375,,
3.6919250000000465,1500,,,,-0.375,-0.0859375,-1.04296875,0.15435470912797666,3.5325663731876964,22.83203092840549,3.292787618324725,3561,0,75.18102874226078,57.56184806994969,76.56432617766643,0.06136992629032496,0.04698747053991786,0.40234375,,
3.69982500000007,1500,,,,-0.03125,0.3828125,-0.86328125,0.15435470912797666,3.5325663731876964,22.832029439395043,3.297261439720734,3556,0,75.28317026108589,57.47713266176227,76.34791741956222,0.06146037927771929,0.046923719616702844,0.40625,,
3.7074750000000933,1500,,,,-0.21875,0.029296875,-0.64453125,0.15435470912797666,3.5325663731876964,22.83215579596925,3.296922796930649,3555,0,75.27585494680326,57.467110282105665,76.34202271461032,0.06147109809152315,0.046928279667950996,0.408203125,,
3.7157349999999862,1500,,,,0.5625,-0.359375,-1.00390625,0.15435470912797666,3.5325663731876964,22.832348019769157,3.2939842382483016,3562,0,75.20939449931942,57.57996082355978,76.55953249840462,0.06135062133877467,0.04696974888183235,0.412109375,,
3.7239650000000837,1500,,,,-0.09375,0.068359375,-1.123046875,0.15435470912797666,3.5325663731876964,22.832330998169127,3.295980315719497,3563,0,75.25491353195753,57.60017154336975,76.5400806937469,0.06132909466298844,0.04694133854379578,0.41015625,,
3.7330200000000184,1500,,,,-0.3125,0.58203125,-0.953125,0.15435470912797666,3.5325663731876964,22.832386394484846,3.2981779986236477,3561,0,75.30527446236383,57.559366232405054,76.43470745355579,0.061372572431120945,0.04690994619444894,0.41015625,,
3.741814999999944,1500,,,,0.03125,-0.365234375,-1.0625,0.15435470912797666,3.5325663731876964,22.8323651049492,3.2989349998957014,3566,0,75.3224883751142,57.64337311885966,76.52876898037326,0.06128313077556381,0.04689922557517127,0.412109375,,
3.7497200000000883,1500,,,,0.125,0.060546875,-0.71875,0.15435470912797666,3.5325663731876964,22.832282964768112,3.3006122868829437,3568,0,75.36051369110176,57.67144309510195,76.52740177899231,0.061253302910461035,0.04687556122119171,0.4140625,,
3.7629349999999393,1500,,,,-0.03125,-0.05859375,-1.0546875,0.15435470912797666,3.5325663731876964,22.83217020622344,3.3021356236988817,3569,0,75.39492260432667,57.6827662262776,76.50749444892642,0.06124127888267644,0.04685416804161523,0.41015625,,
3.7816149999999906,1500,,,,-0.25,-0.0078125,-0.5390625,0.15435470912797666,3.5325663731876964,22.832013209931002,3.3002868787427957,3567,0,75.35219361201747,57.659808339393585,76.52041111938878,0.06126566277144945,0.04688073702773144,0.4140625,,
3.7901650000000373,1500,,,,0,-0.068359375,-0.990234375,0.15435470912797666,3.5325663731876964,22.8320125344702,3.3006805146090024,3584,0,75.36117888183429,57.92562654994407,76.86401328828862,0.06098451727823576,0.04687514746454181,0.412109375,,
3.798265000000014,1500,,,,-0.125,0.373046875,-1.09375,0.15435470912797666,3.5325663731876964,22.832011937356167,3.3032244117935665,3574,0,75.41925920183702,57.77060408806419,76.5992727844999,0.061148164000548316,0.04683904894549338,0.412109375,,
3.807150000000023,1500,,,,0,-0.037109375,-0.865234375,0.15257263565092682,3.5325663731876964,22.831800411033004,3.302080238168007,3563,0,75.39243693906826,56.919655962979135,75.4978327719812,0.062062328266448016,0.04685571280900094,0.412109375,,
3.814885000000009,1500,,,,-0.3125,-0.13671875,-0.58984375,0.15257263565092682,3.3779798639454617,22.831674486477585,3.305354353404048,3574,0,75.46677465938282,57.10212787100184,75.66525550976665,0.059156812362169436,0.044761153225268725,0.4140625,,
3.822810000000056,1500,,,,-0.09375,0.193359375,-1.205078125,0.15257263565092682,3.3779798639454617,22.83168981367445,3.306427144889937,3572,0,75.49131896364028,57.07863642110231,75.60953657279948,0.059181159112213874,0.044746600143156,0.4140625,,
3.831244999999995,1500,,,,0.1875,0.05859375,-0.7109375,0.15257263565092682,3.3779798639454617,22.831510226613027,3.3047927803552573,3564,0,75.45341016151795,56.93921939282533,75.46275147927633,0.05932606558303303,0.04476908143335671,0.412109375,,
3.840310000000056,1500,,,,0.0625,-0.10546875,-1.123046875,0.15257263565092682,3.3779798639454617,22.83142740673562,3.3033956294806375,3555,0,75.4212375102149,56.79973518386291,75.31000161084611,0.05947175375044993,0.04478817870746227,0.4140625,,
3.8492650000001305,1500,,,,-0.0625,0.06640625,-0.71875,0.15257263565092682,3.3779798639454617,22.831385345020514,3.3063903658957003,3572,0,75.4894725448281,57.07912168743314,75.6120287547879,0.05918065597511071,0.04474769461317281,0.41796875,,
3.8581750000000468,1500,,,,-0.0625,-0.044921875,-0.95703125,0.15257263565092682,3.3779798639454617,22.831494646987128,3.308281783135541,3563,0,75.53301782238414,56.9338112716285,75.37605793205341,0.059331700943562,0.04472189727529198,0.416015625,,
3.8661300000000045,1500,,,,-0.21875,0.4609375,-1.298828125,0.15257263565092682,3.3779798639454617,22.831519058727178,3.3078281558788394,3560,0,75.52274158394209,56.88640722285512,75.32354629847084,0.05938114268162638,0.04472798250035588,0.419921875,,
3.8736600000000325,1500,,,,0.375,-0.75390625,-1.07421875,0.15257263565092682,3.3779798639454617,22.83134810003334,3.3103987538620347,3574,0,75.5808662993407,57.09576131060544,75.54261297360057,0.05916340874358405,0.04469358488915505,0.423828125,,
3.881540000000037,1500,,,,-0.125,0.169921875,-0.91015625,0.15257263565092682,3.3779798639454617,22.831379834145785,3.314268124701851,3828,0,75.66931442727001,61.1665372502883,80.83400479209953,0.05522594568535167,0.04464134358177945,0.427734375,,
3.8892050000000746,1500,,,,-0.1875,0,-1.1484375,0.15257263565092682,3.3779798639454617,22.831348845293526,3.3169046832074036,3905,0,75.72940790889605,62.38925983898886,82.38445481317423,0.05414361177970674,0.04460591938087297,0.427734375,,
3.8976400000000138,1500,,,,-0.125,0.384765625,-0.7890625,0.15257263565092682,3.3779798639454617,22.831183858914628,3.3153755283882482,3920,0,75.69394824997833,62.637116003437406,82.75049386587564,0.05392936456014489,0.04462681551224841,0.427734375,,
3.906045000000042,1500,,,,0.15625,-0.140625,-0.99609375,0.15257263565092682,3.3779798639454617,22.831155538147215,3.3156610813223186,3761,0,75.70037385945123,60.08781466494789,79.3758492877587,0.056217385883996863,0.04462302749279908,0.431640625,,
3.916435000000056,1500,,,,-0.6875,0.07421875,-0.71875,0.15257263565092682,3.3779798639454617,22.831275793127475,3.3149745702760187,3627,0,75.68509866117601,57.948518787382945,76.56529463851865,0.05829277321719817,0.04463203356671127,0.43359375,,
3.932795000000042,1500,,,,-0.21875,0.361328125,-0.95703125,0.15257263565092682,3.3779798639454617,22.831210880409664,3.3156447407259715,3587,0,75.70018428003588,57.31269438395171,75.71011210743718,0.05893947057026409,0.04462313924427688,0.4375,,
3.9409550000000744,1500,,,,0.0625,-0.29296875,-0.830078125,0.15257263565092682,3.3779798639454617,22.831054130668516,3.3135542377232565,3579,0,75.65193616636572,57.17668769521251,75.5786178022934,0.059079670406096386,0.04465159829507822,0.439453125,,
3.9491950000000653,1500,,,,-0.625,0.8046875,-1.13671875,0.15553327854463628,3.3779798639454617,22.83096731422479,3.310398037207245,3565,0,75.5795893845525,58.06618662589223,76.8278672836508,0.05817464621379477,0.04469433998586762,0.4453125,,
3.957295000000042,1500,,,,0.15625,-0.111328125,-1.044921875,0.15553327854463628,3.3779798639454617,22.83082556089315,3.3079807849377887,3553,0,75.52393225970106,57.87488997473011,76.6311925810723,0.05836693366363871,0.0447272773394497,0.447265625,,
3.9660599999999393,1500,,,,-0.1875,0.326171875,-1.052734375,0.15553327854463628,3.55744216035875,22.830891304349926,3.3058325525725167,3557,0,75.47510367816479,57.94064543135054,76.76789114251058,0.061398041631650316,0.04713398176341864,0.447265625,,
3.9740749999999534,1500,,,,0.5,-0.5390625,-0.84765625,0.15553327854463628,3.55744216035875,22.830816057754486,3.306126059442827,3565,0,75.48155592688786,58.07232999544328,76.93578819664592,0.06125881569824888,0.04712995269737843,0.451171875,,
3.990099999999977,1500,,,,-0.28125,0.09375,-0.9296875,0.15553327854463628,3.55744216035875,22.830802142631697,3.3019928562637433,3573,0,75.38714557774082,58.193463275543586,77.19281958425293,0.06113130169817205,0.047188975429375286,0.455078125,,
3.9982650000001305,1500,,,,-0.046875,0.22265625,-1.044921875,0.15553327854463628,3.55744216035875,22.83062042910591,3.303215072597643,3565,0,75.4144495181783,58.06602066658041,76.99588213871914,0.06126547194934984,0.04717189057385144,0.455078125,,
4.005745000000112,1500,,,,0.3125,-0.63671875,-0.8671875,0.15553327854463628,3.55744216035875,22.83042492833169,3.3035374230069188,3575,0,75.4211631338938,58.223496370744876,77.1978234641937,0.06109976868627614,0.04716769156746216,0.45703125,,
4.014180000000051,1500,,,,-0.3125,0.146484375,-1.09375,0.15553327854463628,3.55744216035875,22.830699199814095,3.302668213718821,3548,0,75.40222454420173,57.79542776884302,76.64949955814978,0.06155231127602336,0.04717953855954651,0.45703125,,
4.021990000000107,1500,,,,0.1875,0.08203125,-1.11328125,0.15553327854463628,3.55744216035875,22.830697656315635,3.3018497569026826,3551,0,75.38353350642443,57.836052752403006,76.72239554474325,0.06150907593206978,0.04719123653251905,0.45703125,,
4.044460000000079,1500,,,,0.01953125,-0.095703125,-0.859375,0.15553327854463628,3.55744216035875,22.8306763831487,3.310137492583429,3574,0,75.57267787689953,58.215415945687496,77.03235822940493,0.06110824946570324,0.04707312563613895,0.45703125,,
4.052915000000037,1500,,,,-0.09375,0.248046875,-1.26953125,0.15553327854463628,3.55744216035875,22.830529753304525,3.3105914162574743,3553,0,75.58255582990083,57.86544667743931,76.55926164717951,0.06147783115179394,0.047066973606513164,0.458984375,,
4.060015000000014,1500,,,,-0.125,-0.28125,-0.703125,0.15553327854463628,3.55744216035875,22.830476682135075,3.3117109548701644,3556,0,75.60793973313457,57.91783976061481,76.602854098447,0.061422217663198754,0.04705117178057068,0.458984375,,
4.070980000000098,1500,,,,-0.09375,0.322265625,-1.185546875,0.15553327854463628,3.55744216035875,22.830453422429848,3.313473025920357,3561,0,75.64809158475241,57.992109126962106,76.66037293484212,0.06134355542355673,0.04702619835919015,0.458984375,,
4.079405000000144,1500,,,,-0.1875,-0.119140625,-0.73828125,0.15553327854463628,3.55744216035875,22.830223095141953,3.3136937912738014,3570,0,75.65236852376763,58.143117716640454,76.85564755103957,0.0611842346964586,0.047023539775111096,0.462890625,,
4.088354999999981,1500,,,,0.25,0.01171875,-1.19140625,0.15553327854463628,3.55744216035875,22.830210670914596,3.3095695751579606,3578,0,75.55817063090555,58.27354931852112,77.12408708673195,0.06104728821156747,0.04708216372437755,0.462890625,,
4.096845000000089,1500,,,,-0.375,-0.0703125,-1.08203125,0.15553327854463628,3.55744216035875,22.830301610912798,3.3122236290246634,3570,0,75.61906445342521,58.14998771614173,76.89858124594636,0.0611770062226728,0.04704424983397971,0.462890625,,
4.105225000000093,1500,,,,0.03125,0.1171875,-0.79296875,0.1517664130346384,3.55744216035875,22.830251356183194,3.3085939601702252,3562,0,75.5360317462358,56.61216392763486,74.94723063798757,0.06283883027163721,0.0470959630538975,0.466796875,,
4.112380000000004,1500,,,,-0.3125,0.001953125,-1.08203125,0.1517664130346384,3.55744216035875,22.830143413470438,3.3106274653497456,3554,0,75.58209982250882,56.48713188914405,74.73612405820171,0.06297792154397619,0.047067257574382994,0.46875,,
4.120785000000149,1500,,,,0.5,-0.0390625,-1.13671875,0.1517664130346384,3.4422742867145146,22.830037768864674,3.310529687000106,3576,0,75.57951778916016,56.83784933446418,75.20271496441862,0.06056306364546518,0.04554506812701862,0.47265625,,
4.129305000000051,1500,,,,-0.03125,-0.185546875,-1.0703125,0.1517664130346384,3.4422742867145146,22.830002941453458,3.3114594406096294,3585,0,75.60062876962166,56.97618387623248,75.36469577502643,0.060416020388309184,0.04553234996502716,0.46875,,
4.138464999999967,1500,,,,0.0625,-0.013671875,-0.859375,0.1517664130346384,3.4422742867145146,22.830039922121234,3.307859080392113,3559,0,75.51855486210317,56.57019677237267,74.90900332463963,0.060849607799059784,0.045581834729227874,0.47265625,,
4.146309999999939,1500,,,,-0.1875,-0.01171875,-0.75390625,0.1517664130346384,3.4422742867145146,22.829941512007434,3.3080540493073927,3572,0,75.52268046424713,56.76415628897516,75.16173411753789,0.06064168855413922,0.04557934471544753,0.47265625,,
4.153750000000117,1500,,,,-0.0625,0.18359375,-1.03125,0.1517664130346384,3.4422742867145146,22.829649832857932,3.3056868408139417,3569,0,75.46767303286867,56.72835818431878,75.16908353542541,0.06067995614345226,0.04561256692273115,0.4765625,,
4.160900000000023,1500,,,,0,-0.236328125,-1.03515625,0.1517664130346384,3.4422742867145146,22.82957864949488,3.3039875226417146,3555,0,75.42864300509878,56.50288433894395,74.9090558809662,0.06092209852625113,0.04563616882888674,0.4765625,,
4.168869999999996,1500,,,,-0.4375,0.61328125,-0.8671875,0.1517664130346384,3.4422742867145146,22.829631659458705,3.3007804981344435,3573,0,75.35560296113397,56.784168345799294,75.35493860368521,0.060620317017800664,0.04568040267012303,0.4765625,,
4.177244999999996,1500,,,,0.0625,-0.326171875,-0.8828125,0.1517664130346384,3.4422742867145146,22.82974876492165,3.3021346160893263,3580,0,75.38690367327033,56.896829080844654,75.47309454097976,0.06050028344854491,0.04566143612468103,0.478515625,,
4.185640000000014,1500,,,,-0.1875,0.18359375,-0.9375,0.1517664130346384,3.4422742867145146,22.829859812906896,3.301973918779495,3552,0,75.38360167161069,56.45011737839318,74.88381574590137,0.06097904568807997,0.04566343621667082,0.4765625,,
4.194070000000065,1500,,,,0.1875,-0.140625,-0.896484375,0.1517664130346384,3.4422742867145146,22.829831310229093,3.302159664246381,3558,0,75.38774809418761,56.53988317363274,74.99876916736282,0.06088223203686796,0.045660924669268826,0.4765625,,
4.202215000000084,1500,,,,-0.125,0.396484375,-0.951171875,0.1517664130346384,3.4422742867145146,22.82974116517793,3.302639321021389,3558,0,75.3984008608573,56.54038737522046,74.98884157975971,0.06088168911667441,0.045654473402784786,0.474609375,,
4.210420000000042,1500,,,,0.03125,-0.375,-0.759765625,0.1517664130346384,3.4422742867145146,22.829654473329988,3.303209055541221,3554,0,75.41112139118076,56.47948850206911,74.89543645570866,0.06094733465209069,0.045646772295804695,0.48046875,,
4.221805000000051,1500,,,,-0.1875,0.31640625,-1.58984375,0.1517664130346384,3.4422742867145146,22.829703852357916,3.3054309106984148,3572,0,75.46200879567454,56.76367000986753,75.22151996187148,0.06064220805518963,0.0456159906375541,0.482421875,,
4.229495000000112,1500,,,,-0.0625,-0.0078125,-1.0703125,0.1517664130346384,3.4422742867145146,22.82958265573056,3.304732020547619,3563,0,75.44565281813134,56.630061502096005,75.06073496190425,0.060785282505601876,0.04562587979737458,0.48046875,,
4.237415000000038,1500,,,,-0.03125,0.18359375,-1.0390625,0.1517664130346384,3.4422742867145146,22.829786862036897,3.3029575567174865,3552,0,75.40581703421437,56.45336830601191,74.86606541296007,0.06097553414448674,0.045649983278513245,0.4765625,,
4.246640000000131,1500,,,,0.03125,-0.361328125,-0.638671875,0.1517664130346384,3.4422742867145146,22.829833906701,3.306103387210945,3564,0,75.47779120840745,56.63572401524827,75.03627637812966,0.06077920511420914,0.04560645232992829,0.482421875,,
