Time (s),ESC signal (µs),Servo 1 (µs),Servo 2 (µs),Servo 3 (µs),AccX (g),AccY (g),AccZ (g),Torque (N·m),Thrust (N),Voltage (V),Current (A),Motor Electrical Speed (RPM),Motor Optical Speed (RPM),Electrical Power (W),Mechanical Power (W),Motor Efficiency (%),Propeller Mech. Efficiency (N/W),Overall Efficiency (N/W),Vibration (g),App message,90% settling time (s),Max acceleration (RPM/s),
0,1000,,,,-0.0625,0.048828125,-0.953125,-0.003290489590380173,0.010058147151214435,22.834108766891006,0.04191001500419417,0,0,0.9569778410278037,0,0,0,0,0.076171875,,
0,1200,,,,-0.0625,0.048828125,-0.955078125,-0.003290489590380173,0.010058147151214435,22.83422918811966,0.041905779807975836,0,0,0.9568861804421973,0,0,0,0,0.07421875,,
0.00855999999982305,1200,,,,-0.0625,0.046875,-0.955078125,-0.003290489590380173,0.010058147151214435,22.834106436027103,0.042002868088643716,0,0,0.9590979605544969,0,0,0,0,0.07421875,,
0.015229999999981373,1200,,,,-0.0625,0.046875,-0.953125,-0.003290489590380173,0.010058147151214435,22.834186554101592,0.04161408921354593,0,0,0.9502238763811346,0,0,0,0,0.07421875,,
0.022304999999934808,1200,,,,-0.0625,0.048828125,-0.955078125,-0.003290489590380173,0.010058147151214435,22.834264537277715,0.041142651481903394,0,0,0.9394621877028031,0,0,0,0,0.07421875,,
0.030800000000046564,1200,,,,-0.0625,0.05078125,-0.95703125,-0.003290489590380173,0.010058147151214435,22.834351432234488,0.04159475335712135,0,0,0.9497892158936242,0,0,0,0,0.07421875,,
0.039369999999878925,1200,,,,-0.0625,0.05078125,-0.958984375,-0.003290489590380173,0.010058147151214435,22.834499470395592,0.04094365552498454,0,0,0.934927880401319,0,0,0,0,0.07421875,,
0.04725999999977648,1200,,,,-0.0625,0.09765625,-1.05078125,-0.003290489590380173,0.010058147151214435,22.833203937323482,0.08885379826495773,0,0,2.0288168963895794,0,0,0,0,0.076171875,,
0.057779999999795106,1200,,,,0,-0.1875,-0.83984375,-0.003290489590380173,0.010058147151214435,22.831454445201107,0.13385756340480032,0,0,3.056162861022317,0,0,0,0,0.078125,,
0.0735700000000652,1200,,,,-0.03125,-0.0078125,-0.890625,-0.003290489590380173,0.010058147151214435,22.828700956198944,0.20556329868894055,0,0,4.692743073339626,0,0,0,0,0.08203125,,
0.08110499999998137,1200,,,,-0.0625,0.162109375,-0.9375,-0.003290489590380173,0.008908807733982371,22.828013935415047,0.22665318891225908,0,0,5.174042154995309,0,0,0,0,0.083984375,,
0.08918999999994412,1200,,,,-0.0625,-0.11328125,-1.015625,-0.003290489590380173,0.008908807733982371,22.827425188953104,0.2467222553993176,0,0,5.632033827577704,0,0,0,0,0.083984375,,
0.09754000000003725,1200,,,,0.0625,0.015625,-0.95703125,-0.003290489590380173,0.008908807733982371,22.82673755111879,0.26232044445471775,0,0,5.987919939860676,0,0,0,0,0.083984375,,
0.10569499999983237,1200,,,,-0.09375,-0.177734375,-0.9453125,-0.003290489590380173,0.008908807733982371,22.826209120589773,0.27415729780412523,0,0,6.25797181161277,0,0,0,0,0.0859375,,
0.11385999999986962,1200,,,,0.0625,0.05078125,-0.91015625,-0.0032136317640073303,0.008908807733982371,22.825503890913062,0.285661402436398,0,0,6.5203654527956845,0,0,0,0,0.087890625,,
0.1238949999997858,1200,,,,0.03125,0.080078125,-0.927734375,-0.0032136317640073303,0.008908807733982371,22.824829528388854,0.3067523880109012,0,0,7.001570963775013,0,0,0,0,0.091796875,,
0.14027499999990686,1200,,,,0,0.02734375,-0.8984375,-0.0032136317640073303,0.008908807733982371,22.824800291402077,0.3129658247888283,1,0,7.143382448838939,0.0003789162053524154,0.00530443677160255,0,0.0012471413644428878,0.09375,,
0.14845499999984169,1200,,,,-0.03125,-0.001953125,-0.96484375,-0.0032136317640073303,0.008908807733982371,22.824859318145815,0.31188848372731365,1,0,7.118810764025745,0.0004938199206323987,0.00693683168441381,0,0.0012514460672282807,0.09375,,
0.15650499999988823,1200,,,,-0.03125,0.068359375,-0.95703125,-0.0032136317640073303,0.008908807733982371,22.825012458194312,0.31256597415946236,2,0,7.13432225419737,0.000538816906391783,0.007552461007417744,0,0.0012487251649925136,0.09375,,
0.16555499999970197,1200,,,,0,0.0625,-0.966796875,-0.0032136317640073303,0.008908807733982371,22.82495730032097,0.3094398231924982,2,0,7.062950751387642,0.0005577106189795931,0.007896283559247824,0,0.0012613436009350735,0.09375,,
0.17431499999994413,1200,,,,-0.0625,0.076171875,-0.939453125,-0.0032136317640073303,0.008908807733982371,22.824978998329104,0.30273222039322795,2,0,6.9098565725929655,0.000564715909794263,0.008172614060241628,0,0.0012892898196060947,0.091796875,,
0.1824099999999162,1200,,,,0,0.02734375,-1,-0.0032136317640073303,0.008908807733982371,22.825058338397852,0.29821076238379124,2,0,6.806678048548135,0.0005668803648043175,0.00832829701597585,0,0.0013088334236526175,0.091796875,,
0.19041999999992548,1200,,,,-0.03125,0.06640625,-1.01171875,-0.0032136317640073303,0.008908807733982371,22.825104586903983,0.29370407587228176,2,0,6.7038262493848135,0.0005677855592080447,0.008469574509932269,0,0.0013289138773248934,0.091796875,,
0.19852499999990686,1200,,,,0,0.0703125,-0.96484375,-0.0032136317640073303,0.008908807733982371,22.825247068765876,0.2879163093085514,2,0,6.571760895094902,0.0005681426141387192,0.008645211279107482,0,0.0013556195784042934,0.091796875,,
0.21060999999986962,1200,,,,-0.0625,0.01171875,-0.962890625,-0.0032136317640073303,0.008908807733982371,22.825546451000392,0.28173424248627826,281,0,6.430738038707952,0.09453260661944328,1.4700117785926254,0.09424058060565556,0.001385347635117214,0.091796875,,
0.2207599999997765,1200,,,,-0.01953125,0.041015625,-0.984375,-0.0032136317640073303,0.008908807733982371,22.826091657234645,0.27337214447597213,550,0,6.240017626343332,0.1850942393214486,2.9662454564237244,0.04813119936439872,0.0014276895142687216,0.08984375,,
0.22898999999975786,1200,,,,-0.03125,0.044921875,-1.01171875,-0.0032136317640073303,0.05874110755536965,22.826203841235653,0.26637531443504214,618,0,6.080337225567514,0.20800889912267728,3.4210092533685508,0.2823970887934268,0.009660830538866532,0.08984375,,
0.23685499999974854,1200,,,,-0.0625,0.02734375,-0.95703125,-0.0032136317640073303,0.05874110755536965,22.826393052574215,0.2594968004936884,639,0,5.923375963954366,0.2151375547786345,3.6320091125029914,0.273039765724823,0.009916829171882392,0.08984375,,
0.24414999999990686,1200,,,,-0.0625,0.076171875,-0.98828125,-0.0032136317640073303,0.05874110755536965,22.826548852762155,0.2541139738046408,647,0,5.8005450372211556,0.21770160664753557,3.7531232884251344,0.2698239505897308,0.010126825527331915,0.08984375,,
0.2525749999999534,1200,,,,-0.0625,0.08203125,-0.98046875,-0.0032136317640073303,0.05874110755536965,22.826818344205172,0.24789510525528,650,0,5.6586565360798975,0.21890745892372657,3.868541190439124,0.26833762469389716,0.010380751540729358,0.08984375,,
0.2614399999999441,1200,,,,-0.0625,0.0703125,-0.9453125,0.0024293162836395463,0.05874110755536965,22.8269562140853,0.24110895949388653,684,0,5.503783661190614,0.17409701478431583,3.163224165439927,0.3374044502034825,0.010672859104106282,0.08984375,,
0.2696049999999814,1200,,,,-0.0625,0.091796875,-0.986328125,0.0024293162836395463,0.05874110755536965,22.827204364745345,0.2355632437874942,727,0,5.377250306759459,0.18483433967149984,3.437339330087616,0.3178040815346777,0.010924004687215189,0.08984375,,
0.27877499999990685,1200,,,,-0.0625,0.11328125,-1.0546875,0.0024293162836395463,0.05874110755536965,22.827437873637056,0.23013010798754774,743,0,5.253280742939133,0.18903639389459245,3.598444536753035,0.3107396747534443,0.011181794849689466,0.08984375,,
0.2876549999997951,1200,,,,-0.041015625,0.041015625,-0.9765625,0.0024293162836395463,0.05874110755536965,22.827634204956887,0.22340910455222204,750,0,5.099901316775093,0.1908948580762656,3.743108860721591,0.30771445678176207,0.011518087097519449,0.08984375,,
0.29444499999983237,1200,,,,-0.0625,0.03515625,-0.95703125,0.0024293162836395463,0.05874110755536965,22.827716199730745,0.21820322523558763,753,0,4.98108129954392,0.19143844002193625,3.843310889935983,0.30684071364475557,0.011792842562266174,0.087890625,,
0.3024149999998044,1200,,,,0,0.01953125,-0.953125,0.0024293162836395463,0.05874110755536965,22.826047164518894,0.22690759298025223,753,0,5.179403419354694,0.1916460696861625,3.7001572221620815,0.3065082819155302,0.011341288329822403,0.087890625,,
0.3104849999998696,1200,,,,-0.0625,0.083984375,-0.986328125,0.0024293162836395463,0.05874110755536965,22.823177916540114,0.30152209099540217,754,0,6.881692328555261,0.19174037808521377,2.786238746675669,0.30635752438781444,0.008535852047849648,0.091796875,,
0.3185200000000186,1200,,,,0.0625,0.150390625,-1.001953125,0.0024293162836395463,0.05874110755536965,22.82087549359954,0.3746813140888943,788,0,8.55055561860092,0.2003447116278222,2.343060738555882,0.2932001902026356,0.006869858542009125,0.095703125,,
0.32644999999995344,1200,,,,-0.03125,-0.001953125,-1.03125,0.0024293162836395463,0.05874110755536965,22.81880161585818,0.42914281109126723,801,0,9.792524671163331,0.20376862875584448,2.0808589776229502,0.28827355768170393,0.0059985662051328095,0.09765625,,
0.3336549999997951,1200,,,,-0.125,-0.00390625,-0.9609375,0.0024293162836395463,0.05874110755536965,22.816985353407237,0.46968352716311296,806,0,10.716762160017398,0.2051065926999779,1.9138858326556811,0.28639307387497726,0.005481236466600308,0.09765625,,
0.3408449999999721,1200,,,,-0.0625,0.12890625,-1.1328125,0.0024293162836395463,0.05874110755536965,22.816267417788143,0.49956043456307686,808,0,11.398104466337616,0.20559994534453868,1.803808220496167,0.2857058519978346,0.005153585644775552,0.099609375,,
0.34825499999988824,1200,,,,-0.03125,0.1015625,-0.978515625,0.0024293162836395463,0.05874110755536965,22.815453005420494,0.526674063839679,809,0,12.01630735270803,0.2058251530273817,1.7128818944614992,0.2853932412602414,0.004888449157563499,0.099609375,,
0.3568149999997113,1200,,,,-0.03125,0.1171875,-1.037109375,0.0024293162836395463,0.05874110755536965,22.81489135904857,0.5496023954358114,979,0,12.539118942540888,0.24895671647014103,1.9854402658668235,0.2359490773666869,0.004684627988979465,0.1015625,,
0.36861499999975783,1200,,,,-0.0625,0.046875,-0.8984375,0.0024293162836395463,0.05874110755536965,22.8142947916941,0.568345993852811,1045,0,12.966413047436394,0.26593310881502064,2.0509381263895383,0.2208867779462133,0.004530251145052288,0.1015625,,
0.3770049999996554,1200,,,,-0.0625,0.09765625,-1.001953125,0.0024293162836395463,0.05874110755536965,22.813884920955925,0.5854417381344174,1078,0,13.356200441723011,0.2741469032197055,2.0525815288254186,0.2142687255098907,0.004398040281865654,0.1015625,,
0.38459499999997204,1200,,,,-0.0625,0.17578125,-0.98828125,0.0024293162836395463,0.12864887187440402,22.8138015752266,0.5934410621145285,1139,0,13.538646637672576,0.2898578526269813,2.140966230852235,0.44383435090151774,0.009502343573723704,0.1015625,,
0.39213499999977647,1200,,,,-0.03125,0.05859375,-1,0.0024293162836395463,0.12864887187440402,22.813778606055507,0.6000080710025952,1226,0,13.688451293699641,0.31186753988127713,2.278325963908129,0.4125112601439013,0.00939835114390311,0.1015625,,
0.40027999999979513,1200,,,,-0.03125,-0.037109375,-0.96875,0.0024293162836395463,0.12864887187440402,22.813692188185044,0.6055558576392084,1260,0,13.814964938933302,0.3205007503003761,2.319953410791088,0.4013995965807668,0.009312283631777166,0.1015625,,
0.408625,1200,,,,0,0.01953125,-0.89453125,0.0024293162836395463,0.12864887187440402,22.813543826130015,0.6072675346701903,1273,0,13.853924516384316,0.32394875567123577,2.3383176029876473,0.3971272296071582,0.009286095916161351,0.1015625,,
0.41627499999967404,1200,,,,-0.03125,0.01171875,-0.982421875,0.026996871522388662,0.12864887187440402,22.813762275537307,0.6067666686197913,1304,0,13.842630534611642,3.6878944036941768,26.641572167032063,0.034884098564627014,0.009293672293913702,0.1015625,,
0.42423499999986963,1200,,,,0.0625,0.0078125,-0.94140625,0.026996871522388662,0.12864887187440402,22.81393707180532,0.6043819110053635,1368,0,13.788330885013806,3.8679134517400646,28.05207884838333,0.03326053529365518,0.009330271585970518,0.1015625,,
0.43141500000003724,1200,,,,-0.0625,0.0859375,-0.984375,0.026996871522388662,0.12864887187440402,22.814283091879663,0.6004337561092468,1392,0,13.698465689796986,3.9340477614827165,28.718893418938947,0.032701400611851526,0.009391480388217889,0.1015625,,
0.439714999999851,1200,,,,-0.09375,0.048828125,-0.970703125,0.026996871522388662,0.12864887187440402,22.814566957621878,0.5938064916090839,1403,0,13.54743796268598,3.9654519042229763,29.270862248235513,0.03244242396116328,0.009496177227660654,0.1015625,,
0.44793499999982306,1200,,,,0,0.11328125,-0.98046875,0.026996871522388662,0.12864887187440402,22.814636087935565,0.5882092620081945,1445,0,13.4197802562701,4.083971203360373,30.432474491914473,0.03150092531713965,0.009586511061855553,0.099609375,,
0.45598499999986963,1200,,,,-0.0625,0.01953125,-0.96875,0.026996871522388662,0.12864887187440402,22.814491835358297,0.5801421177550634,1462,0,13.235647608870366,4.13461933462688,31.23851175862305,0.031115046262418178,0.009719877385386504,0.099609375,,
0.4636049999997485,1200,,,,0.0625,0.00390625,-0.98828125,0.026996871522388662,0.12864887187440402,22.814853908379554,0.5732990504628412,1468,0,13.07973408212244,4.15089838438791,31.735342311442054,0.030993018850634803,0.009835740624898717,0.099609375,,
0.47162999999988825,1200,,,,-0.09375,0.060546875,-0.931640625,0.026996871522388662,0.12864887187440402,22.81510605867504,0.5668090595274312,1471,0,12.931808808136196,4.158254648288104,32.15524378671521,0.03093818987910396,0.009948250378822729,0.099609375,,
0.48044499999983237,1200,,,,-0.03125,0.037109375,-0.9609375,0.026996871522388662,0.12864887187440402,22.815446946856937,0.5583691305899382,1496,0,12.739441275737368,4.229325817419329,33.198675875010316,0.030418292992357737,0.010098470497243824,0.099609375,,
0.48971999999997207,1200,,,,0,0.03125,-0.9609375,0.026996871522388662,0.12864887187440402,22.815771449716223,0.5496172546101104,1505,0,12.539941666004768,4.25498853209213,33.93148585074536,0.030234833984652085,0.010259128415498574,0.099609375,,
0.4987949999999255,1200,,,,-0.0625,0.099609375,-0.984375,0.026996871522388662,0.12864887187440402,22.816148887701377,0.5404554549638799,1508,0,12.331112127626271,4.264127302318935,34.580232976437756,0.030170035450030226,0.010432868547694315,0.099609375,,
0.5077549999998883,1200,,,,0,0.0546875,-0.990234375,0.026996871522388662,0.12864887187440402,22.81658737681326,0.5311368363315421,1526,0,12.118730035202793,4.313314647119511,35.59213411463153,0.02982598822469802,0.010615705729948726,0.099609375,,
0.5172399999997579,1200,,,,0,0.03515625,-0.947265625,0.026996871522388662,0.12864887187440402,22.816754004636003,0.5232283554897146,1531,0,11.938372675459055,4.329565830285665,36.265963108905744,0.029714035290673887,0.010776081076683026,0.09765625,,
0.5253299999998416,1200,,,,0,0.0859375,-0.97265625,0.026996871522388662,0.12864887187440402,22.816952481538124,0.5151444900196349,1534,0,11.7540273499042,4.336725072457102,36.89565238668981,0.029664982152422713,0.010945088695531456,0.09765625,,
0.5335599999998231,1200,,,,-0.0625,0.015625,-0.984375,0.026996871522388662,0.37864948835908674,22.817101290793268,0.5082331593198697,1544,0,11.596407475541339,4.364371156015747,37.635545018756005,0.08675923170218122,0.03265230970520124,0.09765625,,
0.5427249999998603,1200,,,,-0.03125,0.02734375,-0.990234375,0.026996871522388662,0.37864948835908674,22.817411892500996,0.4995018717086548,1548,0,11.397339947851567,4.375953595618888,38.39451675251443,0.08652959408394607,0.0332226194964434,0.09765625,,
0.5506699999996927,1200,,,,-0.03125,0.037109375,-0.923828125,0.026996871522388662,0.37864948835908674,22.81776086952968,0.491448896311368,1549,0,11.213763395627081,4.37994980313883,39.05869643055635,0.0864506456415854,0.03376649524340284,0.09765625,,
0.561804999999702,1200,,,,-0.0625,0.08984375,-1.046875,0.026996871522388662,0.37864948835908674,22.81840056623345,0.4825913534081522,1554,0,11.011962811867946,4.3921861436113385,39.885588233895405,0.0862097998532808,0.03438528578674494,0.09765625,,
0.5695899999998509,1200,,,,-0.0625,0.056640625,-0.966796875,0.03402033000365004,0.37864948835908674,22.81873162941065,0.4751073710457075,1558,0,10.841347595046827,5.550939960902143,51.201567999150264,0.06821358022714918,0.03492642266465871,0.09765625,,
0.577869999999879,1200,,,,0,0.0078125,-0.95703125,0.03402033000365004,0.37864948835908674,22.818928795190995,0.47001663078712,1560,0,10.725276030486867,5.55759701341311,51.817752733034574,0.06813187200245473,0.0353044049666196,0.09765625,,
0.5864399999997113,1200,,,,-0.0625,0.021484375,-1.01171875,0.03402033000365004,0.37864948835908674,22.81905983031005,0.4647619118866157,1565,0,10.605429874189971,5.575886449826508,52.575770298536696,0.06790839300016023,0.03570336071719181,0.09765625,,
0.5948299999998417,1200,,,,0,0.02734375,-0.95703125,0.03402033000365004,0.37864948835908674,22.819305419385223,0.46065917284257707,1567,0,10.511922359336133,5.582194584577369,53.103460944225475,0.06783165341552752,0.036020955579337044,0.09765625,,
0.6036649999998044,1200,,,,-0.03125,0.05078125,-0.953125,0.03402033000365004,0.37864948835908674,22.819564678643633,0.454411876988209,1568,0,10.36948121767629,5.584790613911484,53.857955828989745,0.06780012260726237,0.03651576008582026,0.09765625,,
0.612369999999879,1200,,,,-0.125,0.01953125,-1.01171875,0.03402033000365004,0.37864948835908674,22.81971520985031,0.44795840664399944,1570,0,10.222283265474385,5.592578681844778,54.709682138565185,0.0677057060615524,0.03704157657594658,0.09765625,,
0.6213599999998696,1200,,,,-0.03125,0.052734375,-0.998046875,0.03402033000365004,0.37864948835908674,22.820296955388113,0.4408370664117319,1573,0,10.060032764457873,5.603733866247464,55.70293852367433,0.06757092634962143,0.037638991564406886,0.09765625,,
0.6297249999998603,1200,,,,-0.03125,0.048828125,-0.939453125,0.03402033000365004,0.37864948835908674,22.82068007334555,0.43533156173226917,1574,0,9.934562296121992,5.607078291670052,56.44011406379528,0.0675306226634312,0.03811436045923176,0.09765625,,
0.637844999999972,1200,,,,-0.0625,0.052734375,-0.966796875,0.03402033000365004,0.37864948835908674,22.820974264240483,0.4301626357769424,1575,0,9.816730440503456,5.610042075001013,57.1477653277938,0.06749494625831631,0.03857185349582314,0.09765625,,
0.6469399999997113,1200,,,,0,0.04296875,-0.98828125,0.03402033000365004,0.37864948835908674,22.820994061929635,0.4232402774922588,1576,0,9.658763859420288,5.614806214257805,58.13172675074387,0.06743767708270564,0.03920268616876745,0.09765625,,
0.6557749999999068,1200,,,,-0.03125,0.0625,-0.951171875,0.03402033000365004,0.37864948835908674,22.82123188956775,0.4174192170518774,1577,0,9.526020747502706,5.616514480737801,58.959712870772385,0.06741716586998744,0.03974896742255695,0.09765625,,
0.6643899999998976,1200,,,,-0.125,0.05859375,-0.97265625,0.03402033000365004,0.37864948835908674,22.8213851794489,0.4129479100953307,1577,0,9.424043315333977,5.617130622510198,59.60425302131724,0.06740977089649286,0.04017909040623588,0.09765625,,
0.6747749999999069,1200,,,,-0.03125,-0.017578125,-1.01171875,0.03402033000365004,0.37864948835908674,22.821509717394466,0.409831485923628,1577,0,9.35297323850029,5.61881274867145,60.07515049377393,0.06738959016717849,0.04048439771006996,0.09765625,,
0.6967800000000279,1200,,,,-0.08203125,0.044921875,-0.9609375,0.03402033000365004,0.6253888268145091,22.822041598037668,0.396169200800593,1578,0,9.04138998053247,5.621667670647793,62.17702900496632,0.11124613966062577,0.06916954452369263,0.099609375,,
0.7047649999998975,1200,,,,0,0.03125,-0.96875,0.03402033000365004,0.6253888268145091,22.822137088357056,0.39336975519211237,1579,0,8.977538479407844,5.623632544178833,62.64114107756814,0.11120727072786168,0.06966150334515298,0.099609375,,
0.7120399999998044,1200,,,,-0.03125,0.05859375,-0.96875,0.03122895074096702,0.6253888268145091,22.822310710849408,0.3899422289902142,1579,0,8.899382709295857,5.162894972714995,58.01407964309805,0.12113142531846582,0.0702732815570746,0.099609375,,
0.719839999999851,1200,,,,-0.03125,0.048828125,-0.97265625,0.03122895074096702,0.6253888268145091,22.822581448806158,0.38833535530629454,1579,0,8.862815275928986,5.163873210234703,58.26447973320119,0.12110847833657105,0.07056322481559979,0.09765625,,
0.7280300000000279,1200,,,,-0.0625,0.02734375,-1.01171875,0.03122895074096702,0.6253888268145091,22.822786975162337,0.3847528449829683,1579,0,8.781132219133942,5.164981256131195,58.819080811433246,0.12108249687685288,0.07121961168649724,0.09765625,,
0.7351099999998696,1200,,,,-0.0625,0.005859375,-0.947265625,0.03122895074096702,0.6253888268145091,22.82283954712706,0.38238797133780067,1579,0,8.727179314594046,5.165375510089638,59.18722789907418,0.12107325509886431,0.07165990342019227,0.09765625,,
0.7432749999996741,1200,,,,0.0625,0.0078125,-0.94921875,0.03122895074096702,0.6253888268145091,22.82283100461747,0.3806503734912225,1580,0,8.687519146034692,5.165560770803573,59.45956128524135,0.12106891285633281,0.07198704443718663,0.09765625,,
0.750994999999879,1200,,,,-0.0625,0.0390625,-0.9609375,0.03122895074096702,0.6253888268145091,22.823076987642615,0.378864957781074,1581,0,8.64686409935742,5.168811340259985,59.776715360243706,0.12099277486553664,0.07232550663783231,0.09765625,,
0.765404999999795,1200,,,,0.0625,0,-1.03515625,0.03122895074096702,0.6253888268145091,22.823326598245757,0.37526046405602037,1581,0,8.564692130559816,5.170488981639274,60.36981718455902,0.1209535169759192,0.07301941707665698,0.09765625,,
0.7824499999999535,1200,,,,-0.03125,-0.044921875,-0.99609375,0.03122895074096702,0.6253888268145091,22.823438701544976,0.3688114970956461,1581,0,8.417546596387512,5.169516333127241,61.4135754870166,0.12097627447405455,0.0742958556455039,0.099609375,,
0.7901599999999162,1200,,,,-0.125,0.03125,-0.97265625,0.03122895074096702,0.6253888268145091,22.82372634523937,0.3667117474908231,1581,0,8.369728572315065,5.169039605917154,61.75874834238978,0.1209874318042771,0.07472032353392397,0.099609375,,
0.7997699999997858,1200,,,,-0.03125,0.0703125,-1.01953125,0.03122895074096702,0.6253888268145091,22.823861892704517,0.3645309327766345,1581,0,8.32000366531266,5.168831566604777,62.12535203745654,0.12099230140426202,0.07516689318561826,0.099609375,,
0.8079749999998603,1200,,,,-0.03125,0.05078125,-0.974609375,0.03122895074096702,0.6253888268145091,22.824049284938756,0.3623838840980724,1580,0,8.271067630721937,5.16656302808284,62.46549126127601,0.12104542679828152,0.07561162049885478,0.099609375,,
0.8161149999997579,1200,,,,-0.0625,-0.001953125,-0.943359375,0.03122895074096702,0.6253888268145091,22.82426262261696,0.35947253949757296,1580,0,8.204695647111654,5.16551663609144,62.95805302552431,0.1210699472817337,0.07622328160760823,0.099609375,,
0.825714999999851,1200,,,,-0.0625,0.095703125,-0.966796875,0.03122895074096702,0.6253888268145091,22.824251482540998,0.3576664210114778,1579,0,8.163468340026354,5.165181387043183,63.271898314565014,0.1210778053958167,0.07660822591154806,0.099609375,,
0.8419749999998603,1200,,,,0,0.0625,-0.95703125,0.03122895074096702,0.7802562945401188,22.824234755920738,0.35283818504706815,1579,0,8.053261566367286,5.1629605529057,64.11018082993472,0.15112575169705544,0.09688699269358036,0.099609375,,
0.849119999999879,1200,,,,-0.03125,0.005859375,-0.96875,0.03122895074096702,0.7802562945401188,22.82441608940854,0.3511189031937155,1579,0,8.014083943350121,5.1627647576212885,64.42114649803759,0.1511314830659875,0.09736063411059667,0.099609375,,
0.8569749999998603,1200,,,,0.0625,0.01953125,-0.97265625,0.03122895074096702,0.7802562945401188,22.82430992757648,0.3496219139646581,1579,0,7.979878921801835,5.163557915101606,64.70722132129404,0.15110826824623025,0.09777796156886288,0.099609375,,
0.8648699999998789,1200,,,,-0.125,0.03125,-0.96484375,0.02829209326445411,0.7802562945401188,22.824294717195684,0.3488796230950674,1579,0,7.962931338345969,4.678290625382116,58.750859785184005,0.16678234787442017,0.09798606334613842,0.099609375,,
0.8730249999999069,1200,,,,-0.041015625,0.0234375,-0.99609375,0.02829209326445411,0.7802562945401188,22.82428032777478,0.34636505468305423,1579,0,7.90553310383107,4.678420259316649,59.17906101802872,0.16677772651704587,0.09869749254000364,0.099609375,,
0.8807549999998883,1200,,,,0,0.1015625,-0.94921875,0.02829209326445411,0.7802562945401188,22.824266508577317,0.34599309138108264,1579,0,7.897038527808376,4.6784714810782075,59.24336654308561,0.16677590056834116,0.09880365807923433,0.099609375,,
0.8888349999999627,1200,,,,-0.0625,-0.009765625,-0.951171875,0.02829209326445411,0.7802562945401188,22.82444910231869,0.34489905467245235,1579,0,7.87213091880922,4.6789086843583485,59.436367771511925,0.16676031681244935,0.09911627519758583,0.099609375,,
0.8963649999997578,1200,,,,0.0625,-0.02734375,-0.94921875,0.02829209326445411,0.7802562945401188,22.82442739709619,0.34397660419243453,1579,0,7.851069028689915,4.6790802550614465,59.598001723877736,0.16675420210972045,0.09938217224798977,0.099609375,,
0.9033249999999534,1200,,,,-0.03125,0.03125,-1.013671875,0.02829209326445411,0.7802562945401188,22.824581035349894,0.3425415122594724,1579,0,7.818366504537626,4.679144520650517,59.84810916621566,0.16675191182845617,0.09979786622784613,0.099609375,,
0.9102299999999813,1200,,,,0,0.09765625,-0.9765625,0.02829209326445411,0.7802562945401188,22.824556024640703,0.3408824434022698,1579,0,7.780490427251521,4.679172667732474,60.13981652549124,0.16675090874948,0.10028369057652661,0.099609375,,
0.9176599999996834,1200,,,,-0.0625,0.056640625,-0.9609375,0.02829209326445411,0.7802562945401188,22.824531959638506,0.3395685473687361,1579,0,7.750493161905739,4.679184999413206,60.3727388911425,0.16675046928855494,0.10067182542333404,0.1015625,,
0.9258649999997579,1200,,,,-0.125,-0.00390625,-0.9609375,0.02829209326445411,0.7802562945401188,22.824310318971218,0.34420285585668087,1579,0,7.856192794749004,4.6791907176663425,59.56053829017364,0.16675026550942912,0.09931735573770974,0.1015625,,
0.9335849999999627,1200,,,,-0.03125,0.0390625,-0.958984375,0.02829209326445411,0.7802562945401188,22.823898138175082,0.3499642157036507,1579,0,7.987547611226456,4.679192996533165,58.58109678065122,0.16675018429849212,0.09768408684581394,0.1015625,,
0.9420449999999255,1200,,,,-0.1875,0.109375,-0.96875,0.02829209326445411,0.7802562945401188,22.823805732349854,0.35343800255433216,1583,0,8.06680030872985,4.689220184370854,58.12986568288054,0.16639361426036442,0.09672438447444019,0.1015625,,
0.9499499999999534,1200,,,,-0.03125,0.060546875,-1.03125,0.02829209326445411,0.7802562945401188,22.823552153431212,0.35528712872354307,1584,0,8.108914311864613,4.693222552306469,57.87732329887305,0.16625171422068286,0.09622204212942312,0.1015625,,
0.959744999999879,1200,,,,0,0.076171875,-0.974609375,0.02829209326445411,0.7802562945401188,22.823424825900517,0.35558686867986317,1585,0,8.115710166392216,4.6949149544430275,57.84971195601629,0.16619178453950997,0.09614146865066973,0.1015625,,
0.9691949999998324,1200,,,,-0.0625,0.05078125,-0.935546875,0.02829209326445411,0.7802562945401188,22.823612680930182,0.3538597904457217,1593,0,8.07635880048827,4.720094100648517,58.44334330915505,0.1653052413579881,0.09660990971487635,0.103515625,,
0.9801799999999348,1200,,,,-0.125,0.0703125,-0.98828125,0.02829209326445411,0.85256438766126,22.82370808619837,0.3492932171703967,1599,0,7.972166425186226,4.736558595484474,59.41369438199893,0.17999658834032778,0.10694262289454706,0.103515625,,
0.9896099999998696,1200,,,,-0.03125,0.10546875,-1.001953125,0.02829209326445411,0.85256438766126,22.8238183743957,0.3426960759372432,1601,0,7.821632994809756,4.7429551738009454,60.63893789120832,0.17975383625184582,0.1090008171218211,0.10546875,,
0.9986149999999907,1200,,,,0,-0.005859375,-0.9375,0.02829209326445411,0.85256438766126,22.82382945758345,0.34055411771693067,1601,0,7.772749103849025,4.74476453635909,61.0435828169149,0.17968528914934903,0.10968633829169586,0.10546875,,
1.0065449999999254,1200,,,,-0.03125,0.048828125,-0.98046875,0.02829209326445411,0.85256438766126,22.823837680460116,0.33818617559638914,1602,0,7.7187063775875675,4.7452938783212995,61.477838982189795,0.17966524508759488,0.11045431008190824,0.10546875,,
1.0148249999999535,1200,,,,-0.125,0.01171875,-0.984375,0.02647833887470377,0.85256438766126,22.823976730423666,0.3360842524355181,1602,0,7.670779157050099,4.441283913444183,57.89873261260905,0.19196349620443487,0.11114443138122165,0.10546875,,
1.0231649999998045,1200,,,,0,0.1015625,-0.99609375,0.02647833887470377,0.85256438766126,22.823977942591664,0.3324218339072379,1598,0,7.587188604734668,4.430920600046414,58.40003235561281,0.19241247239960232,0.11236894613760232,0.10546875,,
1.0320699999998324,1200,,,,-0.0625,0.052734375,-0.962890625,0.02647833887470377,0.85256438766126,22.823905090824663,0.32879205604334294,1596,0,7.504318681750363,4.426594960157679,58.987299818738336,0.1926004966198423,0.11360983239352537,0.10546875,,
1.0399899999999906,1200,,,,-0.125,0.03515625,-0.94140625,0.02647833887470377,0.85256438766126,22.823909651469133,0.3275981069271977,1596,0,7.477069594498685,4.425167157189238,59.18317465501579,0.19266264016177614,0.11402386682190857,0.10546875,,
1.0481499999999069,1200,,,,0.03125,0.033203125,-0.98046875,0.02647833887470377,0.85256438766126,22.82391422336913,0.3270745039912465,1592,0,7.465120423747214,4.414961791195774,59.14119988140294,0.1931079877885753,0.11420638104499649,0.10546875,,
1.0557199999997393,1200,,,,-0.1875,0.06640625,-0.97265625,0.02647833887470377,0.85256438766126,22.823983880214776,0.3257350355879764,1591,0,7.43457120148116,4.411026168687771,59.33127882088183,0.19328028333028183,0.1146756638084799,0.10546875,,
1.063339999999851,1200,,,,0,0.03125,-0.994140625,0.02647833887470377,0.85256438766126,22.82398463122922,0.3270471320125732,1590,0,7.464518714742564,4.409581538192314,59.07388951257243,0.193343604212105,0.11421558713188425,0.10546875,,
1.071684999999823,1200,,,,0,0.068359375,-0.962890625,0.02647833887470377,0.85256438766126,22.823985490596307,0.32552970215123167,1589,0,7.429885198657849,4.4068586943943515,59.31260815699301,0.1934630644603481,0.11474798935187708,0.107421875,,
1.0800149999998976,1200,,,,-0.09375,0.03125,-0.978515625,0.02647833887470377,0.85256438766126,22.824127427133266,0.3257731426824105,1587,0,7.435487720921004,4.401701795540678,59.198561826089026,0.19368971985448555,0.11466152855883624,0.107421875,,
1.0873849999997764,1200,,,,-0.0625,-0.04296875,-0.9765625,0.02647833887470377,0.85256438766126,22.824311380466472,0.32505286760031243,1587,0,7.419107865223072,4.399898398478346,59.304952541568866,0.19376910793124438,0.11491467749884585,0.107421875,,
1.094339999999851,1200,,,,-0.0625,0.09765625,-0.95703125,0.02647833887470377,0.85256438766126,22.824240928604805,0.32489827958053724,1587,0,7.4155566104353845,4.399209411748953,59.324062141987554,0.19379945528037817,0.11496970928136492,0.107421875,,
1.101059999999823,1200,,,,-0.03125,0.08203125,-0.984375,0.02647833887470377,0.85256438766126,22.824230742194622,0.32484378126555497,1586,0,7.414309418772025,4.397452512532328,59.31034522781818,0.19387688331631353,0.11498904881183979,0.107421875,,
1.1095849999999627,1200,,,,-0.03125,0.01953125,-0.94140625,0.02647833887470377,0.85256438766126,22.824420484579264,0.3257644334091999,1586,0,7.4353844070523,4.3966032312871635,59.13081275417424,0.19391433404639075,0.11466312176847523,0.10546875,,
1.1190799999998418,1200,,,,-0.125,0.0859375,-0.99609375,0.02647833887470377,0.85256438766126,22.824596298230688,0.32597880890435793,1585,0,7.4403347150200565,4.396278853761783,59.087111294695724,0.19392864193128756,0.11458683249023181,0.107421875,,
1.1269299999999347,1200,,,,-0.0625,0.033203125,-0.97265625,0.02647833887470377,0.9265867125409779,22.824782736083346,0.32525572762027294,1586,0,7.423891316599433,4.397254857635763,59.23113189714579,0.21071935617558646,0.12481145978917801,0.10546875,,
1.1363249999999534,1200,,,,0.03125,0.072265625,-1.015625,0.02647833887470377,0.9265867125409779,22.824743736547674,0.32419918068965164,1586,0,7.399763218840014,4.398120887060718,59.43596784101109,0.21067786364558516,0.12521842728451918,0.10546875,,
1.1520749999999533,1200,,,,-0.1875,0.0546875,-0.98046875,0.02647833887470377,0.9265867125409779,22.82487645088812,0.3218196220867039,1586,0,7.345493113600522,4.397061890398608,59.86067677685578,0.21072860369881666,0.12614356833652998,0.107421875,,
1.1598249999999535,1200,,,,0,-0.0390625,-0.9765625,0.02647833887470377,0.9265867125409779,22.82522712222088,0.3209472654743146,1585,0,7.3256942287069515,4.394881910421389,59.99270203224307,0.2108331307705456,0.1264844919284228,0.107421875,,
1.167905000000028,1200,,,,-0.125,0.16015625,-0.91015625,0.02472213035912573,0.9265867125409779,22.82497459351102,0.3210762935295084,1585,0,7.3285582423897155,4.102592535436633,55.98089555605209,0.22585394589822766,0.12643506156250922,0.107421875,,
1.1761199999998788,1200,,,,-0.03125,0.037109375,-0.974609375,0.02472213035912573,0.9265867125409779,22.825189278818492,0.3210945548857952,1585,0,7.329043991666248,4.102272668348963,55.972820916528796,0.22587155643993315,0.12642668178750005,0.107421875,,
1.1849799999999813,1200,,,,0.03125,0.0078125,-1.00390625,0.02472213035912573,0.9265867125409779,22.825051223798546,0.32135138232737115,1585,0,7.334861762460718,4.102528444411342,55.93191224690533,0.22585747426156622,0.126326404307056,0.107421875,,
1.1935049999998883,1200,,,,-0.25,0.11328125,-0.9296875,0.02472213035912573,0.9265867125409779,22.82499941978002,0.3209283056096798,1585,0,7.325188389331926,4.102615605269232,56.006963742312706,0.22585267587606983,0.1264932262889535,0.109375,,
1.2025149999998976,1200,,,,0.03125,-0.05078125,-0.98046875,0.02472213035912573,0.9265867125409779,22.82483371055681,0.32035703707380775,1585,0,7.312096099216345,4.102651933438231,56.10774089632004,0.2258506759954289,0.12671971210010252,0.109375,,
1.2113499999998603,1200,,,,0,0.09765625,-0.97265625,0.02472213035912573,0.9265867125409779,22.82500902393484,0.3192161823468629,1586,0,7.286112242653175,4.105402203686122,56.34558001526443,0.22569937525463948,0.12717162207805482,0.109375,,
1.220469999999972,1200,,,,-0.125,0.08984375,-0.990234375,0.02472213035912573,0.9265867125409779,22.82495436642677,0.32004499480476023,1586,0,7.305012401621945,4.106373552877563,56.2130948876393,0.2256459868079141,0.12684259267448283,0.109375,,
1.2282599999997765,1200,,,,0,-0.1171875,-0.94921875,0.02472213035912573,0.9265867125409779,22.824710581501435,0.31968695086352406,1586,0,7.296762130142607,4.10670752100038,56.2812306027594,0.22562763669014943,0.12698601050913919,0.111328125,,
1.2360349999999163,1200,,,,0,0.03515625,-0.9765625,0.02472213035912573,0.9265867125409779,22.82467594515048,0.31956095251354455,1586,0,7.293875185845276,4.105736871560694,56.29019920067204,0.22568097798940512,0.12703627206826096,0.111328125,,
1.2435399999998045,1200,,,,-0.0625,0.083984375,-0.978515625,0.02472213035912573,0.9265867125409779,22.82483732835624,0.318493886050918,1586,0,7.269571139188232,4.105353756945577,56.473121706103946,0.2257020387033266,0.12746098701008746,0.111328125,,
1.2511149999999907,1200,,,,0,0.02734375,-1.02734375,0.02472213035912573,0.9265867125409779,22.82485868253032,0.3184340439966539,1586,0,7.268212053930268,4.105211264931436,56.481721150548324,0.22570987282829974,0.12748482098013753,0.109375,,
1.2591599999996834,1200,,,,-0.0625,0.052734375,-0.958984375,0.02472213035912573,0.9265867125409779,22.825014761425958,0.318044751052443,1585,0,7.259376137566056,4.104157543968834,56.53595386427914,0.22576782265647213,0.1276399920574506,0.111328125,,
1.2674599999999627,1200,,,,-0.125,0.02734375,-0.9765625,0.02472213035912573,0.9265867125409779,22.824689035202596,0.31777408637608207,1584,0,7.253094704979683,4.101732798569486,56.551485474929784,0.22590128563814124,0.12775053273533307,0.111328125,,
1.275149999999907,1200,,,,-0.03125,0.005859375,-0.94140625,0.02472213035912573,0.9573508342979125,22.82475008561859,0.3171363372974456,1584,0,7.238557641882638,4.100857658449747,56.65296681098441,0.23345136896554006,0.13225712657983615,0.109375,,
1.2834049999997952,1200,,,,-0.03125,0.076171875,-1.00390625,0.02472213035912573,0.9573508342979125,22.824614019529424,0.3168124752163486,1584,0,7.231122463384888,4.100485474342114,56.706071500034824,0.23347255838078804,0.1323931158883702,0.111328125,,
1.2942499999997672,1200,,,,-0.09375,0.10546875,-0.958984375,0.02472213035912573,0.9573508342979125,22.82458067482529,0.3182412807358795,1583,0,7.263723786215805,4.097630823669165,56.41226104226514,0.23363520909886806,0.13179890404349548,0.109375,,
1.3019749999998602,1200,,,,0.0625,-0.1328125,-1.03515625,0.02472213035912573,0.9573508342979125,22.824418809804566,0.3173532580573036,1582,0,7.243403672555882,4.096524774894121,56.55524612572967,0.23369828986879648,0.132168643026919,0.111328125,,
1.310809999999823,1200,,,,-0.0625,0.033203125,-0.953125,0.02472213035912573,0.9573508342979125,22.824171040374768,0.3169742533006466,1582,0,7.234674572729034,4.096189803686107,56.61885358501978,0.23371740084807718,0.13232811298888658,0.11328125,,
1.3185699999998324,1200,,,,-0.09375,0.130859375,-0.984375,0.02452184208758366,0.9573508342979125,22.824163269863433,0.31678375498491984,1583,0,7.230324145016224,4.0638275066550404,56.205329458931494,0.23557860975401326,0.13240773374701367,0.11328125,,
1.3272199999997392,1200,,,,-0.0625,0.0859375,-1.00390625,0.02452184208758366,0.9573508342979125,22.824053427952546,0.31746205885258,1583,0,7.245770992599101,4.064689718942055,56.09740803420047,0.2355286382221295,0.13212546122086383,0.11328125,,
1.3362199999997393,1200,,,,0,0.08984375,-1,0.02452184208758366,0.9573508342979125,22.823977939402074,0.31673358410085495,1583,0,7.229120336185665,4.065031598135616,56.23134501977965,0.23550882968215828,0.13242978257061966,0.11328125,,
1.3443099999998231,1200,,,,-0.09375,0.021484375,-0.966796875,0.02452184208758366,0.9573508342979125,22.824044701418284,0.31782145866050754,1582,0,7.253971179537388,4.063327044109432,56.01520799492017,0.23560762495988974,0.1319761011731737,0.11328125,,
1.352899999999907,1200,,,,-0.03125,-0.00390625,-1.015625,0.02452184208758366,0.9573508342979125,22.823825231011604,0.31742904840164066,1582,0,7.24494512396537,4.062623302670461,56.0752805322405,0.23564843771476982,0.1321405225183992,0.11328125,,
1.3723199999998323,1200,,,,-0.09375,0.115234375,-0.958984375,0.02452184208758366,0.9573508342979125,22.824033988891998,0.31754075768020756,1582,0,7.247561046151575,4.062268222353032,56.050141509467934,0.23566903559690985,0.13209282794606633,0.11328125,,
1.381094999999972,1200,,,,-0.125,-0.02734375,-1,0.02452184208758366,0.9573508342979125,22.823965451843595,0.31686604002582447,1582,0,7.232139550411907,4.0622409830113595,56.16928371881311,0.23567061587474397,0.13237449687255917,0.11328125,,
1.3900999999998602,1200,,,,0,0.021484375,-0.978515625,0.02452184208758366,0.9573508342979125,22.824077353442764,0.3179539874244307,1582,0,7.257006403810775,4.062229927620502,55.97666174701674,0.23567125725418792,0.13192090250811844,0.11328125,,
1.3981999999997206,1200,,,,-0.09375,0.103515625,-1.001953125,0.02452184208758366,0.9573508342979125,22.824203622145554,0.3174898482651846,1583,0,7.246452944768669,4.064399511734811,56.08812397890427,0.2355454554931992,0.13211302710370035,0.11328125,,
1.4074799999997485,1200,,,,-0.0625,0.060546875,-0.96484375,0.02452184208758366,0.9573508342979125,22.824117717970708,0.31795428772950546,1583,0,7.257026092071762,4.065322398154272,56.0191233513078,0.235491983300652,0.13192054460763342,0.11328125,,
1.415339999999851,1200,,,,0,0.017578125,-0.927734375,0.02452184208758366,0.9573508342979125,22.824112047336808,0.31854730428062944,1583,0,7.270559365278178,4.065626144119489,55.919028232347486,0.23547438951872696,0.13167499035492483,0.11328125,,
1.4245349999999162,1200,,,,0,0.01171875,-0.97265625,0.02452184208758366,0.9573508342979125,22.824032978919103,0.3187060023502683,1584,0,7.274156308221993,4.066523811222959,55.903717749734895,0.23542240959115407,0.1316098793774636,0.11328125,,
1.4328249999997207,1200,,,,-0.09375,-0.005859375,-0.97265625,0.02452184208758366,0.9706569171755358,22.824096795713437,0.3190537152821842,1584,0,7.2821128806325675,4.067193476469276,55.851832334079056,0.23865521096826736,0.13329330828653932,0.11328125,,
1.4410049999998882,1200,,,,0,0.099609375,-0.98828125,0.02452184208758366,0.9706569171755358,22.824091575769202,0.3189472789798403,1584,0,7.279681903278283,4.067472198979977,55.87431227109331,0.2386388571798851,0.13333782026085736,0.11328125,,
1.4501999999999535,1200,,,,-0.0625,0.1015625,-0.9609375,0.02452184208758366,0.9706569171755358,22.823972477568503,0.31943063471105876,1584,0,7.290676015137444,4.067900168468956,55.79592564561749,0.23861375082389594,0.13313675098991995,0.11328125,,
1.4673649999999907,1200,,,,-0.03125,0.037109375,-0.97265625,0.024913067589111507,0.9706569171755358,22.823949785989466,0.3208115659691238,1585,0,7.322187072443929,4.1341851884673195,56.46107027264807,0.2347879625429626,0.13256379652310077,0.11328125,,
1.4760749999999534,1200,,,,0,0.06640625,-0.982421875,0.024913067589111507,0.9706569171755358,22.82395204455635,0.32121991950518747,1585,0,7.331508038542649,4.135328141202409,56.40487767949616,0.23472307010038207,0.13239526057567852,0.115234375,,
1.4837999999998137,1200,,,,0,0.03515625,-0.95703125,0.024913067589111507,0.9706569171755358,22.823881204252896,0.32027458935849007,1586,0,7.309909180259056,4.1370651016706255,56.59530097642078,0.234624520842944,0.13278645373554923,0.115234375,,
1.492774999999907,1200,,,,-0.125,0.015625,-0.98046875,0.024913067589111507,0.9706569171755358,22.823887004681435,0.3192671809013022,1586,0,7.286918061194507,4.137650056027167,56.78189354236959,0.23459135113700944,0.1332054112622231,0.115234375,,
1.5012299999997485,1200,,,,-0.03125,-0.001953125,-0.974609375,0.024913067589111507,0.9706569171755358,22.823820005908765,0.3198641279559946,1586,0,7.300521282814591,4.137894161037819,56.67943425873453,0.23457751199032284,0.13295720669433014,0.115234375,,
1.5091699999996926,1200,,,,-0.125,0.01171875,-0.97265625,0.024913067589111507,0.9706569171755358,22.823828930168435,0.32036931752759495,1584,0,7.312054497724639,4.132784692145037,56.52015713820343,0.23486752625183002,0.13274749490414553,0.115234375,,
1.517619999999879,1200,,,,0.03125,0.091796875,-0.986328125,0.024913067589111507,0.9706569171755358,22.824162270991447,0.3206334159853028,1583,0,7.3181891159508545,4.130786078180546,56.445467761649006,0.23498116310178743,0.13263621666456732,0.115234375,,
1.5255349999999162,1200,,,,-0.0625,0.072265625,-0.974609375,0.024913067589111507,0.9706569171755358,22.824055507113272,0.32110243994643034,1583,0,7.328859912806832,4.1299871611627115,56.352382366399944,0.23502661855788134,0.13244309875255758,0.115234375,,
1.534059999999823,1200,,,,-0.125,0.01953125,-0.98828125,0.024913067589111507,0.9706569171755358,22.82405244841064,0.3220677614116498,1583,0,7.350891478401699,4.130438027332902,56.189620530637754,0.235000963760327,0.13204614978026927,0.115234375,,
1.5423149999999441,1200,,,,0,0.048828125,-0.98046875,0.024913067589111507,0.9706569171755358,22.824049926808105,0.3194153376259593,1583,0,7.290351613363162,4.130592672248876,56.658346418813736,0.23499216557876368,0.13314267523068826,0.115234375,,
1.5502849999999162,1200,,,,-0.03125,0.048828125,-0.99609375,0.024913067589111507,0.9706569171755358,22.823917419681447,0.3203617868431044,1583,0,7.311910967328605,4.130653074336021,56.49211393290731,0.23498872931408393,0.13275010069360346,0.115234375,,
1.5581299999998883,1200,,,,-0.0625,0.107421875,-1.015625,0.024913067589111507,0.9706569171755358,22.823921529004625,0.31988344739451136,1583,0,7.300994701759806,4.130677043864882,56.57690784064311,0.23498736571943116,0.13294858534023757,0.115234375,,
1.5665199999997859,1200,,,,0.0625,0.00390625,-0.9609375,0.024913067589111507,0.9706569171755358,22.82405801652715,0.31931403091625943,1583,0,7.288041967123849,4.130686581865747,56.677590503720445,0.23498682311963492,0.13318486934544857,0.115234375,,
1.5745549999999349,1200,,,,-0.0625,-0.001953125,-0.943359375,0.024913067589111507,0.9706569171755358,22.823860289608007,0.3195237864009863,1583,0,7.2927662600226615,4.130690265778652,56.640924972766314,0.2349866135490948,0.1330985914763871,0.115234375,,
1.581625,1200,,,,-0.125,0.00390625,-0.96875,0.024913067589111507,0.9789243310866348,22.823931358518134,0.3194072708214322,1583,0,7.290129624639981,4.130691717633079,56.66143032178349,0.23698799087518607,0.13428078532073817,0.115234375,,
1.588844999999972,1200,,,,0,0.072265625,-1.001953125,0.024913067589111507,0.9789243310866348,22.824019805861614,0.3193088526508949,1583,0,7.2879115770909735,4.128980762197896,56.655198386010206,0.23708619329229907,0.13432165315559166,0.115234375,,
1.5958549999999814,1200,,,,-0.125,0.13671875,-0.8984375,0.024913067589111507,0.9789243310866348,22.824284172655993,0.3186360995096333,1582,0,7.272640882874563,4.128215953322027,56.763643631064596,0.23713011677571816,0.13460369442849596,0.115234375,,
1.607,1200,,,,0,0,-0.9609375,0.024913067589111507,0.9789243310866348,22.824368280997977,0.31983752440902863,1582,0,7.300089447194349,4.127868756700274,56.545454498324574,0.23715006188064103,0.13409758033346644,0.115234375,,
1.6156999999997206,1200,,,,0,-0.001953125,-0.9609375,0.025325230495262092,0.9789243310866348,22.824343000445953,0.32009779758696194,1583,0,7.30602192581214,4.197167980851981,57.448061660250524,0.23323448943492686,0.1339886933035473,0.115234375,,
1.6243699999998789,1200,,,,-0.125,0.10546875,-0.97265625,0.025325230495262092,0.9789243310866348,22.824324287950095,0.31993481539907564,1583,0,7.302295977673952,4.197961602785907,57.488242268195634,0.2331903966051019,0.13405706014650723,0.115234375,,
1.6317600000000092,1200,,,,-0.09375,0.06640625,-0.99609375,0.025325230495262092,0.9789243310866348,22.82430924005326,0.31980313914334735,1583,0,7.299285743747541,4.198225989070049,57.51557257045577,0.23317571127310294,0.13411234543395795,0.115234375,,
1.6395699999998323,1200,,,,0.125,0.03125,-0.92578125,0.025325230495262092,0.9789243310866348,22.824163544491697,0.32052190387246193,1583,0,7.315644353576918,4.19721241970354,57.373106412032605,0.2332320200166993,0.13381245503111408,0.115234375,,
1.6484549999998417,1200,,,,-0.0625,0.044921875,-0.958984375,0.025325230495262092,0.9789243310866348,22.82425553820599,0.32100274139140805,1582,0,7.3266485979821505,4.195669358747871,57.2658740573884,0.2333177968482194,0.13361147569657464,0.115234375,,
1.6560949999997392,1200,,,,0,-0.0703125,-0.9921875,0.025325230495262092,0.9789243310866348,22.824243068477486,0.3208129518745022,1582,0,7.3223127930994085,4.195079755562756,57.29173109780593,0.23335058881504275,0.1336905918590611,0.115234375,,
1.6632349999998697,1200,,,,-0.0625,0.068359375,-0.990234375,0.025325230495262092,0.9789243310866348,22.824232631243678,0.3209340190413139,1582,0,7.3250727098789365,4.194744366834718,57.2655662677244,0.23336924624689687,0.13364022035800568,0.115234375,,
1.6715449999999255,1200,,,,-0.0625,0.1015625,-1.05078125,0.025325230495262092,0.9789243310866348,22.824221341953944,0.32106496966945924,1582,0,7.328057932883468,4.194338704930059,57.23670232066053,0.23339181691168606,0.13358577948652278,0.115234375,,
1.6791699999999254,1200,,,,-0.0625,0.05078125,-0.98046875,0.025325230495262092,0.9789243310866348,22.82421037802446,0.320655017126099,1581,0,7.31869756965512,4.1941769992032745,57.307696612485074,0.2334008152904828,0.13375663111773656,0.1171875,,
1.6864949999998788,1200,,,,-0.03125,0.0234375,-0.9765625,0.025325230495262092,0.9789243310866348,22.824201283038075,0.3202174359216687,1581,0,7.308707211814513,4.194117889462665,57.38522241912879,0.23340410472154158,0.13393946462983292,0.1171875,,
1.6978599999998696,1200,,,,-0.0625,0.03125,-0.99609375,0.025325230495262092,0.9789243310866348,22.824187033864703,0.3193851784683573,1582,0,7.2897070492060445,4.194970581113625,57.546490590050794,0.23335666178301612,0.13428856941422,0.1171875,,
1.7065349999999162,1200,,,,-0.0625,0.0703125,-0.98828125,0.025325230495262092,0.9789243310866348,22.82424499485888,0.32036729000006814,1582,0,7.312141515300558,4.195942570237933,57.38322434621894,0.2333026047663766,0.13387655709866236,0.1171875,,
1.715494999999879,1200,,,,-0.03125,0.017578125,-0.96484375,0.025325230495262092,0.9789243310866348,22.824231474084442,0.31970952925809026,1582,0,7.297124300257225,4.196332885156184,57.50666581091763,0.2332809045129412,0.13415207015894295,0.115234375,,
1.7233549999997486,1200,,,,-0.125,0.01171875,-0.9453125,0.025325230495262092,0.9789243310866348,22.82415456716301,0.3195815734922992,1581,0,7.294179230205402,4.194212193750122,57.500810733876285,0.23339885677347205,0.13420623488834516,0.115234375,,
1.7314999999997671,1200,,,,-0.03125,-0.015625,-0.935546875,0.025325230495262092,0.9823486706414281,22.824343667706128,0.31978009529773294,1581,0,7.2987707931672725,4.193377258745942,57.4531983203468,0.2342619349576971,0.13459097408032752,0.115234375,,
1.739559999999823,1200,,,,0,0.09375,-0.94140625,0.025325230495262092,0.9823486706414281,22.824326814906495,0.3196493088600675,1581,0,7.295780291581167,4.1930492796090855,57.472252617688866,0.23428025886044715,0.13464614220565158,0.115234375,,
1.747625,1200,,,,-0.0625,0.107421875,-1.00390625,0.025325230495262092,0.9823486706414281,22.824310861040136,0.31856674723126244,1581,0,7.271066468796731,4.1934192323195045,57.67268460981986,0.2342595901383468,0.1351037945887454,0.115234375,,
1.7597399999999908,1200,,,,-0.03125,0.017578125,-0.95703125,0.025325230495262092,0.9823486706414281,22.82436711441859,0.31848637131578206,1582,0,7.269249859850444,4.194633565102688,57.703802262603574,0.2341917727484211,0.13513755746203482,0.115234375,,
1.7686949999998323,1200,,,,-0.03125,-0.029296875,-1.01171875,0.025577093334293276,0.9823486706414281,22.824414383343328,0.31789802194784,1582,0,7.255836184582672,4.236848432679732,58.39228346530565,0.23185834618589593,0.13538738274283804,0.115234375,,
1.777494999999646,1200,,,,-0.03125,0.080078125,-0.98828125,0.025577093334293276,0.9823486706414281,22.824321041286407,0.31762373737416477,1582,0,7.249546152161177,4.238286461695097,58.46278336239866,0.2317796778296432,0.1355048509276099,0.115234375,,
1.7853149999997113,1200,,,,-0.09375,0.087890625,-0.9609375,0.025577093334293276,0.9823486706414281,22.824305418137605,0.3175984628177755,1583,0,7.248964315683928,4.239421656539751,58.48313596146829,0.23171761391699564,0.13551572719374672,0.115234375,,
1.7937299999997485,1200,,,,-0.03125,0.01953125,-0.974609375,0.025577093334293276,0.9823486706414281,22.824494376082853,0.31779512915691616,1583,0,7.2535131381885565,4.239881217969487,58.45279573076402,0.23169249800631975,0.13543074258313856,0.115234375,,
1.8034949999998788,1200,,,,0,0.04296875,-0.94921875,0.025577093334293276,0.9823486706414281,22.824468390223018,0.3193540353451742,1583,0,7.289086085026093,4.239077053488679,58.15649594531445,0.23173645070522458,0.13476979955819957,0.11328125,,
1.811284999999916,1200,,,,-0.125,0.0078125,-0.95703125,0.025577093334293276,0.9823486706414281,22.82429801347785,0.3253708355446615,1582,0,7.426360915365646,4.23777276337786,57.06392150440224,0.23180777391622426,0.13227860614865644,0.115234375,,
1.818994999999879,1200,,,,0,0.048828125,-1,0.025577093334293276,0.9823486706414281,22.824087561686508,0.3297468796836337,1582,0,7.526171655092162,4.237325809727915,56.301211345092916,0.23183222502885753,0.13052435097952847,0.115234375,,
1.828405000000028,1200,,,,-0.0625,0.18359375,-0.93359375,0.025577093334293276,0.9823486706414281,22.824083151413777,0.32889739273717644,1585,0,7.506781440116509,4.24600868509904,56.56230594923436,0.23135813972516972,0.13086149882980763,0.115234375,,
1.8366649999998044,1200,,,,-0.09375,-0.03125,-0.994140625,0.025577093334293276,0.9823486706414281,22.824224372974946,0.3273045765856575,1590,0,7.4704730942926085,4.25880579384087,57.008515258485694,0.2306629412550605,0.13149751806106308,0.115234375,,
1.8453949999997858,1200,,,,0,0.0859375,-0.966796875,0.025577093334293276,0.9823486706414281,22.824321613733073,0.32389236484114486,1592,0,7.392623503366861,4.263418926013144,57.671257356355746,0.23041335784472228,0.13288228058605064,0.1171875,,
1.8537349999998696,1200,,,,-0.0625,0.03515625,-1.0546875,0.025577093334293276,0.9823486706414281,22.824305705885955,0.32227262308895566,1592,0,7.355648870020084,4.2649913034803655,57.982529873924236,0.2303284111833478,0.13355023982251968,0.1171875,,
1.8627600000000093,1200,,,,-0.03125,0.0859375,-1.01171875,0.025577093334293276,0.9823486706414281,22.82421535305843,0.3215082663980861,1593,0,7.338173910058397,4.26564438539253,58.12950793583175,0.23029314726877564,0.13386827331727963,0.115234375,,
1.8719449999998323,1200,,,,-0.03125,0.015625,-0.970703125,0.025577093334293276,0.9823486706414281,22.824128976031677,0.3202940109665162,1593,0,7.31043181655027,4.265879018884176,58.353311075640505,0.23028048059796608,0.13437628518981112,0.115234375,,
1.880994999999879,1200,,,,0,-0.029296875,-1.009765625,0.025577093334293276,0.9774244103153497,22.8241220802103,0.31836247404348295,1593,0,7.266343973326238,4.265960674658908,58.708487931739405,0.22912175822940545,0.13451391977909963,0.115234375,,
1.889649999999674,1200,,,,-0.03125,0.1171875,-0.935546875,0.025577093334293276,0.9774244103153497,22.824188615976002,0.3180553887421012,1590,0,7.259356182977288,4.25909658868773,58.6704451653031,0.2294910176283426,0.13464340165693284,0.115234375,,
1.897964999999851,1200,,,,-0.125,0.02734375,-1.0390625,0.025577093334293276,0.9774244103153497,22.82453722890596,0.31800434625877755,1589,0,7.25830204013737,4.256656034900712,58.645341725406496,0.22962259630596354,0.13466295628238295,0.1171875,,
1.906214999999851,1200,,,,0,0.0234375,-0.98046875,0.025577093334293276,0.9774244103153497,22.824576760502037,0.3173130237107301,1589,0,7.242535466792562,4.255801100526918,58.76120482999371,0.22966872446043896,0.1349561096106324,0.115234375,,
1.915934999999823,1200,,,,-0.0625,0.0625,-0.986328125,0.025610176366504814,0.9774244103153497,22.824742855358704,0.31761899870070964,1588,0,7.249571971320208,4.257935853164177,58.73361723987094,0.22955357807680488,0.13482511990805887,0.1171875,,
1.9358349999999627,1200,,,,-0.0625,0.10546875,-1.001953125,0.025610176366504814,0.9774244103153497,22.824827720152722,0.31655107740436056,1587,0,7.225223806383259,4.255908284689082,58.9034803451918,0.2296629403015333,0.13527946490070328,0.1171875,,
1.9443499999998604,1200,,,,0,-0.01953125,-0.935546875,0.025610176366504814,0.9774244103153497,22.82467849807527,0.31694566774698635,1586,0,7.234182967682748,4.2547371573789885,58.814342633939006,0.22972615561461956,0.1351119282829583,0.1171875,,
1.9527049999998416,1200,,,,0,0.052734375,-0.966796875,0.025610176366504814,0.9774244103153497,22.82464095503031,0.3147878291277781,1586,0,7.184919176854967,4.2541459353282445,59.2093777343004,0.22975808192154387,0.13603833060001028,0.115234375,,
1.9605799999998417,1200,,,,-0.125,0.08984375,-0.98828125,0.025610176366504814,0.9774244103153497,22.82460989394648,0.3144798292140572,1586,0,7.17787942132577,4.253066827801157,59.252413953418106,0.2298163771907341,0.13617175114580252,0.115234375,,
1.9696149999999908,1200,,,,-0.03125,0.041015625,-0.990234375,0.025610176366504814,0.9774244103153497,22.82450258541185,0.31330581473103153,1585,0,7.151049378352995,4.250718418562565,59.44188319311502,0.22994334464663937,0.13668265433519727,0.115234375,,
1.977864999999758,1200,,,,-0.03125,0.06640625,-0.9609375,0.025610176366504814,0.9774244103153497,22.824478121281402,0.3128561245739524,1585,0,7.140777770447065,4.249931820152422,59.516371420228985,0.22998590369863742,0.1368792646594512,0.115234375,,
1.9866599999999162,1200,,,,-0.09375,0.01953125,-0.955078125,0.025610176366504814,0.9774244103153497,22.824376163450804,0.3123618532431512,1585,0,7.129464437534298,4.249596956865227,59.606117599696404,0.2300040263197948,0.13709647041221354,0.115234375,,
1.9947099999999627,1200,,,,0,-0.0078125,-1.0234375,0.025610176366504814,0.9774244103153497,22.824227916332163,0.31132375976606264,1584,0,7.105724448670054,4.248350055521703,59.78771181194406,0.23007153307552025,0.1375545051565136,0.115234375,,
2.0029199999999254,1200,,,,-0.03125,0.052734375,-1.015625,0.025610176366504814,0.9774244103153497,22.82421683684799,0.3106519700427468,1584,0,7.09038792504966,4.247855479070944,59.91005744641529,0.23009832023031157,0.13785203583321629,0.115234375,,
2.010594999999972,1200,,,,-0.125,0.1640625,-1.04296875,0.025610176366504814,0.9774244103153497,22.824270959295237,0.31243874800666716,1584,0,7.131186642687136,4.247660558921344,59.56456858799537,0.23010887917172887,0.13706336116131182,0.115234375,,
2.0190749999999533,1200,,,,0,0,-0.990234375,0.025610176366504814,0.9774244103153497,22.824357366599557,0.3126721406230782,1584,0,7.1365406761608075,4.246813811131868,59.5080166125599,0.23015475925817547,0.13696053237395228,0.115234375,,
2.029939999999944,1200,,,,-0.03125,0.05859375,-0.947265625,0.025610176366504814,0.9736650024173954,22.824465927973204,0.3123200205059179,1583,0,7.128537666661216,4.246002686052903,59.56344603340783,0.22931332700651616,0.1365869197789383,0.1171875,,
2.0375500000000466,1200,,,,-0.09375,0.046875,-0.943359375,0.025610176366504814,0.9736650024173954,22.824443474933773,0.31255134697806636,1583,0,7.133810552115288,4.245790065561694,59.51643984017419,0.22932481054938475,0.13648596290921802,0.1171875,,
2.0454449999998325,1200,,,,0.0625,-0.0234375,-1.00390625,0.025610176366504814,0.9736650024173954,22.824356828359296,0.31362161876946226,1583,0,7.1582117358818715,4.244694534766307,59.29825340998205,0.22938399793967765,0.13602070438021802,0.1171875,,
2.053564999999944,1200,,,,-0.0625,0.064453125,-1.01953125,0.025610176366504814,0.9736650024173954,22.82443776811171,0.3144345697872088,1582,0,7.176792270251126,4.243751619531535,59.13159333205892,0.22943496455734555,0.13566855020360308,0.1171875,,
2.061994999999879,1200,,,,-0.0625,0.015625,-0.966796875,0.02597414546156723,0.9736650024173954,22.824549131015107,0.3163008630869913,1582,0,7.219424589711515,4.303684903119527,59.61257506938653,0.22623984430450148,0.13486739702288414,0.115234375,,
2.0732799999997953,1200,,,,0,-0.005859375,-0.98828125,0.02597414546156723,0.9736650024173954,22.824231697545805,0.32202064586373447,1583,0,7.349873832587221,4.305328805484077,58.57690762520971,0.22615345921481128,0.1324737028954763,0.115234375,,
2.0901999999997205,1200,,,,-0.125,0.04296875,-0.94921875,0.02597414546156723,0.9736650024173954,22.824061608779036,0.32686641982366194,1585,0,7.460419303896293,4.311586247891123,57.792813945984854,0.22582524074373625,0.1305107612260999,0.115234375,,
2.0992549999998884,1200,,,,-0.03125,0.033203125,-0.958984375,0.02597414546156723,0.9736650024173954,22.824211497726928,0.3250560734072781,1587,0,7.4191485680683655,4.317985754171092,58.20055649991268,0.22549055458945264,0.13123675762580084,0.115234375,,
2.1065249999999067,1200,,,,0,-0.01953125,-0.943359375,0.02597414546156723,0.9736650024173954,22.82429505071219,0.32316420814116653,1592,0,7.375995236443751,4.3305771284715835,58.71176688231594,0.22483492927905357,0.13200455954833784,0.115234375,,
2.115019999999786,1200,,,,-0.125,0.09375,-0.98828125,0.02597414546156723,0.9736650024173954,22.824416440422794,0.32263225963842446,1594,0,7.363893051102011,4.33599382902688,58.881814265050956,0.22455405630406844,0.13222150235759955,0.115234375,,
2.1237799999997953,1200,,,,-0.0625,0.087890625,-1.0078125,0.02597414546156723,0.9736650024173954,22.824499917837485,0.3206252708496166,1594,0,7.318111468163696,4.336737418644857,59.26033564138996,0.2245155536121083,0.13304867063766018,0.115234375,,
2.132119999999879,1200,,,,0.125,-0.05859375,-0.97265625,0.02597414546156723,0.9736650024173954,22.82460617157524,0.3202400895971038,1594,0,7.3093539254038635,4.334401034094904,59.29937280818449,0.2246365748712297,0.13320807999642698,0.115234375,,
2.140714999999851,1200,,,,-0.09375,0.06640625,-0.94140625,0.02597414546156723,0.9736650024173954,22.824355402935517,0.3193603226274832,1593,0,7.289193505245826,4.333426734176758,59.45001639835894,0.22468708072028068,0.13357650633320084,0.115234375,,
2.14997499999986,1200,,,,-0.09375,0.033203125,-0.982421875,0.02597414546156723,0.9736650024173954,22.824403978338495,0.3186030179475504,1593,0,7.271923990352721,4.333091671561864,59.58659190209289,0.2247044549755481,0.1338937265721019,0.115234375,,
2.157964999999851,1200,,,,0.125,0.02734375,-1.01171875,0.02597414546156723,0.9736650024173954,22.824379634518746,0.3182516543096325,1591,0,7.263896577276675,4.326494339705793,59.56161811609726,0.22504709956088975,0.13404169402181032,0.115234375,,
2.1663850000000093,1200,,,,-0.125,0.138671875,-1.017578125,0.02597414546156723,0.9736650024173954,22.824293600999404,0.31775776909178727,1590,0,7.2525966157495265,4.3244947569854375,59.626847956695826,0.2251511580271004,0.1342505386695591,0.1171875,,
2.1732549999998882,1200,,,,-0.0625,-0.021484375,-0.986328125,0.02597414546156723,0.9736650024173954,22.82428144797946,0.3166479216164179,1590,0,7.227261282890861,4.323799090068878,59.826245666593415,0.22518738316351442,0.13472115706157717,0.1171875,,
2.182810000000056,1200,,,,0.125,0.046875,-0.96875,0.02597414546156723,0.9479649657411517,22.824464532840967,0.31602997202559885,1588,0,7.213214887813004,4.319184926521608,59.878777960975924,0.21947774449763635,0.13142059130149775,0.1171875,,
2.191034999999683,1200,,,,-0.0625,0.072265625,-0.986328125,0.02597414546156723,0.9479649657411517,22.824376219631645,0.31648807475476887,1587,0,7.223642887229749,4.317178096653611,59.76455597335375,0.2195797681999617,0.13123087347202653,0.1171875,,
2.19909999999986,1200,,,,0,0.00390625,-1.01171875,0.02597414546156723,0.9479649657411517,22.824359280039573,0.3165160484048641,1587,0,7.2242760066910146,4.316606635080689,59.751408045355866,0.21960883765435618,0.1312193726905175,0.1171875,,
2.2070400000000374,1200,,,,-0.03125,0.01953125,-0.955078125,0.02597414546156723,0.9479649657411517,22.824341619985155,0.31505411204478007,1587,0,7.19090268209114,4.315580919855767,60.014453131227484,0.21966103366979248,0.13182836809932744,0.1171875,,
2.214784999999916,1200,,,,-0.0625,0.025390625,-0.9375,0.026295955896604828,0.9479649657411517,22.824421674134978,0.3157816557247983,1586,0,7.207533667219317,4.368643729938506,60.61218624350788,0.2169929672325318,0.1315241814342962,0.1171875,,
2.225369999999879,1200,,,,-0.0625,0.0390625,-0.984375,0.026295955896604828,0.9479649657411517,22.82440070712669,0.3138993729599914,1586,0,7.1645650701546515,4.368478559176888,60.97339498491835,0.21700117166645036,0.1323129815220855,0.115234375,,
2.234060000000056,1200,,,,-0.03125,0.052734375,-1.017578125,0.026295955896604828,0.9479649657411517,22.824373893500294,0.3119293007931684,1586,0,7.119590989641393,4.3668204206697085,61.33527090282557,0.21708356983357904,0.13314879564295024,0.115234375,,
2.2417099999999626,1200,,,,-0.0625,0.0234375,-0.96875,0.026295955896604828,0.9479649657411517,22.824420117228314,0.3105085839125678,1585,0,7.087178369226089,4.365040997023552,61.59067501359091,0.217172064681077,0.13375774057802758,0.115234375,,
2.24997499999986,1200,,,,-0.03125,0.021484375,-0.970703125,0.026295955896604828,0.9479649657411517,22.824497373795264,0.31210543910247723,1585,0,7.123649775141709,4.364321140771197,61.265240130146324,0.21720788529636975,0.13307293250843372,0.1171875,,
2.2577399999999908,1200,,,,0,0.05859375,-0.990234375,0.026295955896604828,0.9479649657411517,22.824473252907385,0.3113989252154462,1585,0,7.107516439564059,4.364297154723755,61.403968486514536,0.21720907906445122,0.13337499445858408,0.1171875,,
2.264994999999879,1200,,,,-0.125,0.08203125,-0.96875,0.026295955896604828,0.9479649657411517,22.824514824465886,0.3131408457202733,1585,0,7.147287875288162,4.364804239734816,61.06937786605996,0.21718384460668166,0.13263282272689092,0.1171875,,
2.2734849999998694,1200,,,,-0.0625,0.041015625,-1.017578125,0.026295955896604828,0.9479649657411517,22.82468798266873,0.3149546829823349,1585,0,7.18874236775214,4.365009994825825,60.720078304749805,0.21717360713144895,0.13186798430746552,0.1171875,,
2.28084999999986,1200,,,,0,0.078125,-0.8828125,0.026295955896604828,0.9479649657411517,22.824715775503275,0.3146734225397565,1585,0,7.182331431574788,4.36508424059766,60.77531066594874,0.21716991322287926,0.13198568943417613,0.1171875,,
2.28895999999973,1200,,,,-0.0625,0.07421875,-0.990234375,0.026295955896604828,0.9479649657411517,22.824680331004053,0.31479421529224244,1584,0,7.185077334094702,4.363153622404182,60.72521449003898,0.2172660070627549,0.13193524880280114,0.115234375,,
2.2967999999998137,1200,,,,-0.03125,-0.025390625,-0.998046875,0.026295955896604828,0.9479649657411517,22.82474498302217,0.31395078960194117,1584,0,7.165846709882756,4.362403947758494,60.87771793585952,0.2173033440033077,0.13228931682752418,0.115234375,,
2.3045999999998603,1200,,,,-0.0625,0.109375,-0.95703125,0.026295955896604828,0.9479649657411517,22.82477376839488,0.31431798101711683,1584,0,7.174236808054328,4.362108157510686,60.80239995163613,0.21731807912853873,0.13213460763894722,0.115234375,,
2.312284999999916,1200,,,,-0.09375,0.068359375,-1.001953125,0.026295955896604828,0.9479649657411517,22.82474032666185,0.3144387156270126,1584,0,7.176982032835632,4.362363447708789,60.78269985559955,0.21730536144095103,0.132084065614779,0.115234375,,
2.3212899999998045,1200,,,,0.03125,-0.017578125,-0.953125,0.026295955896604828,0.9479649657411517,22.82491926148833,0.31506115021488246,1584,0,7.191245316086339,4.3629030837144285,60.6696461036436,0.21727848351242454,0.1318220870063516,0.115234375,,
2.3300149999998974,1200,,,,-0.0625,0.12890625,-0.96484375,0.026295955896604828,0.9286747952762611,22.824942161788236,0.31349859344518394,1584,0,7.155587263188288,4.363097227018099,60.97469105665061,0.21284760502826372,0.12978316958746372,0.115234375,,
2.337894999999786,1200,,,,-0.09375,0.041015625,-0.998046875,0.026295955896604828,0.9286747952762611,22.82470119030991,0.3139924225150621,1584,0,7.166783219927829,4.363162444204682,60.88034631872986,0.212844423546449,0.12958042217518237,0.115234375,,
2.347429999999935,1200,,,,0,0.0625,-1.0234375,0.026295955896604828,0.9286747952762611,22.824891656678393,0.31292012964885924,1585,0,7.142368056428968,4.364037879439004,61.10071400634217,0.21280172650463838,0.13002337431215757,0.115234375,,
2.35720999999973,1200,,,,0,0.0625,-0.951171875,0.026295955896604828,0.9286747952762611,22.824984374599804,0.3135922108081269,1585,0,7.157737311691704,4.364324485834321,60.97352132084364,0.21278775175643883,0.12974418518535605,0.115234375,,
2.3786049999997485,1200,,,,-0.041015625,0.01953125,-0.974609375,0.025704284988339324,0.9286747952762611,22.824619709710785,0.31479923999534976,1585,0,7.185172937799836,4.26705686200808,59.38697507974931,0.21763825168226747,0.1292487742905503,0.115234375,,
2.39572499999986,1200,,,,0.03125,0.015625,-0.9609375,0.025704284988339324,0.9286747952762611,22.82463116804119,0.3138538979495886,1585,0,7.163599461351399,4.266710597661367,59.56098775037404,0.21765591408643423,0.12963801232698574,0.115234375,,
2.4032599999997766,1200,,,,-0.1875,0.09765625,-0.94140625,0.025704284988339324,0.9286747952762611,22.824799351744154,0.3146665772249418,1585,0,7.182201487859404,4.266069578166166,59.3977986467995,0.21768861905798212,0.12930224762505863,0.115234375,,
2.4106449999997857,1200,,,,-0.03125,-0.041015625,-0.974609375,0.025704284988339324,0.9286747952762611,22.82485382676689,0.31300526992547323,1585,0,7.144299533056641,4.26583307569311,59.709605622708295,0.2177006879542211,0.12998822221538825,0.1171875,,
2.4183649999999908,1200,,,,-0.0625,0.16796875,-1.0625,0.025704284988339324,0.9286747952762611,22.825002248561805,0.31381276168258937,1585,0,7.1627769910324925,4.2657316481345395,59.55415969916504,0.21770586428763816,0.12965289809230754,0.1171875,,
2.4253249999999533,1200,,,,-0.03125,0.044921875,-0.98828125,0.025704284988339324,0.9286747952762611,22.824873459037654,0.31367467506309366,1585,0,7.159584765619867,4.266047211366778,59.58512052056736,0.21768976039501622,0.12971070609230476,0.1171875,,
2.432274999999907,1200,,,,0.0625,0.078125,-0.90625,0.025704284988339324,0.9286747952762611,22.824836222997586,0.31345108309434344,1585,0,7.154469635549597,4.2661847205458985,59.62964325612343,0.21768274374144503,0.129803443523165,0.1171875,,
2.4393199999998325,1200,,,,-0.09375,0.021484375,-0.990234375,0.025704284988339324,0.9286747952762611,22.824625757325723,0.31361022653638754,1585,0,7.158036054363186,4.266246025928075,59.60078984692429,0.2176796156696655,0.12973877027486982,0.1171875,,
2.4652899999998046,1200,,,,-0.09375,0.12890625,-1.005859375,0.025704284988339324,0.9286747952762611,22.82480176267847,0.31434160900725305,1584,0,7.174784911351935,4.26443481505976,59.43641332456638,0.21777206958274187,0.12943590738266078,0.119140625,,
2.472214999999851,1200,,,,-0.01953125,0.060546875,-0.98828125,0.025704284988339324,0.8966482565943971,22.824921713461855,0.3135689051265836,1584,0,7.157185711290218,4.264028194856836,59.57688352463002,0.21028197179275498,0.125279445408265,0.119140625,,
2.479784999999916,1200,,,,-0.09375,0.0234375,-0.935546875,0.025704284988339324,0.8966482565943971,22.825057798983135,0.3137252575075438,1583,0,7.160797135610555,4.261360353086933,59.50958074060275,0.210413619666045,0.12521626288438983,0.119140625,,
2.4880649999999442,1200,,,,0,-0.0625,-0.97265625,0.025704284988339324,0.8966482565943971,22.82513618042224,0.3138897842131974,1583,0,7.164577070309583,4.260155450539733,59.46136678735805,0.2104731310874578,0.12515020046475023,0.119140625,,
2.4954549999998417,1200,,,,-0.03125,0.064453125,-1.01171875,0.025704284988339324,0.8966482565943971,22.825081244559097,0.3138354675605402,1582,0,7.163320044493521,4.259678622583436,59.46514459950553,0.21049669142659222,0.12517216193399802,0.119140625,,
2.502530000000028,1200,,,,-0.125,0.10546875,-0.984375,0.025704284988339324,0.8966482565943971,22.82494333258012,0.31281618519943494,1583,0,7.14001170069099,4.259979766928662,59.66348439620055,0.21048181110044514,0.1255807825227544,0.119140625,,
2.516999999999767,1200,,,,-0.125,0.02734375,-0.89453125,0.025838210511108264,0.8966482565943971,22.824867378485457,0.31318383883539547,1583,0,7.148379586502865,4.282694954754636,59.911409333115984,0.20936542669212077,0.12543377778754133,0.1171875,,
2.525269999999786,1200,,,,-0.03125,0.01171875,-0.982421875,0.025838210511108264,0.8966482565943971,22.824727299967655,0.3133756468062875,1583,0,7.152713680804492,4.282770251389888,59.876159490116606,0.20936174577737568,0.12535777281295393,0.1171875,,
2.5364549999998416,1200,,,,-0.0625,0.14453125,-0.9765625,0.025838210511108264,0.8966482565943971,22.8246913628908,0.3144163684220683,1582,0,7.176456568674674,4.2816474712571075,59.66241738222947,0.20941664688969308,0.12494303393519836,0.1171875,,
2.5456649999998042,1200,,,,-0.01953125,0.025390625,-1.015625,0.025838210511108264,0.8966482565943971,22.824787593929557,0.3138961773232196,1582,0,7.164613573948936,4.2811212616260566,59.75369386553561,0.20944238712216057,0.1251495628256458,0.1171875,,
2.5542249999998603,1200,,,,-0.0625,0.052734375,-0.953125,0.025838210511108264,0.8966482565943971,22.824638060863904,0.31197133274486066,1582,0,7.120632755266785,4.280994833724816,60.12098897472803,0.20944857245114676,0.12592255315107917,0.1171875,,
2.562654999999795,1200,,,,-0.0625,0,-0.978515625,0.025838210511108264,0.8966482565943971,22.824737301371588,0.3117979997585224,1583,0,7.116707435581396,4.283245855495395,60.185779649735984,0.2093384986164171,0.1259920074993424,0.1171875,,
2.5702399999999908,1200,,,,0.0625,0.0703125,-0.9609375,0.025838210511108264,0.8966482565943971,22.824899798708255,0.312711159695618,1583,0,7.137600885990337,4.284144643117742,60.02219389328211,0.20929458066613518,0.12562319901555938,0.1171875,,
2.578214999999851,1200,,,,-0.09375,0.05078125,-1.00390625,0.025838210511108264,0.8966482565943971,22.824663234606195,0.31198061899401397,1583,0,7.1208525642623535,4.284489239973281,60.168206002129324,0.2092777473284047,0.12591866612917024,0.1171875,,
2.5858899999996647,1200,,,,0.0625,0.0390625,-0.890625,0.025838210511108264,0.8966482565943971,22.8244987089331,0.31180481596091275,1584,0,7.116788619338975,4.285013928074464,60.20993677443896,0.2092521218472024,0.12599057026337251,0.1171875,,
2.593524999999907,1200,,,,-0.0625,0.009765625,-0.97265625,0.025838210511108264,0.8966482565943971,22.82447455283963,0.31174612921409095,1584,0,7.115441593193274,4.285217498164868,60.224196095772385,0.2092421812844702,0.12601442157183088,0.1171875,,
2.6010199999997856,1200,,,,0.0625,-0.07421875,-0.953125,0.025838210511108264,0.8966482565943971,22.824540281991936,0.3119770801807565,1584,0,7.120733433643904,4.285293212092385,60.180503202736304,0.20923848432686118,0.1259207727616836,0.1171875,,
2.6108199999998325,1200,,,,-0.0625,0.125,-0.966796875,0.025838210511108264,0.8966482565943971,22.82472937302416,0.3117831707693327,1584,0,7.116366495873396,4.285330735042935,60.2179600717289,0.2092366522056584,0.12599804368062564,0.1171875,,
2.6183599999998695,1200,,,,-0.09375,0.03125,-1.005859375,0.025838210511108264,0.8966482565943971,22.824835113168806,0.3123106218903686,1583,0,7.128438448738872,4.284129630111888,60.09913196164042,0.20929531410350422,0.12578466701259483,0.1171875,,
2.626070000000065,1200,,,,-0.0625,0.04296875,-0.9453125,0.025838210511108264,0.8779349293676613,22.824798264565302,0.3125224369834135,1583,0,7.133261577296735,4.283742476352983,60.05306871105064,0.20494577678607376,0.12307622815373735,0.1171875,,
2.634079999999842,1200,,,,0.0625,0.01171875,-0.94921875,0.025838210511108264,0.8779349293676613,22.82514783760863,0.3130612553672908,1583,0,7.14566943598576,4.283567636201886,59.94634476973898,0.20495414195119385,0.12286251655392288,0.1171875,,
2.642304999999702,1200,,,,-0.09375,0.064453125,-0.939453125,0.025838210511108264,0.8779349293676613,22.8249584473234,0.3136929767160096,1584,0,7.160029158760106,4.285040965613499,59.84669713769063,0.20488367238794072,0.12261611089858918,0.1171875,,
2.65098499999987,1200,,,,0.0625,-0.0078125,-1.02734375,0.025838210511108264,0.8779349293676613,22.825053060640904,0.31508387039376207,1584,0,7.1918060602897205,4.285649060639959,59.59072067173224,0.20485460123899243,0.12207433320751894,0.1171875,,
2.6591999999997205,1200,,,,-0.0625,0.0859375,-1.005859375,0.025838210511108264,0.8779349293676613,22.825001605492908,0.3142273020521869,1584,0,7.172238673830871,4.285852351194788,59.756131190006926,0.2048448843840631,0.12240737784855873,0.1171875,,
2.6669499999997206,1200,,,,-0.0625,-0.03515625,-0.9453125,0.02557508693784225,0.8779349293676613,22.82521224312884,0.31478906211602387,1584,0,7.1851271546137125,4.240965181347996,59.024218919003935,0.20701300100950334,0.12218780690664909,0.1171875,,
2.675254999999888,1200,,,,-0.041015625,0.048828125,-0.935546875,0.02557508693784225,0.8779349293676613,22.825152060496087,0.3149042513663409,1583,0,7.187737421933415,4.2391284762938035,58.97723062834882,0.20710269440458776,0.12214343371651817,0.1171875,,
2.6867599999997767,1200,,,,0,0.09765625,-0.9765625,0.02557508693784225,0.8779349293676613,22.825089183290576,0.3154976004385191,1583,0,7.201260867123374,4.238377144422912,58.85604233243087,0.20713940724291044,0.12191405721403374,0.1171875,,
2.6951149999999906,1200,,,,-0.09375,0.06640625,-1.00390625,0.02557508693784225,0.8779349293676613,22.82487856996894,0.3144974854347504,1583,0,7.178366915608755,4.239845565973801,59.06420799910094,0.20706766690121614,0.12230287747741979,0.1171875,,
2.703244999999879,1200,,,,-0.0625,0.013671875,-0.97265625,0.02557508693784225,0.8779349293676613,22.82474301630654,0.3133931157709426,1584,0,7.153117330551369,4.241695165167074,59.298554310727624,0.20697737465372076,0.12273459091995478,0.1171875,,
2.7125149999998976,1200,,,,0.03125,0.015625,-0.962890625,0.02557508693784225,0.8779349293676613,22.824775547648805,0.31407694224992316,1584,0,7.168735711546352,4.24251221161321,59.180759095079914,0.20693751380713826,0.12246719152355023,0.1171875,,
2.719839999999851,1200,,,,-0.1875,0.078125,-0.9609375,0.02557508693784225,0.8779349293676613,22.824802702781717,0.3138015022317264,1584,0,7.162457376275673,4.242029443614973,59.22589442089971,0.206961064518096,0.12257454156385765,0.1171875,,
2.7263599999998696,1200,,,,0.03125,0.00390625,-1.01953125,0.02557508693784225,0.8779349293676613,22.824768345521356,0.3147812386611814,1584,0,7.184808851957737,4.241146401565315,59.02935608940627,0.2070041555376713,0.12219322009220039,0.1171875,,
2.7342349999998694,1200,,,,-0.0625,0.06640625,-0.962890625,0.02557508693784225,0.8779349293676613,22.82482795044554,0.315523787090421,1583,0,7.201776154611869,4.240732743719416,58.88453976737028,0.2070243475418004,0.12190533425639033,0.1171875,,
2.7427499999997673,1200,,,,-0.1875,0.0390625,-0.99609375,0.02557508693784225,0.8779349293676613,22.82488652604052,0.3156028873795653,1583,0,7.2036000917293235,4.24056492853222,58.86730071816374,0.20703254027796236,0.12187446806988154,0.1171875,,
2.7502049999998417,1200,,,,0.0625,0.04296875,-0.97265625,0.02557508693784225,0.8779349293676613,22.824846389695598,0.3154745604118496,1584,0,7.200658381257211,4.2419563049854085,58.91067289106384,0.20696463288314831,0.12192425787798264,0.1171875,,
2.757774999999907,1200,,,,-0.09375,0.08984375,-0.9609375,0.02557508693784225,0.8779349293676613,22.82480678869117,0.3164662987997855,1584,0,7.223282125237312,4.242552840516933,58.73441971335917,0.20693553206533297,0.12154238393932562,0.1171875,,
2.766149999999907,1200,,,,-0.03125,0.048828125,-0.96484375,0.02557508693784225,0.8779349293676613,22.82457069816919,0.3160712704007209,1584,0,7.214191056921405,4.242803540714149,58.81190984876314,0.20692330458927805,0.12169554735112777,0.1171875,,0.2495199999997858,4951,
2.7842349999998697,1200,,,,-0.03125,0.02734375,-0.953125,0.02557508693784225,0.8447629783274114,22.824528035116895,0.3169490143921778,1584,0,7.2342116646969306,4.242442107389916,58.64415231438558,0.19912186352665073,0.11677332893781203,0.1171875,,
2.7940149999998978,1500,,,,-0.125,0.02734375,-0.95703125,0.02557508693784225,0.8447629783274114,22.824338722553986,0.31695836934430727,1584,0,7.234365182862841,4.242373558573562,58.64196030113503,0.19912508096327353,0.11677085092808587,0.1171875,,
2.801969999999972,1500,,,,0,0.060546875,-1.009765625,0.02557508693784225,0.8447629783274114,22.824321575310815,0.31740453783869804,1584,0,7.2445432410933535,4.242352290251268,58.559279019652976,0.1991260792434985,0.11660679634509559,0.1171875,,
2.811159999999916,1500,,,,-0.03125,0.0390625,-0.97265625,0.02557508693784225,0.8447629783274114,22.824505210260988,0.3169564470030008,1584,0,7.234374076045802,4.242344159722926,58.641481835588536,0.1991264608721854,0.11677070738221293,0.115234375,,
2.8193199999998324,1500,,,,-0.125,-0.0625,-0.94140625,0.02521534188171465,0.8447629783274114,22.824477918978904,0.39733403860984295,1584,0,9.068941990709071,4.182667124128136,46.120783751987666,0.20196753728125083,0.09314901111870076,0.1171875,,
2.826429999999702,1500,,,,0.03125,0.140625,-1.2109375,0.02521534188171465,0.8447629783274114,22.802905156900852,1.0654431532461963,1604,0,24.295199173542397,4.236749076977892,17.438626646830436,0.19938942877636448,0.034770778057558085,0.119140625,,
2.8339149999998043,1500,,,,0,-0.05078125,-0.658203125,0.02521534188171465,0.8447629783274114,22.785313152470447,1.566545500476347,1622,0,35.69422979594711,4.2821016345026175,11.996621467901312,0.19727765719543316,0.023666653774480094,0.126953125,,
2.8440699999998325,1500,,,,-0.3125,0.23828125,-1.03515625,0.02521534188171465,0.8447629783274114,22.768791325108076,2.101858791881671,1630,0,47.85678422719753,4.30351612761812,8.992489146757974,0.19629599454875635,0.01765189600531754,0.12890625,,
2.8522599999997764,1500,,,,-0.125,-0.361328125,-1.041015625,0.02521534188171465,0.8447629783274114,22.75185776615707,2.599217568197266,1812,0,59.137028414920856,4.7852996829781045,8.091883902929972,0.17653293091179567,0.014284839819822082,0.13671875,,
2.8603249999997207,1500,,,,-0.03125,-0.455078125,-1.3125,0.02521534188171465,0.8447629783274114,22.741866593598168,2.8655573786580892,1940,0,65.16812362174313,5.123184495277789,7.861488424945927,0.16489021215340924,0.012962824942309048,0.150390625,,
2.8692399999999907,1500,,,,-0.125,0.0859375,-0.83203125,0.02521534188171465,0.8447629783274114,22.73204346760887,3.125230577357474,2267,0,71.04287733079047,5.9870598759019815,8.42738934689396,0.1410981342825043,0.011890889137189904,0.154296875,,
2.87735999999987,1500,,,,0.125,0.59375,-1.05859375,0.02521534188171465,0.8447629783274114,22.725079344818262,3.306429223637995,2379,0,75.13886645519928,6.282295320451203,8.36091308909611,0.1344672504613711,0.011242689944372424,0.15625,,
2.8855149999998977,1500,,,,-0.09375,-0.31640625,-0.865234375,0.02521534188171465,0.8447629783274114,22.718937644677556,3.453180991485569,2581,0,78.45260362134646,6.814291907691438,8.685870950288402,0.12396929714353876,0.010767813167867341,0.158203125,,
2.8936649999998045,1500,,,,-0.3125,-0.34765625,-0.8984375,0.02521534188171465,0.8447629783274114,22.71455326002047,3.5677116598171503,2661,0,81.03897651331269,7.025398748310286,8.669160261613358,0.12024413255270237,0.010424156556180567,0.1640625,,
2.9014449999998324,1500,,,,-0.15625,0.5,-1.064453125,0.02521534188171465,0.8447629783274114,22.711072113998192,3.6532261903919543,2826,0,82.96868345873857,7.46122229483322,8.99281751113212,0.11322045436340859,0.010181708846175959,0.169921875,,
2.910435000000056,1500,,,,-0.6875,-0.0234375,-0.78125,0.02521534188171465,0.8447629783274114,22.707695040593013,3.72892488887158,2948,0,84.67528920577303,7.785576758084765,9.194626710001193,0.10850358355919945,0.009976499475242618,0.177734375,,
2.918814999999944,1500,,,,0.28125,0.21875,-0.96484375,0.02521534188171465,0.8447629783274114,22.705477620157144,3.781683954547931,4407,0,85.86494039649541,11.637433928694678,13.553184658321454,0.07259014173601111,0.009838275953218859,0.185546875,,
2.927689999999944,1500,,,,-0.3125,-0.119140625,-0.984375,0.02521534188171465,0.8306625264808914,22.70359829268058,3.8152591865468573,5692,0,86.62011195381913,15.030551772417704,17.352265465127925,0.055264938976174204,0.0095897189202867,0.189453125,,
2.9353300000000746,1500,,,,0,0.23046875,-0.97265625,0.02521534188171465,0.8306625264808914,22.702528405202965,3.834754748728023,6171,0,87.0586286099849,16.29382792045856,18.71592532597027,0.05098019511043872,0.009541415247903659,0.189453125,,
2.9426249999997673,1500,,,,0.09375,0.119140625,-0.888671875,0.02521534188171465,0.8306625264808914,22.702018415837117,3.8374970530333306,6307,0,87.11892876868333,16.652871225239213,19.115101001133322,0.04988103944633483,0.009534811070582056,0.193359375,,
2.951469999999972,1500,,,,-0.1875,0.01953125,-1.0625,0.02521534188171465,0.8306625264808914,22.701850974152503,3.8348717635353853,4772,0,87.05868728076571,12.600131749137603,14.473146957180699,0.06592490801040592,0.009541408817732239,0.193359375,,
2.959209999999963,1500,,,,0.0625,-0.1328125,-1.044921875,0.02521534188171465,0.8306625264808914,22.701760621207818,3.825235305880865,4184,0,86.83957623390006,11.0474775771179,12.721708299637271,0.07519024326434498,0.009565483417877631,0.193359375,,
2.9674699999997394,1500,,,,-0.125,0.2734375,-0.91796875,0.025131901588261122,0.8306625264808914,22.70180513835173,3.809503376391907,3951,0,86.48260332474206,10.39795774570526,12.023178472855335,0.07988708425209612,0.009604966716389825,0.1953125,,
2.9763349999997297,1500,,,,0.08203125,0.17578125,-0.96875,0.025131901588261122,0.8306625264808914,22.702033912863797,3.7884080116452585,3643,0,86.00456715613556,9.586707736755068,11.146742613506836,0.08664731931861898,0.009658353665949844,0.19921875,,
2.9851649999998044,1500,,,,-0.25,0.34375,-1.2421875,0.025131901588261122,0.8306625264808914,22.7024643384916,3.7649932086298508,3548,0,85.47462405358225,9.33696286231408,10.92366648662992,0.08896495988364887,0.009718235507653904,0.201171875,,
2.9947049999998416,1500,,,,0.09375,0.2109375,-0.92578125,0.025131901588261122,0.8306625264808914,22.70312064039555,3.7385260334113917,3526,0,84.87620755379827,9.279268215238988,10.932708332140525,0.08951810716245125,0.009786753560523791,0.203125,,
3.0030749999997206,1500,,,,-0.125,0.05078125,-0.927734375,0.025131901588261122,0.8306625264808914,22.70384846821415,3.70561812131123,3532,0,84.13179230731856,9.295586422055319,11.048839169026834,0.08936096000463263,0.009873348750810253,0.20703125,,
3.0114899999997577,1500,,,,-0.09375,0.0390625,-0.8984375,0.025131901588261122,0.8306625264808914,22.704645949525936,3.6784490300051744,3537,0,83.5178828696446,9.30767626468075,11.144530901493573,0.08924488807512075,0.009945924129535185,0.212890625,,
3.028494999999879,1500,,,,-0.03125,0.0078125,-1.056640625,0.025131901588261122,0.8306625264808914,22.705850395560454,3.622293956335419,3591,0,82.2472646612948,9.450783451574134,11.490696366005263,0.0878935096478732,0.010099576319062652,0.21875,,
3.0366099999998695,1500,,,,-0.1875,0.1328125,-0.935546875,0.025131901588261122,0.8306625264808914,22.70664531727884,3.5942144945706604,3583,0,81.61255372243862,9.429074902159122,11.55346141259967,0.08809586678441611,0.010178121975032726,0.22265625,,
3.045214999999851,1500,,,,0.375,-0.21484375,-0.8359375,0.025131901588261122,0.8306625264808914,22.70742813696169,3.567360028470996,3592,0,81.00557148517474,9.454216538468327,11.671069489582692,0.08786159308928487,0.010254387584104822,0.2265625,,
3.0527549999998884,1500,,,,-0.25,0.05078125,-0.908203125,0.025131901588261122,0.8306625264808914,22.7081813583202,3.5378899688873777,3615,0,80.33904703927638,9.51528143823604,11.843906280820311,0.08729773594956128,0.01033946203114402,0.23046875,,
3.060780000000028,1500,,,,-0.1875,0.025390625,-0.982421875,0.025131901588261122,0.8306625264808914,22.708768799315273,3.5065973285214174,3635,0,79.63050800568945,9.565514625262088,12.01237423297444,0.08683929292075407,0.010431460846909858,0.23828125,,
3.0705949999997393,1500,,,,-0.375,-0.30078125,-1.06640625,0.025131901588261122,0.8306625264808914,22.70946841705931,3.4712481034119693,3636,0,78.83019917221114,9.569465334687612,12.139339282629894,0.08680344172102149,0.010537364299514707,0.244140625,,
3.0786749999998135,1500,,,,0.1875,0.322265625,-1.072265625,0.025131901588261122,2.580590853765313,22.710184170138604,3.443181904411969,3635,0,78.1952951804844,9.566824388948218,12.23452685595317,0.2697437256971563,0.03300186856266724,0.248046875,,
3.086619999999646,1500,,,,0,-0.12890625,-0.93359375,0.025131901588261122,2.580590853765313,22.710922645559936,3.415732014277641,3638,0,77.57442555422213,9.57363201665354,12.34122192753057,0.2695519160624013,0.03326600017117187,0.255859375,,
3.0947999999998137,1500,,,,-0.15625,0.009765625,-0.912109375,0.025131901588261122,2.580590853765313,22.711964535989694,3.3912904747635393,3643,0,77.02286899406916,9.588242621912086,12.44856592222031,0.26914117169582974,0.03350421618239151,0.259765625,,
3.1028599999998696,1500,,,,-0.0625,0.2734375,-0.953125,0.025131901588261122,2.580590853765313,22.712743901897184,3.3672900092179967,3653,0,76.48039562278537,9.612731192383334,12.568882671312265,0.26845553070391165,0.03374186067882332,0.259765625,,
3.1103599999998695,1500,,,,-0.03125,0.005859375,-0.919921875,0.025131901588261122,2.580590853765313,22.713292617449017,3.341122476044179,3663,0,75.88789246912724,9.64134032005122,12.704714818603662,0.2676589320676115,0.03400530400571015,0.265625,,
3.118260000000009,1500,,,,-0.5,-0.03515625,-1.08203125,0.09652127496963864,2.580590853765313,22.714089381107854,3.3171428350119507,3661,0,75.34587884436296,37.002894103607375,49.11070740848591,0.06974024373714417,0.03424992704771379,0.26953125,,
3.126629999999888,1500,,,,0.1875,0.09765625,-1.130859375,0.09652127496963864,2.580590853765313,22.714769136965128,3.293330925743932,3662,0,74.80725166990105,37.01597045372963,49.48179438147054,0.06971560713209127,0.03449653337289522,0.271484375,,
3.1355199999997856,1500,,,,-0.0625,-0.0546875,-0.92578125,0.09652127496963864,2.580590853765313,22.71542101047077,3.268785556748493,3665,0,74.2518401144881,37.04577422518656,49.89206216043412,0.06965952008666158,0.03475457106229728,0.27734375,,
3.1483449999997393,1500,,,,0.3125,-0.09375,-1.07421875,0.09652127496963864,2.580590853765313,22.71582094071415,3.2538029607607024,3688,0,73.91280543300566,37.278696376360614,50.43604576767136,0.06922427833076622,0.03491398870124546,0.27734375,,
3.1663850000000093,1500,,,,-0.5,-0.07421875,-0.8515625,0.09652127496963864,2.580590853765313,22.71666145889136,3.2095790468381025,3679,0,72.91092063257238,37.18820171500816,51.00498168499963,0.0693927303487723,0.035393749405112494,0.28515625,,
3.174174999999814,1500,,,,0,0.12890625,-1.08203125,0.09652127496963864,2.580590853765313,22.71746948405597,3.1856327299198557,3684,0,72.36951432936424,37.2374454637622,51.45460185664524,0.06930096363018853,0.03565853491873204,0.287109375,,
3.1826699999999253,1500,,,,0,0.203125,-1.017578125,0.09652127496963864,2.580590853765313,22.717935392856024,3.163790545188683,3684,0,71.87478920212524,37.23437219201409,51.804495853621404,0.0693066836324634,0.035903978048662,0.29296875,,
3.1906649999998042,1500,,,,0.0625,-0.0234375,-0.984375,0.09652127496963864,2.580590853765313,22.718612995204403,3.1408012526673046,3680,0,71.3546481542017,37.192313312164586,52.1231822652811,0.06938505900683711,0.036165700771006545,0.29296875,,
3.199779999999795,1500,,,,-0.09375,0.00390625,-0.91796875,0.09652127496963864,2.580590853765313,22.719343273638582,3.1204320950006803,3690,0,70.89416792839965,37.2972937943584,52.60981951579884,0.0691897612731263,0.036400608529203834,0.294921875,,
3.207454999999842,1500,,,,0.4375,0,-0.9453125,0.09652127496963864,2.580590853765313,22.71977492671942,3.100864721220662,3694,0,70.450948544338,37.333479272408574,52.9921598556092,0.06912269909096062,0.03662961119879357,0.296875,,
3.2160099999997764,1500,,,,-0.3125,-0.095703125,-0.931640625,0.09652127496963864,2.580590853765313,22.720376686460256,3.08513509140481,3695,0,70.09543140533428,37.34747300808077,53.280894716397476,0.06909679948645944,0.03681539298678073,0.298828125,,
3.223969999999972,1500,,,,0,0.07421875,-0.974609375,0.09652127496963864,4.155446781936391,22.72094084305935,3.0681342988163087,3691,0,69.71089790196673,37.30647397173819,53.51598544061456,0.11138674711216026,0.059609715367317836,0.302734375,,
3.2317599999997766,1500,,,,0.0625,0.10546875,-1.07421875,0.09652127496963864,4.155446781936391,22.721480921455704,3.0549138032922065,3682,0,69.41216569819555,37.22052174128692,53.622475782014845,0.11164396917432123,0.05986626033258052,0.30859375,,
3.239594999999972,1500,,,,-0.1875,0.203125,-1.04296875,0.09652127496963864,4.155446781936391,22.722001848338433,3.0398151530220203,3679,0,69.07068552557352,37.18628292822765,53.838010503688096,0.11174676398705187,0.06016223453288053,0.30859375,,
3.2472599999997764,1500,,,,-0.0625,-0.05859375,-0.876953125,0.09652127496963864,4.155446781936391,22.72229497163778,3.029250921076222,3688,0,68.83153297179936,37.27361208040038,54.15194238906691,0.1114849500760205,0.060371265937646613,0.3125,,
3.255469999999739,1500,,,,0.3125,-0.0078125,-1.11328125,0.09652127496963864,4.155446781936391,22.722779061129796,3.0170385520756526,3687,0,68.555500437726,37.26930127757385,54.36369224877631,0.1114978451296284,0.06061434539028839,0.314453125,,
3.2628299999998416,1500,,,,-0.25,-0.044921875,-0.880859375,0.09652127496963864,4.155446781936391,22.72302468602229,3.0047243120406533,3688,0,68.2764247171911,37.27781453836187,54.59836933871526,0.11147238198902731,0.06086210282903264,0.31640625,,
3.2697249999998603,1500,,,,0.375,0.2421875,-1.22265625,0.12604379216142797,4.155446781936391,22.72306656898372,2.994021686460767,3690,0,68.03335409042892,48.70924686995182,71.59612740128645,0.08531125092184168,0.061079551897632936,0.31640625,,
3.2787249999998602,1500,,,,-0.5,-0.109375,-0.892578125,0.12604379216142797,4.155446781936391,22.723309875666374,2.982087360998672,3694,0,67.762895180281,48.75380138643419,71.94763632328026,0.08523328773892593,0.06132333588877745,0.3203125,,
3.2859799999997485,1500,,,,0.15625,0.212890625,-1.103515625,0.12604379216142797,4.155446781936391,22.723873632396607,2.971204631559085,3695,0,67.51727858354018,48.76794601857469,72.23031947034619,0.0852085667162129,0.06154641995522364,0.322265625,,
3.2972299999997485,1500,,,,-0.5625,-0.36328125,-0.58984375,0.12604379216142797,4.155446781936391,22.72417735580278,2.962601270833564,3695,0,67.3226767129486,48.76663630062063,72.43716186234323,0.08521085514941505,0.061724325068868616,0.326171875,,
3.3064349999998233,1500,,,,0.125,0.056640625,-1.015625,0.12604379216142797,4.155446781936391,22.724522818828085,2.9491478981237687,3688,0,67.01797870701246,48.681667933914575,72.63971380984181,0.08535958109688055,0.06200495541805386,0.330078125,,
3.314144999999786,1500,,,,0.0625,-0.01171875,-1.01953125,0.12604379216142797,4.155446781936391,22.724617486639584,2.9436115599321115,3682,0,66.89244672870768,48.595946779614515,72.64788351471526,0.08551015171659454,0.06212131541232789,0.330078125,,
3.3224149999998045,1500,,,,-0.09375,-0.080078125,-0.814453125,0.12604379216142797,4.155446781936391,22.72491522835883,2.934086922982645,3680,0,66.67687659741682,48.57954019140449,72.85815213678822,0.08553903074347424,0.06232215715541451,0.333984375,,
3.330839999999851,1500,,,,0.0625,0.21484375,-1.171875,0.12604379216142797,4.155446781936391,22.725000625068038,2.9272296310545443,3684,0,66.5212951954322,48.62105284825357,73.09095937685865,0.08546599751563486,0.06246791752517969,0.3359375,,
3.3387699999997857,1500,,,,-0.375,0.02734375,-0.84375,0.12604379216142797,4.155446781936391,22.725214304421375,2.9205151449680855,3694,0,66.369332548708,48.76014020440405,73.46787790674152,0.08522220741196859,0.0626109472908551,0.337890625,,
3.3471049999997486,1500,,,,0,0.162109375,-1.009765625,0.12604379216142797,4.155446781936391,22.725350288759493,2.9151506774098315,3692,0,66.24782028865295,48.73335153088644,73.56219618780963,0.08526905397226238,0.06272578877056494,0.341796875,,
3.355529999999795,1500,,,,0,0.05078125,-0.9375,0.12604379216142797,4.155446781936391,22.72556853869059,2.9051476196423875,3685,0,66.0211313451969,48.6360900491852,73.66745927888968,0.08543957332371965,0.06294116288630827,0.33984375,,
3.364029999999795,1500,,,,-0.125,-0.10546875,-0.91796875,0.12604379216142797,4.155446781936391,22.725881860529682,2.8978458326646486,3689,0,65.85610204316507,48.694069779978754,73.94010314801575,0.08533784094680376,0.06309888762035633,0.341796875,,
3.37172499999986,1500,,,,-0.15625,-0.080078125,-0.861328125,0.12604379216142797,4.953560111805686,22.726052908976488,2.8893289022645243,3692,0,65.66304150429853,48.737736924782666,74.22400152084354,0.10163705630096355,0.0754390902145678,0.34375,,
3.380394999999786,1500,,,,0.28125,0.154296875,-1.244140625,0.12604379216142797,4.953560111805686,22.72614883836118,2.88352377118045,3693,0,65.53139040279943,48.741176303726945,74.37836432911207,0.10162988437000273,0.07559064566397594,0.345703125,,
3.388649999999907,1500,,,,-0.5,-0.1015625,-0.64453125,0.12604379216142797,4.953560111805686,22.726468558549627,2.877879085242639,3691,0,65.40402854607439,48.7139467709665,74.48156918445716,0.1016866922135327,0.07573784401240836,0.349609375,,
3.3963850000000093,1500,,,,0.0625,0.072265625,-1.03515625,0.12604379216142797,4.953560111805686,22.726734896375678,2.871717893914925,3682,0,65.2647712721828,48.59461718716264,74.4576534015598,0.10193639539801293,0.07589944797549603,0.353515625,,
3.404589999999851,1500,,,,-0.34375,-0.12109375,-0.771484375,0.12604379216142797,4.953560111805686,22.72679814304095,2.865081394408969,3684,0,65.11412651411493,48.62760927619578,74.68058296943393,0.1018672352093311,0.07607504510917293,0.353515625,,
3.412964999999851,1500,,,,0.375,0.3359375,-1.15234375,0.12604379216142797,4.953560111805686,22.72685675790868,2.8576653877583733,3688,0,64.94575192961811,48.68059488184273,74.95577991705758,0.10175635946579822,0.0762722728527937,0.357421875,,
3.421875,1500,,,,-0.15625,-0.07421875,-0.947265625,0.12750049062998492,4.953560111805686,22.726993721657763,2.8525430900366726,3687,0,64.8297288980217,49.22223002137225,75.92539851400532,0.10063664546801018,0.07640877412271341,0.357421875,,
3.4294599999997297,1500,,,,0,0.08203125,-1.0390625,0.12750049062998492,4.953560111805686,22.727042775636782,2.8480764296167833,3688,0,64.72835484418351,49.24586246068715,76.08081895366198,0.1005883512703245,0.07652844141844913,0.357421875,,
3.438004999999888,1500,,,,-0.09375,0.041015625,-0.974609375,0.12750049062998492,4.953560111805686,22.727089895078873,2.842713098466348,3689,0,64.60659613476288,49.250167552997404,76.23086573121186,0.10057955856648063,0.07667266824385943,0.361328125,,
3.448339999999851,1500,,,,0.03125,0.197265625,-1.095703125,0.12750049062998492,4.953560111805686,22.72732939827348,2.837650607681546,3688,0,64.4922200779894,49.24673318412446,76.36073486781999,0.10058657278413247,0.07680864615631817,0.36328125,,
3.45525,1500,,,,-0.4375,-0.05078125,-0.84375,0.12750049062998492,4.953560111805686,22.72737063989227,2.8338442198103215,3687,0,64.40582791934553,49.23375457329291,76.4430117022137,0.10061308861649906,0.07691167510506902,0.365234375,,
3.4638199999998323,1500,,,,0.5,0.1640625,-1.15625,0.12750049062998492,4.953560111805686,22.727304077399094,2.828918021653398,3688,0,64.29368008815105,49.24021996034173,76.58640770419427,0.10059987781929697,0.07704583257660808,0.369140625,,
3.4728849999997764,1500,,,,-0.625,-0.109375,-0.7578125,0.12750049062998492,4.953560111805686,22.72734255191518,2.824442140641091,3689,0,64.19206404841466,49.261132357806225,76.74022184526223,0.10055717103345706,0.07716779613239469,0.373046875,,
3.4813349999999628,1500,,,,0.34375,0.015625,-1.076171875,0.12750049062998492,4.953560111805686,22.727440568931456,2.8258978916108286,3693,0,64.22542638545382,49.30255536850483,76.76485489191114,0.10047268493044663,0.07712771079286443,0.37109375,,
3.4897349999998695,1500,,,,-0.5,-0.083984375,-0.869140625,0.12750049062998492,4.953560111805686,22.727397993543164,2.8276887572789486,3689,0,64.26600778854613,49.25432357341867,76.64133072569207,0.10057107178463007,0.07707900774083153,0.376953125,,
3.498929999999935,1500,,,,0.03125,0.1796875,-1.087890625,0.12750049062998492,4.953560111805686,22.727321538033685,2.827465812643087,3685,0,64.26072466173716,49.20106863669263,76.56475848301238,0.10067992929957367,0.0770853447090862,0.376953125,,
3.5061749999998137,1500,,,,-0.5625,-0.015625,-0.87109375,0.12750049062998492,4.953560111805686,22.72735455029419,2.82391290515086,3682,0,64.18006981451488,49.16611302543237,76.6065122202672,0.10075150966771233,0.07718221756569975,0.37890625,,
3.514554999999935,1500,,,,0.34375,0.185546875,-1.0859375,0.12750049062998492,4.953560111805686,22.727583458477593,2.819088594500484,3689,0,64.07107130835205,49.2548787412587,76.87537875590046,0.10056993821520264,0.0773135209175121,0.380859375,,
3.527685000000056,1500,,,,-0.5,-0.23046875,-0.7421875,0.12750049062998492,5.301006319533406,22.727617304039498,2.824712109444815,3689,0,64.19897581754789,49.259788088598064,76.7298659539263,0.1076132587090931,0.08257150915613906,0.3828125,,
3.534864999999758,1500,,,,-0.01953125,0.041015625,-0.95703125,0.12750049062998492,5.301006319533406,22.72740547623461,2.830186925968654,3697,0,64.32280584002758,49.36525465132778,76.74611517118889,0.10738334800407687,0.0824125479338874,0.3828125,,
3.5420649999997114,1500,,,,0.25,0.251953125,-1.23046875,0.12750049062998492,5.301006319533406,22.727344578139522,2.8245355549293416,3698,0,64.19419283008568,49.369227212016234,76.90606429570764,0.10737470725981237,0.08257766140255915,0.384765625,,
3.549019999999786,1500,,,,-0.5,-0.01953125,-0.65625,0.12750049062998492,5.301006319533406,22.7275471181853,2.8193976104885397,3692,0,64.07799203727733,49.29854681651077,76.93522416843427,0.107528652705804,0.08272741000450747,0.388671875,,
3.5563999999999067,1500,,,,-0.5625,-0.14453125,-0.98046875,0.12750049062998492,5.301006319533406,22.727508715896327,2.814560939485484,3694,0,63.96795828357769,49.32570371747862,77.11001732900684,0.1074694514222407,0.08286971261507839,0.390625,,
3.5640399999998045,1500,,,,0.25,0.1484375,-1.091796875,0.12710693824590436,5.301006319533406,22.72735738124328,2.8120024677621793,3695,0,63.909385041769085,49.18508584108416,76.96066205133783,0.10777670159326001,0.08294566308326769,0.392578125,,
3.5728849999997765,1500,,,,-0.125,-0.056640625,-0.91796875,0.12710693824590436,5.301006319533406,22.727392738184662,2.8062027807486167,3695,0,63.777672701059714,49.1799782186635,77.11159115068547,0.10778789482102102,0.0831169607643166,0.39453125,,
3.581034999999916,1500,,,,0.25,0.2421875,-0.984375,0.12710693824590436,5.301006319533406,22.727553616259495,2.8026846812651263,3696,0,63.698166362922315,49.198821763924094,77.23742232015323,0.10774661118857246,0.08322070511937119,0.39453125,,
3.590079999999842,1500,,,,-0.21875,0.041015625,-0.82421875,0.12710693824590436,5.301006319533406,22.72764924919279,2.799497581710672,3696,0,63.625999111083594,49.19940792851106,77.32594947957456,0.10774532748922518,0.08331509750092043,0.396484375,,
3.600204999999842,1500,,,,0.0625,0.05078125,-0.890625,0.12710693824590436,5.301006319533406,22.727894212951696,2.796090600843456,3695,0,63.54925138579861,49.18494278547291,77.39657307192812,0.1077770150644374,0.08341571621909027,0.3984375,,
3.6071299999998883,1500,,,,0.0625,0.087890625,-1.083984375,0.12710693824590436,5.301006319533406,22.727900167629247,2.7952175143688938,3700,0,63.52942461338499,49.24533821122577,77.51579446990661,0.10764483526940241,0.0834417492648995,0.400390625,,
3.6162949999999254,1500,,,,-0.375,-0.16015625,-1.06640625,0.12710693824590436,5.301006319533406,22.727971336712407,2.792856885708459,3691,0,63.475971245921734,49.131639881151514,77.40195055984775,0.10789394232222733,0.08351201589332105,0.400390625,,
3.6230299999997952,1500,,,,-0.0625,-0.052734375,-1.060546875,0.12710693824590436,5.301006319533406,22.727972723956547,2.791848109692569,3690,0,63.45304768652236,49.12183923708009,77.41446790665933,0.10791546900246948,0.08354218611723763,0.404296875,,
3.631004999999888,1500,,,,0.25,0.29296875,-0.8984375,0.12710693824590436,5.301006319533406,22.728150598120678,2.791717609488521,3695,0,63.450578255880565,49.18253830273458,77.51314433163006,0.10778228416971856,0.0835454374924016,0.404296875,,
3.639214999999851,1500,,,,-0.125,-0.00390625,-0.896484375,0.12710693824590436,5.301006319533406,22.728043544538387,2.791036828245755,3689,0,63.434806566779834,49.096660693644615,77.3970369752117,0.10797081195828868,0.083566209253793,0.40625,,
3.647159999999916,1500,,,,-0.03125,0.0703125,-0.857421875,0.12710693824590436,5.301006319533406,22.728138245492037,2.7904073969383867,3690,0,63.420765078859226,49.114579473080276,77.442426643718,0.10793142029117628,0.08358471098451714,0.408203125,,
3.6558849999997767,1500,,,,0.15625,0.064453125,-1.197265625,0.12710693824590436,5.301006319533406,22.728350756310217,2.7873389064407115,3695,0,63.35161634229464,49.17649446723555,77.62468790303693,0.10779553070960085,0.08367594428674999,0.41015625,,
3.664189999999944,1500,,,,-0.375,-0.11328125,-0.7734375,0.12710693824590436,5.301006319533406,22.728399528924655,2.7870931278111617,3690,0,63.34616613321235,49.11502091285981,77.53432277112796,0.10793045021681831,0.08368314363943949,0.41015625,,
3.673119999999879,1500,,,,-0.0625,0.056640625,-1.107421875,0.12710693824590436,5.436199416476835,22.728595953276226,2.7860668137541986,3699,0,63.32338690865087,49.23474356823664,77.7512795379403,0.11041388707432918,0.08584820998786744,0.4140625,,
3.6811049999997487,1500,,,,0.0625,0.1953125,-0.96484375,0.12710693824590436,5.436199416476835,22.728761999798206,2.783029362320652,3697,0,63.25481201463627,49.21137815468418,77.79863157809616,0.11046631125406495,0.08594127851046296,0.412109375,,
3.690114999999758,1500,,,,-0.125,0.04296875,-0.8515625,0.12710693824590436,5.436199416476835,22.728866997493196,2.781678919443905,3675,0,63.224410189771106,48.919428626238,77.3742743971893,0.11112557053786033,0.08598260387340619,0.4140625,,
3.6989499999999533,1500,,,,-0.03125,-0.064453125,-0.919921875,0.12710693824590436,5.436199416476835,22.729037456489124,2.780595757881921,3689,0,63.20026513225295,49.10559673390721,77.69840305439982,0.11070427360723144,0.08601545270579225,0.4140625,,
3.706964999999851,1500,,,,0.25,0.12890625,-1.212890625,0.12710693824590436,5.436199416476835,22.729052232677223,2.781117636955104,3690,0,63.212168035572404,49.114845839251096,77.69840422434477,0.11068342623468827,0.08599925592518255,0.4140625,,
3.715489999999758,1500,,,,-0.5625,-0.1640625,-0.53125,0.126643974163603,5.436199416476835,22.728930011148112,2.781516464853568,3688,0,63.220893054512864,48.91171776551492,77.36638222326326,0.11114308932142254,0.08598738729915466,0.41796875,,
3.723839999999851,1500,,,,0.0625,0.18359375,-1.123046875,0.126643974163603,5.436199416476835,22.72877680029581,2.7786097343611944,3687,0,63.15440046742482,48.89186192299766,77.41639784580995,0.11118822647905265,0.0860779197687236,0.419921875,,
3.731339999999851,1500,,,,-0.4375,-0.025390625,-0.81640625,0.126643974163603,5.436199416476835,22.728739453161975,2.777430998783253,3684,0,63.127505520479986,48.85450785915918,77.39020805013382,0.1112732407856538,0.08611459254814384,0.421875,,
3.7394499999999535,1500,,,,0.4375,0.134765625,-1.1171875,0.126643974163603,5.436199416476835,22.7287034403029,2.781586387300978,3684,0,63.22185209054745,48.85978561105542,77.28306589480735,0.11126122123726215,0.08598608292416068,0.423828125,,
3.747244999999879,1500,,,,-0.5,-0.1171875,-0.76953125,0.126643974163603,5.436199416476835,22.72858436697136,2.781287023935422,3687,0,63.21471677227893,48.90014376004933,77.35563213263204,0.11116939539384599,0.08599578854493467,0.42578125,,
3.757754999999888,1500,,,,0.375,0.1015625,-1.109375,0.126643974163603,5.436199416476835,22.728625764108052,2.783864748270715,3686,0,63.27342004133795,48.887199367948135,77.26340592307011,0.1111988309160734,0.08591600411239417,0.423828125,,
3.7655499999998137,1500,,,,-0.5,0.021484375,-0.83203125,0.126643974163603,5.436199416476835,22.72883190252157,2.781254365169732,3688,0,63.21466294409718,48.90503686979019,77.3634384684429,0.1111582725303067,0.08599586177156787,0.427734375,,
3.7728249999999535,1500,,,,0.5,0.26171875,-1.1328125,0.126643974163603,5.436199416476835,22.72885324214927,2.78203990692592,3689,0,63.23257675832185,48.92870753140402,77.37895565827098,0.11110449653687883,0.08597149910961667,0.427734375,,
3.780679999999702,1500,,,,-0.53125,-0.099609375,-0.86328125,0.126643974163603,5.436199416476835,22.72900843093058,2.7824852308527026,3692,0,63.2431302709909,48.96053061079191,77.41636190523874,0.11103228148590742,0.0859571528667735,0.4296875,,
3.789189999999944,1500,,,,0.5,0.12890625,-1.43359375,0.126643974163603,5.436199416476835,22.728958739239644,2.7826945465547497,3687,0,63.247749532550074,48.89116278089814,77.3010314868778,0.11118981646721578,0.0859508750375241,0.43359375,,
3.7972800000000277,1500,,,,-0.15625,0.04296875,-0.85546875,0.126643974163603,5.436199416476835,22.729106091802514,2.7823113405650983,3686,0,63.23944964012939,48.877724132223385,77.28992647843572,0.11122038746670976,0.08596215570205129,0.43359375,,
3.8054849999998694,1500,,,,0.46875,0.201171875,-1.046875,0.126643974163603,5.436199416476835,22.729149482265658,2.7817879394690994,3687,0,63.22767390415693,48.89937578263802,77.33856516177026,0.11117114133810653,0.08597816558485523,0.43359375,,
3.8132349999998696,1500,,,,-0.375,-0.125,-0.826171875,0.126643974163603,5.436199416476835,22.729159508165058,2.777810746348106,3682,0,63.13730353724113,48.83347225311114,77.3448809455523,0.11132117307366975,0.08610122878102211,0.435546875,,
3.8215699999998325,1500,,,,0.5625,0.34375,-1.3125,0.126643974163603,5.4934049358681385,22.729168163828188,2.776528861534824,3682,0,63.10819140554744,48.831140614993956,77.3768658670537,0.11249798523406493,0.0870474151377003,0.4375,,
3.8296899999999443,1500,,,,-0.4375,-0.08203125,-0.833984375,0.126643974163603,5.4934049358681385,22.729110277888108,2.777087852210086,3683,0,63.12073604426647,48.850663271561864,77.3924170296477,0.11245302659106561,0.08703011530181812,0.4375,,
3.838144999999786,1500,,,,0.5625,0.12890625,-1.2421875,0.126643974163603,5.4934049358681385,22.72912125720966,2.774575866551202,3689,0,63.06367130816983,48.92972744361868,77.587819466641,0.11227131690439401,0.08710886667260162,0.439453125,,
3.8476049999999815,1500,,,,-0.3125,-0.16015625,-0.818359375,0.126643974163603,5.4934049358681385,22.729262628148224,2.773467469204983,3688,0,63.03887049818565,48.91324092352402,77.59219119405354,0.11230915866844912,0.087143137122456,0.4375,,
3.85595999999973,1500,,,,0.3125,0.162109375,-1.083984375,0.126643974163603,5.4934049358681385,22.729245880280292,2.7733441296225396,3690,0,63.03602063282264,48.93298256019571,77.62701717042792,0.11226384839939679,0.0871470768731829,0.4375,,
3.865689999999711,1500,,,,-0.34375,-0.138671875,-0.8984375,0.126643974163603,5.4934049358681385,22.729285267975506,2.7732495301133873,3698,0,63.03397968922621,49.037240282033665,77.7949298518036,0.11202516504340927,0.08714989856188746,0.439453125,,
3.8744199999999256,1500,,,,0.15625,0.19140625,-0.9765625,0.12674804613349075,5.4934049358681385,22.729287961439933,2.771711509659454,3691,0,62.999029049087135,48.98705550477275,77.75842936659129,0.11213992919686555,0.08719824763629018,0.44140625,,
3.883439999999711,1500,,,,0.0625,0.029296875,-1.0546875,0.12674804613349075,5.4934049358681385,22.729290523354393,2.7702485934891765,3681,0,62.965785103329374,48.860796346173835,77.59896309716669,0.11242970533979667,0.08724428555688205,0.4453125,,
3.891069999999832,1500,,,,-0.1875,0.0078125,-1.01953125,0.12674804613349075,5.4934049358681385,22.729164934323897,2.7695828336567483,3678,0,62.95030502545638,48.8161518057556,77.5471251267407,0.11253252730217145,0.08726573975529854,0.4453125,,
3.899369999999879,1500,,,,-0.125,-0.068359375,-0.91796875,0.12674804613349075,5.4934049358681385,22.72910471002182,2.76799997421687,3683,0,62.91416125131293,48.880912880800125,77.69461105194348,0.1123834358262545,0.08731587335201896,0.447265625,,
3.911155000000028,1500,,,,-0.21875,0.044921875,-0.8984375,0.12674804613349075,5.4934049358681385,22.729047370834802,2.7671696448819754,3685,0,62.89512994165854,48.9054020923252,77.7570570848487,0.11232716020814042,0.0873422940848332,0.447265625,,
3.919064999999711,1500,,,,0.3125,0.259765625,-1.12890625,0.12674804613349075,5.4934049358681385,22.729029767700773,2.767202488054212,3686,0,62.89582772423982,48.92509905017193,77.78751122360438,0.11228193795243493,0.08734132508683085,0.447265625,,
3.9270249999999067,1500,,,,-0.4375,-0.20703125,-0.625,0.12674804613349075,5.4934049358681385,22.72898441050934,2.7673933936956407,3689,0,62.900041303054756,48.965630512988696,77.84673825104575,0.11218899620645034,0.08733547422331103,0.44921875,,
3.9355549999999346,1500,,,,0.125,0.091796875,-1.013671875,0.12674804613349075,5.4934049358681385,22.728856643252143,2.767143045778796,3693,0,62.893997598878364,49.023162632873586,77.94569355494086,0.11205733455035011,0.08734386659445076,0.44921875,,
3.943144999999786,1500,,,,-0.375,-0.19921875,-0.890625,0.12674804613349075,5.4934049358681385,22.728819738880873,2.767332219550697,3691,0,62.8981951757649,48.98410322042317,77.87839235059178,0.11214668789889669,0.08733803761009638,0.44921875,,
3.950899999999674,1500,,,,0.28125,0.126953125,-1.1796875,0.12674804613349075,5.4934049358681385,22.72897676962152,2.767378974363846,3688,0,62.89969242105489,48.955492139517865,77.83105171930956,0.11221222983955563,0.08733595864181506,0.451171875,,
3.95970999999973,1500,,,,-0.6875,-0.18359375,-0.734375,0.12674804613349075,5.4934049358681385,22.72867272770476,2.7666386486106815,3690,0,62.88202440009155,48.979848059065965,77.89165270416238,0.11215643072725563,0.08736049750745843,0.453125,,
3.9674499999997206,1500,,,,0.28125,0.18359375,-1.056640625,0.12674804613349075,5.4934049358681385,22.728635846084025,2.7667286459171687,3694,0,62.883967877980474,49.02814566195379,77.96604972047501,0.11204594548088449,0.08735779756340273,0.451171875,,
3.976179999999935,1500,,,,-0.625,-0.16796875,-0.6484375,0.12674804613349075,5.516573138128002,22.728472739599887,2.7639625674998363,3680,0,62.82064786869454,48.85036989599785,77.76164613600154,0.11292797065554987,0.08781464892973637,0.453125,,
3.9850349999999164,1500,,,,0.15625,0.21484375,-1.185546875,0.12674804613349075,5.516573138128002,22.72855620771909,2.7638426803296827,3678,0,62.81815370916618,48.81997144665973,77.71634243292971,0.11299828686207572,0.08781813556107498,0.451171875,,
3.993544999999693,1500,,,,-0.4375,-0.0390625,-0.853515625,0.12674804613349075,5.516573138128002,22.728727174321406,2.7630390095817647,3684,0,62.80035982079116,48.89129907510447,77.85194099941789,0.11283343340199872,0.08784301799974152,0.453125,,
4.002395000000019,1500,,,,0.28125,0.1171875,-1.1015625,0.12674804613349075,5.516573138128002,22.728391671407586,2.7602675008825805,3686,0,62.73644087791668,48.920730921139544,77.97817382777242,0.11276555019222309,0.08793251674673569,0.455078125,,
4.011229999999749,1500,,,,-0.09375,-0.0625,-0.931640625,0.12674804613349075,5.516573138128002,22.72858980935345,2.7630323430319708,3687,0,62.79982875475044,48.931178046416626,77.91610107330949,0.11274147401264124,0.08784376084322851,0.455078125,,
4.020159999999916,1500,,,,0.3125,0.23828125,-1.046875,0.12627867475211338,5.516573138128002,22.728557565228233,2.763379984989727,3687,0,62.807641063438545,48.75908701441794,77.63241253587134,0.11313938541336438,0.08783283442465248,0.455078125,,
4.02823499999987,1500,,,,-0.3125,-0.1640625,-0.91015625,0.12627867475211338,5.516573138128002,22.728530235430743,2.760904770578522,3688,0,62.75130755523891,48.76726201392423,77.71513282172684,0.11312041952555973,0.08791168428278337,0.455078125,,
4.036104999999749,1500,,,,0.03125,0.166015625,-1.015625,0.12627867475211338,5.516573138128002,22.72870072072082,2.760041945280803,3685,0,62.73216735092348,48.72986119804146,77.67922463996312,0.11320724095043641,0.08793850700659384,0.45703125,,
4.045129999999888,1500,,,,-0.625,-0.08984375,-0.9609375,0.12627867475211338,5.516573138128002,22.728662283346374,2.7603163501881753,3685,0,62.738298118626304,48.72857417288943,77.66958243073931,0.11321023099414215,0.08792991368202563,0.458984375,,
4.053244999999879,1500,,,,0.28125,0.171875,-1.076171875,0.12627867475211338,5.516573138128002,22.72853172320245,2.7586304406039726,3685,0,62.699619481859344,48.7349049350824,77.72759282723031,0.1131955247573866,0.08798415658206814,0.4609375,,
4.064724999999861,1500,,,,-0.125,0.005859375,-0.8671875,0.12627867475211338,5.516573138128002,22.72850277825891,2.7612340679003142,3686,0,62.75871618369545,48.74827295159159,77.6757013462558,0.11316448366501342,0.08790130636166828,0.462890625,,
4.074654999999795,1500,,,,-0.1875,-0.072265625,-0.94140625,0.12627867475211338,5.516573138128002,22.728616778074784,2.7586705213234146,3685,0,62.700765096131676,48.729172522970984,77.71703016424169,0.11320884087509353,0.08798254901148482,0.462890625,,
4.087374999999767,1500,,,,0.25,0.17578125,-1.16015625,0.12627867475211338,5.516573138128002,22.72856773996869,2.7562323544171052,3685,0,62.64521377446256,48.72401964298508,77.77772108560912,0.11322081344169718,0.08806056848954107,0.4609375,,
4.102294999999925,1500,,,,-0.25,0.15625,-1.046875,0.12627867475211338,5.516573138128002,22.728368967771843,2.7547298048779636,3686,0,62.61051541178449,48.74115400477978,77.84819160841114,0.11318101203732316,0.08810937111515421,0.462890625,,
4.109444999999832,1500,,,,-0.03125,0.03125,-0.916015625,0.12627867475211338,5.516573138128002,22.728352634839684,2.7577803872184234,3686,0,62.679805130145056,48.739934026461874,77.76018755205259,0.1131838449993171,0.08801197015009347,0.466796875,,
4.11795999999973,1500,,,,0.4375,-0.0546875,-1.00390625,0.12627867475211338,5.516573138128002,22.728334369948524,2.7595189107622096,3686,0,62.71926850399964,48.73936422390771,77.71035183677178,0.11318516820992926,0.08795659244297799,0.466796875,,
4.126044999999926,1500,,,,-0.25,0.03125,-0.90234375,0.12627867475211338,5.5191400588469435,22.728218717827755,2.7614046389951175,3685,0,62.76180860350522,48.725547370276246,77.63566483256976,0.11326994475620303,0.0879378746669627,0.466796875,,
4.1334199999999255,1500,,,,0,0.03515625,-0.859375,0.12627867475211338,5.5191400588469435,22.728328977667836,2.7613721460360177,3685,0,62.76137456487524,48.733351468149245,77.64863629265243,0.11325180584910315,0.08793848281863097,0.46875,,
4.140554999999935,1500,,,,-0.3125,0.015625,-1.1640625,0.12627867475211338,5.5191400588469435,22.728402003405446,2.764662269645656,3687,0,62.836355468153776,48.7556395408651,77.59145032778841,0.11320003410520363,0.08783354823377862,0.46875,,
4.148114999999991,1500,,,,0.0625,0.08984375,-1.06640625,0.12627867475211338,5.5191400588469435,22.72856954781526,2.7654369305635336,3686,0,62.854425606410025,48.74586470660723,77.55359186933055,0.1132227337039906,0.08780829680009183,0.46875,,
4.155474999999861,1500,,,,-0.6875,-0.0234375,-0.84375,0.12627867475211338,5.5191400588469435,22.728301733902363,2.766304178462461,3685,0,62.87339605584971,48.732169761831564,77.50841026392679,0.11325455209198776,0.08778180287803056,0.46875,,
4.166939999999712,1500,,,,0.5625,0.27734375,-1.28125,0.12627867475211338,5.5191400588469435,22.728283572257585,2.765245170476279,3686,0,62.849276381400635,48.74799288773783,77.563331981598,0.11321779076231955,0.0878154909112089,0.470703125,,
4.175239999999991,1500,,,,-0.08203125,0.02734375,-0.88671875,0.12628763887217107,5.5191400588469435,22.728267966722527,2.764876334787554,3686,0,62.84085023190115,48.74839403302822,77.57437057762961,0.11321685910529879,0.08782726583869728,0.46875,,
4.184324999999953,1500,,,,0,0.05859375,-0.87890625,0.12628763887217107,5.5191400588469435,22.728326902569524,2.763564585526075,3686,0,62.811199316200685,48.75178557353702,77.61639023657781,0.11320898288990652,0.08786872594269046,0.46875,,
4.19222499999986,1500,,,,-0.0625,-0.02734375,-1.08984375,0.12628763887217107,5.5191400588469435,22.728310837612035,2.7650170676054246,3687,0,62.844167383838624,48.75630510496366,77.58286430492532,0.1131984888306285,0.08782262998469255,0.466796875,,
4.202069999999832,1500,,,,0.0625,0.013671875,-0.9765625,0.12628763887217107,5.5191400588469435,22.728293723155623,2.7648378288830697,3685,0,62.840046271746296,48.736650063582836,77.55667437421265,0.11324414073693125,0.08782838947921688,0.46875,,
4.2185549999999346,1500,,,,0.0625,0.072265625,-1.0859375,0.12628763887217107,5.5191400588469435,22.72826965455624,2.7675430139135395,3686,0,62.901463900810214,48.741047484864424,77.48793821670755,0.11323392384131269,0.08774263294651007,0.470703125,,
4.237189999999711,1500,,,,-0.5625,-0.046875,-0.83203125,0.12628763887217107,5.5191400588469435,22.728186050310185,2.76698611187613,3685,0,62.88857514934507,48.73479067335531,77.49387000360882,0.11324846136795687,0.08776061543357165,0.47265625,,
4.245854999999748,1500,,,,0.375,0.26171875,-1.18359375,0.12628763887217107,5.5191400588469435,22.728078860220425,2.7675287662325787,3685,0,62.900612046862584,48.73945116530901,77.48644978048364,0.11323763249052073,0.08774382123237597,0.47265625,,
4.254354999999982,1500,,,,-0.5,-0.15625,-0.814453125,0.12628763887217107,5.5191400588469435,22.72807464307569,2.767510271200123,3686,0,62.90018001931504,48.748595199154984,77.50151936637627,0.11321639190420432,0.08774442389754937,0.474609375,,
4.262645000000019,1500,,,,0.1875,0.091796875,-1.09765625,0.12628763887217107,5.5191400588469435,22.728169447906254,2.766746961084965,3686,0,62.88309375101877,48.751671888549005,77.52747039065517,0.11320924688417305,0.08776826535761097,0.4765625,,
4.271524999999907,1500,,,,-0.09375,-0.06640625,-0.9765625,0.12628763887217107,5.520175923845071,22.72816031878602,2.7676027813376765,3686,0,62.9025197129608,48.74579008111158,77.49417718646286,0.11324415738589237,0.0877576279779403,0.48046875,,
