Time (s),ESC signal (µs),Servo 1 (µs),Servo 2 (µs),Servo 3 (µs),AccX (g),AccY (g),AccZ (g),Torque (N·m),Thrust (N),Voltage (V),Current (A),Motor Electrical Speed (RPM),Motor Optical Speed (RPM),Electrical Power (W),Mechanical Power (W),Motor Efficiency (%),Propeller Mech. Efficiency (N/W),Overall Efficiency (N/W),Vibration (g),App message,90% settling time (s),Max acceleration (RPM/s),
0,1000,,,,-0.0625,0.046875,-0.955078125,-0.0012025417599830438,0.010884465857003945,22.84364362361932,0.04124997982036494,0,0,0.9422998384979053,0,0,0,0,0.076171875,,
0,1200,,,,-0.0625,0.0546875,-0.955078125,-0.0012025417599830438,0.010884465857003945,22.84360523538024,0.0404626156582706,0,0,0.9243120188884488,0,0,0,0,0.076171875,,
0.007809999999823049,1200,,,,-0.0625,0.05078125,-0.953125,-0.0012025417599830438,0.010884465857003945,22.843559315380304,0.03987594423826346,0,0,0.9109084974635688,0,0,0,0,0.076171875,,
0.015864999999757858,1200,,,,-0.0625,0.048828125,-0.955078125,-0.0012025417599830438,0.010884465857003945,22.84358110708657,0.03910082284412069,0,0,0.8932028179934944,0,0,0,0,0.076171875,,
0.02365499999979511,1200,,,,-0.0625,0.048828125,-0.953125,-0.0012025417599830438,0.010884465857003945,22.84347127524034,0.03921794207363911,0,0,0.8958739332332145,0,0,0,0,0.076171875,,
0.032269999999785796,1200,,,,0,0.04296875,-1.01953125,-0.0012025417599830438,0.010884465857003945,22.842518062955385,0.0718376666961687,0,0,1.6409531991078021,0,0,0,0,0.07421875,,
0.040859999999636784,1200,,,,-0.09375,0.0703125,-0.943359375,-0.0012025417599830438,0.010884465857003945,22.840824459143636,0.126158858275048,0,0,2.881572335826352,0,0,0,0,0.076171875,,
0.04900499999965541,1200,,,,-0.0625,0.076171875,-0.984375,-0.0012025417599830438,0.010884465857003945,22.839431500346432,0.16750367876204408,0,0,3.8256887971417393,0,0,0,0,0.076171875,,
0.05724999999976717,1200,,,,-0.0625,0.02734375,-0.98828125,-0.0012025417599830438,0.010884465857003945,22.838136001232808,0.2022712599877001,0,0,4.619498544739815,0,0,0,0,0.076171875,,
0.06507499999995343,1200,,,,0,0.041015625,-0.98046875,-0.0012025417599830438,0.010884465857003945,22.837342355372947,0.23131695866218147,0,0,5.2826645775718895,0,0,0,0,0.076171875,,
0.07460499999974854,1200,,,,0,0.033203125,-0.943359375,-0.0012025417599830438,0.010884465857003945,22.836199376545615,0.2536986518572044,0,0,5.793512995371954,0,0,0,0,0.076171875,,
0.0832699999997858,1200,,,,-0.125,0.05078125,-0.953125,-0.0007890532350768005,0.010884465857003945,22.835626613387912,0.2715573911519765,0,0,6.201183188452267,0,0,0,0,0.076171875,,
0.09351499999966473,1200,,,,-0.03125,0.0859375,-0.974609375,-0.0007890532350768005,0.010884465857003945,22.83513817644551,0.28303279788905666,0,0,6.463093048262584,0,0,0,0,0.076171875,,
0.10456499999971129,1200,,,,-0.041015625,0.044921875,-0.94921875,-0.0007890532350768005,0.010884465857003945,22.834764717108254,0.30266983974837214,0,0,6.911394577618937,0,0,0,0,0.076171875,,
0.11602499999967404,1200,,,,-0.09375,0.2578125,-0.93359375,-0.0007890532350768005,0.010884465857003945,22.83403012632326,0.32186886125532527,0,0,7.349563274629459,0,0,0,0,0.080078125,,
0.12736499999975787,1200,,,,0,0.0859375,-1.015625,-0.0007890532350768005,0.013523173498951949,22.833091915973437,0.35551491860084294,0,0,8.117504813912861,0,0,0,0,0.08203125,,
0.13506499999994412,1200,,,,-0.09375,-0.029296875,-1,-0.0007890532350768005,0.013523173498951949,22.833235860721633,0.35474132781241086,2,0,8.099892407486347,0.00012900604938896596,0.001592688432129441,0,0.0016695497691368245,0.08203125,,
0.14356999999983236,1200,,,,-0.03125,0.068359375,-0.98046875,-0.0007890532350768005,0.013523173498951949,22.833171310751148,0.35175544372503786,2,0,8.031692306063075,0.00016935887044713314,0.0021086324524569396,0,0.0016837265402639228,0.083984375,,
0.15088499999977648,1200,,,,-0.125,0.05859375,-0.9140625,-0.0007890532350768005,0.013523173498951949,22.833359755084167,0.3503832822734022,2,0,8.000427536315797,0.00018335670477266755,0.002291836329250767,0,0.0016903063539501016,0.083984375,,
0.15916999999969267,1200,,,,-0.03125,0.119140625,-0.982421875,-0.0007890532350768005,0.013523173498951949,22.833489025444283,0.3460452839253087,2,0,7.901421192815287,0.0001894980991013099,0.002398278670090633,0,0.0017114862211431642,0.083984375,,
0.1672249999998603,1200,,,,-0.0625,0.05078125,-1.013671875,-0.0007890532350768005,0.013523173498951949,22.83361234250817,0.3427062588887779,2,0,7.8252218628176005,0.00019192835201746326,0.002452688950960379,0,0.001728152087701026,0.083984375,,
0.17648999999975787,1200,,,,-0.03125,0.01953125,-0.9609375,-0.0007890532350768005,0.013523173498951949,22.83396431324108,0.33615592937331135,2,0,7.67577249499458,0.00019294356941411438,0.0025136697256195922,0,0.0017617996765498843,0.083984375,,
0.184214999999851,1200,,,,-0.0625,0.0390625,-0.98828125,-0.0007890532350768005,0.013523173498951949,22.834129657219663,0.3285073230956198,2,0,7.501178808911534,0.0001932860986413625,0.0025767429835392695,0,0.0018028064446199013,0.083984375,,
0.19340999999968336,1200,,,,-0.0625,0.111328125,-0.986328125,-0.0007890532350768005,0.013523173498951949,22.83423281839843,0.3208223543548296,2,0,7.3257323326849,0.00019342937888027257,0.00264041013370441,0,0.0018459824744914846,0.083984375,,
0.2021899999999441,1200,,,,-0.03125,0.02734375,-0.951171875,-0.0007890532350768005,0.013523173498951949,22.834549650407386,0.31382281720017363,284,0,7.166002700788086,0.023495016401627256,0.32786781393542286,0.5755762527586632,0.0018871292774512531,0.083984375,,
0.21029999999981375,1200,,,,-0.0625,0.04296875,-0.974609375,-0.0007890532350768005,0.013523173498951949,22.83468809824682,0.3054554676765691,515,0,6.974980332298569,0.042520710228555164,0.6096176362198097,0.31803733818797647,0.0019388117033579445,0.083984375,,
0.2185199999997858,1200,,,,-0.0625,0.09765625,-0.98828125,-0.0007890532350768005,0.013523173498951949,22.835007252980006,0.2988234745496728,603,0,6.823636208702465,0.04980506784159112,0.7298904325830363,0.2715220375156089,0.0019818133741809517,0.083984375,,
0.2283849999997765,1200,,,,-0.03125,0.02734375,-0.95703125,0.00868649879351789,0.013523173498951949,22.835391264428907,0.28926297724166844,642,0,6.605433263627093,0.5843896773901307,8.847105921243354,0.02314067825315823,0.0020472803159510347,0.083984375,,
0.2363249999997206,1200,,,,0,0.033203125,-0.984375,0.00868649879351789,0.013523173498951949,22.835618535801267,0.28197236944922743,654,0,6.439013466378581,0.595100704765074,9.242109957874797,0.022724176581660156,0.002100193386698666,0.083984375,,
0.24404499999969267,1200,,,,-0.0625,0.01953125,-0.984375,0.00868649879351789,0.013523173498951949,22.83557201401501,0.2751082430128348,659,0,6.2822540949687316,0.5992829143909344,9.539297604515584,0.02256559159991383,0.00215259893893535,0.08203125,,
0.2521449999997858,1200,,,,-0.03125,0.025390625,-1.015625,0.00868649879351789,0.013523173498951949,22.835888651515248,0.26787351601959053,661,0,6.1171297845132555,0.6009498098816252,9.824048713222506,0.022502999878834702,0.002210705670033123,0.08203125,,
0.2611799999999348,1200,,,,-0.0625,0.041015625,-0.984375,0.00868649879351789,0.013523173498951949,22.83604171182802,0.2621043739095642,723,0,5.985426415451376,0.6574226548121518,10.983722949379437,0.020569984012516244,0.002259350054666428,0.08203125,,
0.2710649999997113,1200,,,,-0.03125,0.087890625,-0.99609375,0.00868649879351789,0.013523173498951949,22.83623629338039,0.25553046987562067,744,0,5.835354190238194,0.6765163610501012,11.593406998016112,0.019989425648126277,0.0023174554719530994,0.08203125,,
0.2784949999996461,1200,,,,0,0.0078125,-0.97265625,0.00868649879351789,0.08880389034271292,22.836545098079547,0.24808189797403243,753,0,5.66533345110116,0.6848469165090757,12.088377893731273,0.12966969435356446,0.015674962667105195,0.08203125,,
0.28759499999973925,1200,,,,-0.0625,0.078125,-0.978515625,0.00868649879351789,0.08880389034271292,22.836716812486422,0.24083912714869557,756,0,5.499974944061171,0.6873331511672002,12.49702331661305,0.1292006506479571,0.01614623543669097,0.08203125,,
0.2961899999997113,1200,,,,-0.09375,0.126953125,-0.943359375,0.00868649879351789,0.08880389034271292,22.835526422266778,0.2725057240230749,757,0,6.222811661147865,0.6883460771422489,11.06165692656165,0.12901052725017753,0.01427070192356297,0.08203125,,
0.30571999999973926,1200,,,,0,0.015625,-1.00390625,0.00868649879351789,0.08880389034271292,22.834437619442802,0.309101048452316,772,0,7.058148608988777,0.7020308935445039,9.946388669833974,0.12649570148451506,0.012581754120282809,0.0859375,,
0.31341499999980443,1200,,,,0.125,-0.125,-1.0234375,0.00868649879351789,0.08880389034271292,22.83275595364058,0.3868546620012211,804,0,8.832958087001995,0.7314635557708823,8.2810712851367,0.12140576197145377,0.010053697693119472,0.0859375,,
0.3211449999997858,1200,,,,-0.09375,-0.041015625,-0.94140625,0.00868649879351789,0.08880389034271292,22.83074994926375,0.4430262946566404,817,0,10.1146225542546,0.7431639322402298,7.347421302712146,0.11949434907991043,0.008779753259834554,0.087890625,,
0.3292899999998044,1200,,,,0.0625,0.1015625,-1.0859375,0.00868649879351789,0.08880389034271292,22.829310931822175,0.48944867027769146,822,0,11.173775878936329,0.7477510862230657,6.692017938471903,0.11876129901899113,0.007947527434313142,0.087890625,,
0.3398699999996461,1200,,,,-0.125,0.03125,-1.041015625,0.00868649879351789,0.08880389034271292,22.82776417083798,0.5270556357618907,824,0,12.031501758083522,0.7496797744803532,6.230974233758234,0.1184557638683371,0.007380948125037581,0.08984375,,
0.34770499999984167,1200,,,,-0.103515625,0.04296875,-1.03515625,0.00868649879351789,0.08880389034271292,22.82670769670893,0.5564714375023605,911,0,12.702410845433814,0.8289811218325915,6.526171542708278,0.10712414071191168,0.006991105186511552,0.091796875,,
0.35490499999979513,1200,,,,-0.0625,0.046875,-0.81640625,0.00868649879351789,0.08880389034271292,22.826002009960416,0.5727609456434457,1005,0,13.07384249648412,0.9146400120470402,6.995954037942628,0.0970916307760935,0.00679248586378446,0.09375,,
0.3624499999997206,1200,,,,-0.125,0.20703125,-0.9765625,0.00868649879351789,0.08880389034271292,22.825428508972717,0.5866778239410924,1050,0,13.391172728167087,0.9553303200286325,7.134030300566462,0.09295621470493197,0.006631524523309463,0.09375,,
0.36947999999974857,1200,,,,0,0.01953125,-0.99609375,0.00868649879351789,0.08880389034271292,22.825079340239647,0.5967689096839017,1067,0,13.621297711323365,0.9708083672443094,7.127135665181723,0.09147417074163405,0.006519488247356224,0.09375,,
0.3762799999997951,1200,,,,0.0625,0.125,-1.12109375,0.042604172922767136,0.08880389034271292,22.82477735774695,0.6045579668915522,1112,0,13.798900994151829,4.962764763936376,35.96492768547051,0.01789403579795615,0.006435577034747135,0.095703125,,
0.38500499999965543,1200,,,,-0.0625,0.009765625,-0.94921875,0.042604172922767136,0.08880389034271292,22.824738418330956,0.611037726241362,1217,0,13.946776265190808,5.427919877071469,38.918813737758114,0.016360575018403805,0.006367341717838764,0.095703125,,
0.3935849999997299,1200,,,,0,0.080078125,-0.99609375,0.042604172922767136,0.08880389034271292,22.824504697251342,0.6135616416710323,1257,0,14.004240572373723,5.606574639051426,40.03483523491849,0.015839241615400595,0.00634121428318627,0.095703125,,
0.4023599999996368,1200,,,,-0.125,-0.0078125,-0.95703125,0.042604172922767136,0.08880389034271292,22.824421335786525,0.6155350474488834,1273,0,14.049231269916666,5.68098910015519,40.436298549087,0.015631765662125107,0.006320907431630576,0.095703125,,
0.4108199999998324,1200,,,,0,0.060546875,-0.978515625,0.042604172922767136,0.08880389034271292,22.824201018066674,0.6146143792082834,1331,0,14.02808213964412,5.94014175419846,42.34464622509799,0.014949793122352143,0.006330437009044046,0.095703125,,
0.4212799999997951,1200,,,,-0.0625,0.037109375,-0.953125,0.042604172922767136,0.08880389034271292,22.824262010636016,0.613669014319954,1382,0,14.006542370647376,6.166830467367436,44.02821413149667,0.014400248363017265,0.006340172184736586,0.095703125,,
0.42919499999983235,1200,,,,-0.0625,0.076171875,-0.974609375,0.042604172922767136,0.15803639380830534,22.824497014492238,0.6092148435363924,1402,0,13.905022377480744,6.255698687591914,44.98877109125009,0.025262788650893337,0.011365418157416712,0.095703125,,
0.4376299999998882,1200,,,,0,0.0390625,-0.96875,0.042604172922767136,0.15803639380830534,22.82453626202651,0.6028524931729025,1408,0,13.759828591078001,6.280205521711127,45.64159706017901,0.025164207327604493,0.01148534611185328,0.09375,,
0.4467699999997858,1200,,,,-0.0625,0.033203125,-0.939453125,0.042604172922767136,0.15803639380830534,22.8248807193427,0.5936217417108295,1452,0,13.549345446958146,6.47851730066921,47.81424553703182,0.02439391398892779,0.011663765930758288,0.09375,,
0.45561999999987896,1200,,,,-0.03125,0.0625,-0.95703125,0.042604172922767136,0.15803639380830534,22.824833714074092,0.5871934497100169,1467,0,13.402592847624662,6.546608411104597,48.84583517184774,0.024140193499314583,0.011791479126840303,0.09375,,
0.46279499999969265,1200,,,,-0.03125,0.04296875,-0.970703125,0.042604172922767136,0.15803639380830534,22.825051165248126,0.5798090062527279,1473,0,13.234170233790186,6.570314091157621,49.64658890651071,0.024053095729623025,0.011941541556175425,0.09375,,
0.4715199999997858,1200,,,,-0.03125,0.02734375,-0.966796875,0.042604172922767136,0.15803639380830534,22.825200586460717,0.5724424820986169,1497,0,13.066114478112379,6.677858701646174,51.10822129128402,0.02366572892136029,0.012095133107324218,0.09375,,
0.4792499999997672,1200,,,,-0.0625,-0.09765625,-0.95703125,0.042604172922767136,0.15803639380830534,22.825464780556494,0.5647175862335527,1506,0,12.889941375534832,6.718191475792421,52.119643372029444,0.023523651324579835,0.01226044317845069,0.09375,,
0.4883749999997672,1200,,,,-0.0625,0.03125,-0.986328125,0.042604172922767136,0.15803639380830534,22.825677342637892,0.556603345614029,1510,0,12.70484837481859,6.735378281371774,53.01423584654111,0.023463625531678165,0.012439061777513099,0.09375,,
0.4962799999997951,1200,,,,-0.09375,0.060546875,-0.986328125,0.042604172922767136,0.15803639380830534,22.825890202574644,0.5486555000060731,1522,0,12.523550202177317,6.791789425961843,54.23214117655741,0.02326874169629081,0.01261913684674091,0.09375,,
0.5042949999999254,1200,,,,0,0.046875,-0.97265625,0.042604172922767136,0.15803639380830534,22.826059305418617,0.5409183011532339,1533,0,12.347033221510005,6.839188952560373,55.39135458585866,0.023107475887055525,0.012799543904440712,0.09375,,
0.5134599999997299,1200,,,,-0.125,0.048828125,-1.033203125,0.042604172922767136,0.15803639380830534,22.826276942951907,0.5314333718831109,1537,0,12.13064532333064,6.859026872795971,56.542967748007065,0.023040643627611913,0.013027863695293847,0.095703125,,
0.5215649999997113,1200,,,,-0.0625,0.00390625,-0.953125,0.042604172922767136,0.15803639380830534,22.826559704325284,0.5238472104062577,1542,0,11.95762962428269,6.878035166153892,57.520055247291445,0.02297696798440146,0.013216364678780186,0.095703125,,
0.5294049999997951,1200,,,,0.0625,-0.05078125,-0.96484375,0.03821931539685057,0.15803639380830534,22.82675784939925,0.5155496717918452,1549,0,11.768327517329709,6.198553998302266,52.67149464674951,0.025495687196012206,0.013428959516599568,0.095703125,,
0.5375399999998044,1200,,,,-0.09375,0.068359375,-0.982421875,0.03821931539685057,0.15803639380830534,22.82682037601281,0.5072060312495326,1552,0,11.577900968963421,6.2101715411461935,53.63814699912911,0.02544799169575548,0.013649831194095493,0.095703125,,
0.5455349999999162,1200,,,,0,-0.00390625,-1.03515625,0.03821931539685057,0.15803639380830534,22.827006521979737,0.49947798155361534,1553,0,11.401587142509651,6.214557475698187,54.50607356696723,0.025430031732154898,0.013860911804031461,0.095703125,,
0.5535649999997113,1200,,,,-0.0625,0.154296875,-1.017578125,0.03821931539685057,0.15803639380830534,22.82705612613822,0.505964725357014,1560,0,11.549685183570668,6.244128128142659,54.06318898652649,0.02530960136708692,0.013683177618824694,0.095703125,,
0.5639799999997486,1200,,,,-0.09375,-0.00390625,-0.93359375,0.03821931539685057,0.15803639380830534,22.82688802194173,0.5124063713732855,1563,0,11.696642861067476,6.256161985998236,53.48681720309683,0.02526091782182155,0.013511260939182203,0.095703125,,
0.5760099999997765,1200,,,,-0.03125,0.025390625,-0.990234375,0.03821931539685057,0.15803639380830534,22.827112985309142,0.5053026873020848,1564,0,11.534601534825025,6.260639695413545,54.277034854750326,0.02524285081029029,0.013701070932633886,0.09765625,,
0.5835049999996554,1200,,,,-0.041015625,0.046875,-0.9765625,0.03821931539685057,0.4827702999896272,22.827612305208273,0.49000530641889495,1586,0,11.185651162425316,6.346999409846331,56.74233281265809,0.07606276112783122,0.04315978506565112,0.09765625,,
0.5915449999999255,1200,,,,0.0625,0,-0.94140625,0.03821931539685057,0.4827702999896272,22.828067063264186,0.4801503621567233,1591,0,10.960904667764266,6.365925059178482,58.07846388720542,0.07583662947674229,0.044044749463923547,0.09765625,,
0.6000499999995809,1200,,,,-0.0625,-0.017578125,-0.962890625,0.03821931539685057,0.4827702999896272,22.828355466347297,0.4690835212170168,1593,0,10.708405365747923,6.37512799646749,59.53386875751898,0.0757271540676727,0.04508330451645247,0.09765625,,
0.608119999999646,1200,,,,0.0625,0.015625,-0.984375,0.03821931539685057,0.4827702999896272,22.82874521872388,0.4603397858881168,1595,0,10.508979686081721,6.384787554936499,60.75554188569443,0.0756125862976233,0.045938836538909365,0.09765625,,
0.6152849999996833,1200,,,,-0.03125,0.044921875,-1.0234375,0.03821931539685057,0.4827702999896272,22.828933112381623,0.4534136644596799,1596,0,10.350950218189878,6.388049356805168,61.71461771286809,0.07557397775509257,0.046640191461963354,0.09765625,,
0.6245649999997113,1200,,,,-0.125,0.05859375,-1.0078125,0.03821931539685057,0.4827702999896272,22.829249543764462,0.4461248559166841,1597,0,10.184695663397946,6.389789453105212,62.73913000728164,0.07555339710841613,0.04740154403676697,0.09765625,,
0.631714999999851,1200,,,,-0.03125,0.103515625,-0.984375,0.03821931539685057,0.4827702999896272,22.829382168991135,0.44053303306912084,1596,0,10.057096969999769,6.386184482461625,63.49928315806795,0.07559604664028405,0.04800294771241907,0.09765625,,
0.6396749999998137,1200,,,,-0.03125,-0.0078125,-0.927734375,0.03821931539685057,0.4827702999896272,22.829640322333407,0.43302198714746165,1595,0,9.885736218238629,6.382627103229626,64.56400375577529,0.0756381803576374,0.0488350376069051,0.09765625,,
0.6479499999997206,1200,,,,-0.09375,0.0625,-0.970703125,0.03821931539685057,0.4827702999896272,22.82985905827628,0.4278590855161376,1594,0,9.7679626191364,6.381198270854587,65.32783262656218,0.07565511671916336,0.049423848023725306,0.09765625,,
0.6551449999997858,1200,,,,0.0625,-0.015625,-0.94921875,0.03821931539685057,0.4827702999896272,22.829778730471574,0.4225080463234393,1593,0,9.645765209407953,6.376145003495566,66.1030500439366,0.07571507544526673,0.05004997421238902,0.09765625,,
0.6637499999997671,1200,,,,-0.0625,0.0078125,-0.9453125,0.03821931539685057,0.4827702999896272,22.829953832525863,0.41881097020913294,1591,0,9.56143511442987,6.368892715092702,66.61021738756492,0.07580129256151244,0.050491405757807514,0.09765625,,
0.6725649999997113,1200,,,,-0.03125,0.021484375,-0.98828125,0.03821931539685057,0.4827702999896272,22.830145833377234,0.41254408786384666,1591,0,9.41844168862921,6.365833869883579,67.58903521767286,0.075837715821267,0.051257980454714816,0.09765625,,
0.6809949999998789,1200,,,,-0.03125,-0.005859375,-0.9453125,0.036421344022080866,0.4827702999896272,22.830450586047316,0.4082515728616649,1590,0,9.320567360894337,6.065388812655715,65.07531760463262,0.07959428734103652,0.051796235282323404,0.09765625,,
0.6887249999998603,1200,,,,-0.0625,0.068359375,-0.994140625,0.036421344022080866,0.4827702999896272,22.830722766947087,0.40420975312656426,1590,0,9.228400813328712,6.063401422451381,65.70370690546864,0.07962037581777777,0.05231353836434533,0.09765625,,
0.6964899999997578,1200,,,,0,0.01171875,-0.97265625,0.036421344022080866,0.4827702999896272,22.83077847741162,0.39984504773682117,1590,0,9.128773710169439,6.062666327189671,66.412713467044,0.07963002974854692,0.052884463490624374,0.09765625,,
0.7045749999999534,1200,,,,-0.0625,0.0625,-0.984375,0.036421344022080866,0.4827702999896272,22.830838894604774,0.3959674236190363,1589,0,9.04026845615794,6.062325258721653,67.05912869868585,0.07963450976093416,0.0534022083891524,0.09765625,,
0.7259399999997113,1200,,,,-0.0625,0.048828125,-0.982421875,0.036421344022080866,0.7270706865054292,22.831152304033726,0.3866525839153986,1588,0,8.827724032120646,6.055060284899372,68.59140887127155,0.12007653967024248,0.08236219028369061,0.09765625,,
0.7333849999997765,1200,,,,-0.03125,0.041015625,-0.99609375,0.036421344022080866,0.7270706865054292,22.8313585010739,0.3823158026455009,1587,0,8.728789150825248,6.053780099867806,69.35417954614543,0.12010193210045834,0.08329570962734156,0.09765625,,
0.7425049999998883,1200,,,,0,0.15234375,-0.97265625,0.036421344022080866,0.7270706865054292,22.83169171220665,0.3801327603713703,1587,0,8.67907399450925,6.054516064209862,69.75993139406583,0.12008733295851197,0.08377284108482136,0.09765625,,
0.7504549999998417,1200,,,,-0.0625,0.0234375,-0.962890625,0.036421344022080866,0.7270706865054292,22.8319039251133,0.37734757864213203,1587,0,8.615563661931294,6.05476126350416,70.27701844114635,0.12008246978917894,0.08439037943832528,0.095703125,,
0.7587349999998696,1200,,,,0,-0.033203125,-0.95703125,0.036421344022080866,0.7270706865054292,22.8321027503049,0.3744255803568957,1588,0,8.548923323051188,6.05485672146451,70.82595658728494,0.12008057662668686,0.08504821707137865,0.095703125,,
0.7677999999998137,1200,,,,-0.0625,0.078125,-0.974609375,0.036421344022080866,0.7270706865054292,22.832207294361297,0.3723418519265054,1588,0,8.50138634755235,6.055281292304488,71.22698633791505,0.12007215708202455,0.08552377892045356,0.09765625,,
0.7766399999996647,1200,,,,-0.125,0.1171875,-1.03125,0.036421344022080866,0.7270706865054292,22.832305863958116,0.36894799466133305,1588,0,8.423933462001543,6.05562483008625,71.88595277255932,0.12006534534522567,0.08631011745107918,0.09765625,,
0.7848199999998323,1200,,,,-0.03125,0.068359375,-0.98046875,0.036421344022080866,0.7270706865054292,22.83219300515168,0.36608800563785004,1588,0,8.358592001594449,6.055740963343176,72.4492948356375,0.12006304280624931,0.08698482787133721,0.09765625,,
0.7916749999998137,1200,,,,-0.0625,0,-0.9296875,0.036421344022080866,0.7270706865054292,22.83224759782483,0.36499108224449844,1588,0,8.333566760804434,6.05551827073848,72.6641838308612,0.12006745814289514,0.08724603850599566,0.09765625,,
0.8001249999997672,1200,,,,0,0.00390625,-1.03125,0.036421344022080866,0.7270706865054292,22.832236851026934,0.36262311588437707,1588,0,8.279496869529485,6.055179069442234,73.13462599070158,0.12007418412687876,0.08781580547257914,0.09765625,,
0.8078799999996554,1200,,,,0,0.0390625,-0.978515625,0.036421344022080866,0.7270706865054292,22.832225066748496,0.3610003516594906,1588,0,8.242441278264844,6.0550206003314875,73.46149515554886,0.12007732665114716,0.08821059950074506,0.09765625,,
0.8155949999997393,1200,,,,-0.1875,0.08203125,-0.94140625,0.036421344022080866,0.7270706865054292,22.832279251839747,0.3597046718183476,1587,0,8.212877515147882,6.054417873335846,73.7185945141522,0.12008928054132309,0.08852812977722065,0.09765625,,
0.8237599999997764,1200,,,,0.03125,-0.029296875,-0.970703125,0.036421344022080866,0.7270706865054292,22.832463748956652,0.35662430077144713,1587,0,8.14261141936108,6.0530849075359665,74.33837372053952,0.12011572571867297,0.08929207708188532,0.099609375,,
0.8318099999998231,1200,,,,-0.03125,0.099609375,-0.94140625,0.030421646854938887,0.7270706865054292,22.8325061412047,0.3549106632111263,1587,0,8.103499897347074,5.0555274251244535,62.38696228995491,0.14381697998355347,0.0897230450688915,0.09765625,,
0.8397799999997951,1200,,,,-0.125,0.00390625,-0.94921875,0.030421646854938887,0.7270706865054292,22.83248152052193,0.3524347687757658,1587,0,8.046960345262091,5.055356356498883,62.823179680205435,0.14382184661833936,0.09035345712042879,0.09765625,,
0.8476149999997579,1200,,,,-0.03125,0.068359375,-1.048828125,0.030421646854938887,0.7270706865054292,22.83245791258449,0.3509131926663413,1587,0,8.012210702524891,5.055969089420019,63.10329666975345,0.14380441684797424,0.0907453277877861,0.099609375,,
0.8566549999997951,1200,,,,0,0.05859375,-0.955078125,0.030421646854938887,0.7270706865054292,22.832432742866374,0.34869238376856726,1587,0,7.961495400345562,5.05694651951934,63.51754620494848,0.14377662166269792,0.09132338209651811,0.09765625,,
0.8656499999999069,1200,,,,-0.125,0.03515625,-0.9296875,0.030421646854938887,0.7270706865054292,22.832298766592313,0.346592775777371,1587,0,7.913509806891474,5.057296541413176,63.90712420687257,0.14376667070075777,0.09187714481281874,0.09765625,,
0.8778199999998324,1200,,,,0,-0.0078125,-1.0234375,0.030421646854938887,0.8654827146939089,22.83250629083208,0.344209748742976,1587,0,7.859171253539729,5.056775584854138,64.34235139712209,0.17115307969888358,0.11012391596685212,0.09765625,,
0.8965449999996926,1200,,,,0.03125,0.005859375,-0.95703125,0.030421646854938887,0.8654827146939089,22.832691895893515,0.3420159638705379,1587,0,7.80914512653304,5.0560639427174365,64.74542169204294,0.17117716953333184,0.11082938025485894,0.09765625,,
0.9062949999999255,1200,,,,-0.09375,0.037109375,-0.974609375,0.030421646854938887,0.8654827146939089,22.832658329506383,0.3414386073698071,1586,0,7.795951062577285,5.052866911468535,64.81398960703703,0.1712854761184221,0.111016950689758,0.09765625,,
0.9155399999998044,1200,,,,-0.03125,0.00390625,-1.001953125,0.030421646854938887,0.8654827146939089,22.832857358759544,0.34128203937148904,1586,0,7.792444124075768,5.051461221591804,64.82511957942258,0.17133314039797382,0.11106691314216649,0.09765625,,
0.9245249999999069,1200,,,,0.0625,0.08203125,-0.98828125,0.030421646854938887,0.8654827146939089,22.83274430751421,0.34040394601410845,1585,0,7.772356260609009,5.050986963945395,64.98655999010549,0.1713492275612346,0.11135396856166412,0.09765625,,
0.9326549999997951,1200,,,,-0.09375,0.09765625,-0.96484375,0.030421646854938887,0.8654827146939089,22.832904969731192,0.33957566537824435,1586,0,7.7534988976146915,5.053572045320561,65.17795529545063,0.1712615763527735,0.11162479367349475,0.099609375,,
0.9409299999999348,1200,,,,-0.09375,0.009765625,-0.962890625,0.030421646854938887,0.8654827146939089,22.83305844141459,0.3369553140818661,1587,0,7.693720378576456,5.054590534175848,65.69761162948687,0.17122706752249836,0.11249209382549023,0.09765625,,
0.9486399999996648,1200,,,,0.125,0.0625,-0.9921875,0.030421646854938887,0.8654827146939089,22.833006978944564,0.33662291106685727,1587,0,7.686113277662187,5.054984608547008,65.76776097274141,0.17121371907454358,0.11260342951348677,0.099609375,,
0.9569749999996274,1200,,,,-0.0625,0.060546875,-1.017578125,0.030421646854938887,0.8654827146939089,22.83308756484743,0.3352535376734429,1586,0,7.654873382122598,5.052887734367995,66.00876960510735,0.17128477025270022,0.11306296936474233,0.099609375,,
0.964149999999674,1200,,,,-0.0625,0.0546875,-0.9765625,0.030421646854938887,0.8654827146939089,22.833229463918418,0.33341695092425355,1586,0,7.612985747613507,5.052052565682515,66.36098809545538,0.17131308580851734,0.11368505647934747,0.099609375,,
0.9718049999997019,1200,,,,-0.0625,0.05859375,-1.02734375,0.030421646854938887,0.8654827146939089,22.83316982721927,0.3349425526735061,1586,0,7.6478001875565,5.051721837665499,66.0545740445076,0.17132430139777166,0.11316753752302644,0.099609375,,
0.9790199999997858,1200,,,,-0.03125,0.005859375,-0.931640625,0.027956500083312547,0.8654827146939089,22.833119108559227,0.3350160562716945,1586,0,7.649461516131381,4.64225391551834,60.68732950324197,0.18643588447429243,0.11314295952319738,0.099609375,,
0.9865099999997765,1200,,,,-0.0625,0.046875,-0.953125,0.027956500083312547,0.8654827146939089,22.83307119508656,0.33424824865413505,1587,0,7.631914058352861,4.644908336413399,60.86164363092782,0.18632934215494074,0.1134031002021922,0.099609375,,
0.994524999999674,1200,,,,-0.03125,0.037109375,-0.96875,0.027956500083312547,0.8654827146939089,22.83321782568817,0.3320879000976666,1587,0,7.582635360205392,4.646176313839367,61.27389875851177,0.1862784914373423,0.11414009425220012,0.099609375,,
1.0029049999997952,1200,,,,-0.125,0.04296875,-1.015625,0.027956500083312547,0.8654827146939089,22.83315791793245,0.3302812199603691,1587,0,7.5413632526824905,4.64666440892896,61.61570863565184,0.18625892436535987,0.11476475614485929,0.099609375,,
1.0116449999997859,1200,,,,0.03125,0.01171875,-0.970703125,0.027956500083312547,0.8654827146939089,22.833239876885465,0.3300368808040676,1588,0,7.535811267618332,4.648038424283181,61.67933695813189,0.18620386401547087,0.11484930871516397,0.09765625,,
1.0190699999998323,1200,,,,-0.0625,0.0703125,-0.958984375,0.027956500083312547,0.8654827146939089,22.83317973479113,0.328777348502105,1588,0,7.507032291076625,4.649060600030142,61.929407251336,0.18616292390086234,0.11528959529355977,0.09765625,,
1.0292199999997391,1200,,,,-0.125,-0.01171875,-1.05859375,0.027956500083312547,0.9309401477618832,22.833187859577162,0.3281625654486176,1588,0,7.492997505369071,4.649484898850823,62.05106695310197,0.2002243620561014,0.12424135295585279,0.099609375,,
1.0361749999998138,1200,,,,-0.03125,0.05078125,-1,0.027956500083312547,0.9309401477618832,22.833195656266245,0.328499032584142,1587,0,7.500682683887894,4.6473225337077935,61.958660692187905,0.20031752498554195,0.12411405561278069,0.099609375,,
1.0453249999997205,1200,,,,-0.0625,0.125,-0.974609375,0.027956500083312547,0.9309401477618832,22.83334324051626,0.32721444827288343,1587,0,7.4713998106709,4.64537928357873,62.17548787770728,0.2004013215998804,0.12460049941809884,0.099609375,,
1.0536399999996646,1200,,,,-0.09375,-0.001953125,-0.966796875,0.027956500083312547,0.9309401477618832,22.833276118089028,0.3280111152164004,1587,0,7.4895683635383845,4.644675474547539,62.01526241698127,0.20043168847067203,0.12429823757187367,0.099609375,,
1.0615099999997766,1200,,,,-0.0625,0.044921875,-0.978515625,0.027956500083312547,0.9309401477618832,22.83321334106519,0.32651301494842366,1586,0,7.455341328951765,4.644543608364187,62.29820210012059,0.20043737905386172,0.12486888348715955,0.099609375,,
1.069994999999646,1200,,,,0,0.1015625,-0.9765625,0.027956500083312547,0.9309401477618832,22.833352357426783,0.3266933059688652,1587,0,7.459503367999737,4.644771415563861,62.26649666101505,0.20042754841335284,0.12479921274055465,0.09765625,,
1.0790149999996648,1200,,,,-0.03125,0.05078125,-0.98828125,0.027956500083312547,0.9309401477618832,22.833497674466727,0.32592905565957625,1587,0,7.442100334444071,4.6448643235701725,62.41335261327335,0.20042353939981966,0.12509105036561227,0.09765625,,
1.0880599999995901,1200,,,,-0.03125,0.00390625,-0.91796875,0.027956500083312547,0.9309401477618832,22.83348872007118,0.3263958627322614,1586,0,7.452756249974992,4.644311163554747,62.3166920771135,0.20044741081675144,0.12491219577522168,0.09765625,,
1.0964199999996926,1200,,,,0,-0.046875,-0.99609375,0.027956500083312547,0.9309401477618832,22.833480264649832,0.3268371501290837,1586,0,7.462829617226827,4.642939339431102,62.214194582622795,0.2005066359268762,0.12474358862661784,0.09765625,,
1.1047649999996647,1200,,,,-0.03125,0.0625,-0.986328125,0.027956500083312547,0.9309401477618832,22.83340686510256,0.32796933645500503,1586,0,7.488657298554843,4.642468546492815,61.99333687480553,0.20052696931359254,0.12431335961141332,0.09765625,,
1.1130449999996928,1200,,,,-0.0625,0.099609375,-1.021484375,0.027956500083312547,0.9309401477618832,22.833241601176578,0.32744244619574314,1586,0,7.476572484467666,4.642286892722123,62.09111063079135,0.20053481598075096,0.1245142944438619,0.09765625,,
1.1207749999996741,1200,,,,-0.03125,0.001953125,-1.005859375,0.027956500083312547,0.9309401477618832,22.833377890913823,0.3275750967204103,1586,0,7.479645971069774,4.644303224732651,62.092554148901804,0.20044775345508856,0.12446312985435805,0.099609375,,
1.129274999999674,1200,,,,-0.125,0.05859375,-0.95703125,0.027255158432102466,0.9309401477618832,22.833375506719374,0.3270065387759156,1587,0,7.4666630930230715,4.5286010388297635,60.65093579836669,0.20556903551001426,0.12467954374850038,0.099609375,,
1.1372199999997392,1200,,,,0,0.060546875,-0.966796875,0.027255158432102466,0.9309401477618832,22.83330833013744,0.3271590464470532,1587,0,7.470123380519322,4.5288785894542665,60.62655673485568,0.20555643728883052,0.1246217900750609,0.099609375,,
1.14608499999973,1200,,,,-0.125,0.0859375,-0.96875,0.027255158432102466,0.9309401477618832,22.833377550851154,0.32576147298519026,1587,0,7.438234704192248,4.530235064336899,60.90470715832108,0.205494888132951,0.1251560598426933,0.099609375,,
1.1552399999997578,1200,,,,-0.0625,0.056640625,-1.009765625,0.027255158432102466,0.9309401477618832,22.833519071844297,0.32623149860434053,1587,0,7.449013145218555,4.530768514499716,60.82374169802572,0.20547069327921225,0.12497496374529074,0.099609375,,
1.1640949999997392,1200,,,,0,0.04296875,-0.986328125,0.027255158432102466,0.9309401477618832,22.83365538744966,0.3262070995604331,1587,0,7.448500496302411,4.5309643618308595,60.830557292439245,0.20546181197190247,0.12498356524565193,0.099609375,,
1.174249999999767,1200,,,,0,-0.00390625,-0.982421875,0.027255158432102466,0.9570152065944548,22.833678407942173,0.32559854346662864,1588,0,7.43461243161138,4.53229415505128,60.96207699785836,0.2111546986701764,0.12872428998790877,0.099609375,,
1.185339999999851,1200,,,,-0.09375,0.095703125,-1.0078125,0.027255158432102466,0.9570152065944548,22.83366390004452,0.325058053481958,1588,0,7.422266341209725,4.533109306376271,61.07446294681791,0.21111672847780605,0.12893840810871182,0.099609375,,
1.1924499999997207,1200,,,,-0.03125,0.05859375,-0.9921875,0.027255158432102466,0.9570152065944548,22.83355092836541,0.3284964954654746,1588,0,7.500741459000471,4.533567916092136,60.44159688575997,0.21109537218963442,0.12758941390335352,0.099609375,,
1.2009349999998231,1200,,,,-0.0625,0.021484375,-0.96875,0.027255158432102466,0.9570152065944548,22.8333796266304,0.3323484103595198,1588,0,7.588637422046059,4.533280003378235,59.737733551591475,0.21110877904768285,0.12611159993152277,0.099609375,,
1.2088899999996647,1200,,,,0,-0.08984375,-0.96484375,0.027255158432102466,0.9570152065944548,22.833309616141648,0.3344393409303876,1588,0,7.636357019281894,4.5331618969010465,59.36288580346306,0.211114279251462,0.12532352850684952,0.099609375,,
1.216399999999674,1200,,,,-0.0625,0.119140625,-0.99609375,0.027255158432102466,0.9570152065944548,22.833438285956145,0.3329879045182146,1588,0,7.60325876778651,4.533118078159897,59.62072601508466,0.21111631995761523,0.12586908269505928,0.099609375,,
1.2237249999996274,1200,,,,0,0.01953125,-1.05078125,0.027255158432102466,0.9570152065944548,22.8334911854877,0.3321167182651607,1590,0,7.583384159060648,4.538808005039534,59.852012107504194,0.21085166094971647,0.126198961640498,0.099609375,,
1.2317949999996927,1200,,,,-0.0625,0.080078125,-0.951171875,0.027255158432102466,0.9570152065944548,22.83361402189601,0.329469693924828,1593,0,7.52298382299174,4.5475974212711545,60.449384556335076,0.21044413520820138,0.1272121845682594,0.099609375,,
1.2407699999997859,1200,,,,0,-0.01953125,-1.01953125,0.027255158432102466,0.9570152065944548,22.833665171398508,0.3278123079088476,1595,0,7.485156477854017,4.55105862403829,60.80111534746527,0.21028408677040217,0.12785507015463618,0.099609375,,
1.2491249999997671,1200,,,,-0.03125,-0.0078125,-0.943359375,0.027255158432102466,0.9570152065944548,22.83368339642285,0.3265194474702046,1595,0,7.455641686309574,4.551937621229705,61.05359957933872,0.21024348008000984,0.128361212469716,0.099609375,,
1.2570499999998137,1200,,,,-0.0625,0.060546875,-0.994140625,0.027255158432102466,0.9570152065944548,22.83379834500607,0.32583716499125487,1595,0,7.440100118718785,4.551139402980591,61.170405375731896,0.2102803544026129,0.128629345213604,0.099609375,,
1.2661349999997764,1200,,,,-0.09375,0.041015625,-0.986328125,0.027255158432102466,0.9570152065944548,22.833921669021848,0.3231592048411633,1594,0,7.378991969966508,4.550807915117071,61.67248770075198,0.2102956715477707,0.12969457217051267,0.099609375,,
1.273934999999823,1200,,,,0.0625,0.1015625,-1,0.027255158432102466,0.9570152065944548,22.83392543908009,0.3236532726378748,1594,0,7.390274695527493,4.5506993992224265,61.57686400989203,0.21030068625450826,0.12949656758680825,0.099609375,,
1.2932949999999255,1200,,,,-0.0625,0.02734375,-0.94921875,0.02695736490526657,0.9570152065944548,22.834173392948824,0.32272022250748195,1590,0,7.369049518146868,4.489013211859079,60.91712643271738,0.2131905524506391,0.1298695583789645,0.099609375,,
1.3077599999997764,1200,,,,-0.125,0.08984375,-0.94140625,0.02695736490526657,0.9570152065944548,22.834252627742416,0.32197567323353526,1590,0,7.352073862601986,4.489152061977123,61.05967031713633,0.2131839584362317,0.13016942219018401,0.1015625,,
1.3154149999998044,1200,,,,-0.03125,-0.01171875,-0.98046875,0.02695736490526657,0.9570152065944548,22.834334584044633,0.3209332937975518,1590,0,7.328298209732794,4.489386755231861,61.26097255798702,0.21317281374324995,0.13059173892834114,0.1015625,,
1.322619999999879,1200,,,,0.0625,0.0546875,-0.9921875,0.02695736490526657,0.9620349799176726,22.834319590470233,0.3225105841046314,1590,0,7.3643097487543825,4.4894802870224675,60.962675935539366,0.21428649162322477,0.13063477946190322,0.1015625,,
1.330049999999581,1200,,,,-0.09375,0.044921875,-0.97265625,0.02695736490526657,0.9620349799176726,22.834123334529007,0.32167312634308076,1590,0,7.345123840321438,4.488746509571747,61.11192414388632,0.21432152113429467,0.13097600541961346,0.1015625,,
1.3399549999998417,1200,,,,-0.03125,0.09375,-1.02734375,0.02695736490526657,0.9620349799176726,22.834213486772455,0.32176643733161053,1590,0,7.347283522908185,4.488429473393023,61.08964570917256,0.21433665954216802,0.13093750593918582,0.1015625,,
1.3573849999997765,1200,,,,-0.125,0.0078125,-1.0390625,0.02695736490526657,0.9620349799176726,22.833750729903425,0.3195859245513851,1590,0,7.297345337992051,4.488242870071452,61.50514553154536,0.21434557080962002,0.13183355526687843,0.1015625,,
1.369714999999618,1200,,,,0,-0.005859375,-0.97265625,0.02695736490526657,0.9620349799176726,22.834028913027172,0.31770852970371205,1590,0,7.2545657531699135,4.488223773583484,61.86757314346948,0.2143464828068422,0.13261096703097733,0.1015625,,
1.3822099999999629,1200,,,,-0.0625,0.08984375,-0.98828125,0.02695736490526657,0.9620349799176726,22.833935841455336,0.3184518089865527,1590,0,7.2715081749943336,4.48821856148171,61.72335165510843,0.2143467317242396,0.13230198698338427,0.1015625,,
1.390929999999702,1200,,,,-0.03125,0.009765625,-0.978515625,0.02695736490526657,0.9620349799176726,22.833939097485523,0.3192139050260662,1589,0,7.288910866435724,4.486982854381818,61.559030376453926,0.21440576243303128,0.13198610842501737,0.1015625,,
1.4000949999997392,1200,,,,0,0.029296875,-0.947265625,0.02695736490526657,0.9620349799176726,22.833832152247847,0.31945684839489163,1589,0,7.294424056135043,4.486064858643775,61.49991862442832,0.2144496368713926,0.13188635216628847,0.1015625,,
1.4091749999995808,1200,,,,-0.03125,0.041015625,-0.986328125,0.02695736490526657,0.9620349799176726,22.833731650753315,0.3190899064016811,1589,0,7.286013295239979,4.485737520709947,61.56641964461582,0.21446528591477054,0.13203859791831277,0.1015625,,
1.4188349999997298,1200,,,,-0.125,0.0859375,-1.046875,0.02695736490526657,0.9620349799176726,22.83386736429095,0.3187116567760796,1589,0,7.277419698278423,4.485171180688182,61.631338670067535,0.214492366324815,0.13219451671108864,0.1015625,,
1.4267249999996274,1200,,,,-0.01953125,0.0234375,-0.9609375,0.02695736490526657,0.9620349799176726,22.833840950321854,0.31906204876621763,1589,0,7.285412074811648,4.48499939497879,61.5613687863324,0.2145005818718114,0.1320494942549347,0.1015625,,
1.4353849999997765,1200,,,,-0.0625,0.05078125,-0.96875,0.026869861597501866,0.9620349799176726,22.83374921795805,0.31831551128049207,1589,0,7.268336556764853,4.470374113215908,61.50477593191802,0.21520234225443866,0.13235971840383184,0.1015625,,
1.444649999999907,1200,,,,-0.09375,0.04296875,-0.97265625,0.026869861597501866,0.9620349799176726,22.833664093766732,0.3201584039891356,1589,0,7.3103894534843885,4.47154793095043,61.1670275489787,0.2151458498876454,0.13159832127126045,0.1015625,,
1.4532649999996647,1200,,,,0,0.064453125,-0.951171875,0.026869861597501866,0.9620349799176726,22.833554713081625,0.31995764512789404,1589,0,7.305770395896523,4.472085307450755,61.21305577797269,0.2151199974461279,0.13168152402627173,0.1015625,,
1.4626149999997577,1200,,,,-0.0625,-0.013671875,-0.947265625,0.026869861597501866,0.9620349799176726,22.833543130646156,0.32049096121633813,1589,0,7.317944185915501,4.472232984283808,61.1132426083722,0.21511289400584188,0.13146246479568066,0.1015625,,
1.4722849999996834,1200,,,,-0.125,0.05859375,-0.96484375,0.026869861597501866,0.9592680918283488,22.833533179000213,0.32053645161957556,1589,0,7.318979703134575,4.471890061162873,61.09991067809152,0.2145106607515526,0.13106582211418255,0.1015625,,
1.4812599999997764,1200,,,,-0.041015625,0.046875,-0.953125,0.026869861597501866,0.9592680918283488,22.83360726069621,0.3203120284298835,1589,0,7.313879058044918,4.471728664718924,61.140314588607204,0.21451840300526034,0.13115722644787237,0.1015625,,
1.4924999999997672,1200,,,,0,0.0078125,-1.00390625,0.026869861597501866,0.9592680918283488,22.833517242726312,0.32037562769238054,1589,0,7.3153024190632365,4.471682491682867,61.127787144246184,0.2145206180475795,0.13113170678064576,0.1015625,,
1.5004449999998324,1200,,,,0,0.05078125,-0.953125,0.026869861597501866,0.9592680918283488,22.83348428857947,0.32141256917711025,1590,0,7.338968848457509,4.4725758281893775,60.94283707348636,0.21447777045664695,0.1307088382082404,0.1015625,,
1.5086299999996553,1200,,,,-0.0625,0.021484375,-0.95703125,0.026869861597501866,0.9592680918283488,22.833416811754766,0.3218089572826662,1590,0,7.347998055391301,4.472813185399142,60.87118085336717,0.21446638883996816,0.13054822342046268,0.1015625,,
1.5163299999998416,1200,,,,-0.0625,0.021484375,-0.9921875,0.026869861597501866,0.9592680918283488,22.833346348855322,0.32222288688507883,1590,0,7.357426777775036,4.472917669745581,60.79459306692874,0.21446137904946325,0.13038092267884477,0.1015625,,
1.5251699999996926,1200,,,,-0.03125,0.083984375,-0.99609375,0.026869861597501866,0.9592680918283488,22.833345677216993,0.3219454759734902,1589,0,7.35109234211886,4.4704237755443925,60.81305427127649,0.21458101960625256,0.13049327190900883,0.1015625,,
1.5329249999998138,1200,,,,-0.125,0.16796875,-0.984375,0.026869861597501866,0.9592680918283488,22.833279115080536,0.32106106490960107,1588,0,7.33087690806591,4.46956104011461,60.96898223999514,0.21462243903122777,0.13085311673599367,0.1015625,,
1.5407899999995716,1200,,,,-0.0625,0.001953125,-0.96875,0.026869861597501866,0.9592680918283488,22.83321641952346,0.3215054456148725,1588,0,7.341003419779713,4.469224836266467,60.880299064083246,0.21463858431201888,0.13067261203607156,0.1015625,,
1.5493399999996182,1200,,,,0,0.05859375,-0.9453125,0.026869861597501866,0.9592680918283488,22.833156653562167,0.3210755589706535,1589,0,7.3311685356069685,4.471101947470902,60.98757552435298,0.21454847218837472,0.13084791151223046,0.1015625,,
1.557249999999767,1200,,,,-0.0625,0.046875,-0.966796875,0.026869861597501866,0.9592680918283488,22.83319781953569,0.3208818680556826,1589,0,7.326759170017551,4.4718383566770985,61.034329816335244,0.214513140976132,0.13092665796275257,0.1015625,,
1.5653899999998975,1200,,,,0.0625,0.078125,-0.9609375,0.026869861597501866,0.9592680918283488,22.833269701286962,0.31984655195076284,1589,0,7.30314258371846,4.47213034767866,61.23569814518992,0.214499135144009,0.13135004292082836,0.1015625,,
1.5742249999996274,1200,,,,-0.09375,0.0625,-1.01171875,0.026869861597501866,0.9592680918283488,22.8331989361074,0.32042018964180785,1589,0,7.316217933236659,4.471396801238498,61.11623303244569,0.21453432438889083,0.1311152976280975,0.1015625,,
1.5832549999996555,1200,,,,-0.03125,0.037109375,-0.96875,0.02676058830374679,0.9592680918283488,22.833242518995753,0.31953109911094146,1588,0,7.295931078361395,4.451271120453308,61.01032305054376,0.21550430559499575,0.13147987303133796,0.1015625,,
1.5905699999998324,1200,,,,-0.0625,0.07421875,-0.98046875,0.02676058830374679,0.9592680918283488,22.83318254546801,0.3192043957151841,1588,0,7.288452236680605,4.450610833035524,61.06386772539892,0.21553627756172142,0.13161478743053825,0.1015625,,
1.5976299999998882,1200,,,,-0.03125,0.02734375,-1.01171875,0.02676058830374679,0.9592680918283488,22.83339376529829,0.31968286888388764,1588,0,7.299444825246031,4.449736385638845,60.95992903801235,0.2155786340342109,0.1314165823283713,0.099609375,,
1.6047449999996461,1200,,,,-0.0625,0.08203125,-0.9609375,0.02676058830374679,0.9592680918283488,22.833249467674317,0.31929631782473905,1587,0,7.290572479002092,4.448136807228098,61.01217455884812,0.21565615748813416,0.13157651125356484,0.099609375,,
1.6133949999997859,1200,,,,0.0625,0.01953125,-0.9609375,0.02676058830374679,0.9592680918283488,22.83338914270613,0.31984657750839135,1587,0,7.303181370211818,4.44735957674587,60.89619511416955,0.21569384603937167,0.13134934533339224,0.099609375,,
1.6221649999998045,1200,,,,-0.09375,0.015625,-0.951171875,0.02676058830374679,0.9577021041317476,22.833422154938194,0.31934637530537824,1587,0,7.291770600997031,4.447051978710242,60.987272118820904,0.21535662472951478,0.1313401307496971,0.099609375,,
1.6294799999997485,1200,,,,-0.0625,0.02734375,-0.978515625,0.02676058830374679,0.9577021041317476,22.83328755205065,0.31923694023707705,1587,0,7.2892288536699885,4.446547835892428,61.001622052978554,0.21538104153545792,0.13138592893122883,0.099609375,,
1.6370149999996648,1200,,,,0,0.09765625,-0.984375,0.02676058830374679,0.9577021041317476,22.83340255435145,0.3188709171727485,1587,0,7.280908014680626,4.446363845617643,61.06880950359983,0.21538995399030678,0.13153608069223174,0.099609375,,
1.6477649999998976,1200,,,,-0.0625,0.099609375,-0.982421875,0.02676058830374679,0.9577021041317476,22.833432050719665,0.3184621471325038,1587,0,7.271583797276314,4.446275216162627,61.1458980618232,0.21539424744793367,0.13170474697554474,0.099609375,,
1.6565649999997112,1200,,,,-0.0625,-0.005859375,-0.982421875,0.02676058830374679,0.9577021041317476,22.833473731815292,0.3176451434431727,1586,0,7.252942038848384,4.445518098623236,61.292618565156644,0.21543093130772437,0.1320432589978081,0.1015625,,
1.6652649999996647,1200,,,,-0.03125,-0.0234375,-0.958984375,0.02676058830374679,0.9577021041317476,22.833659114287002,0.31741098245628924,1586,0,7.247654172537841,4.444755219639309,61.326811597619766,0.21546790696146928,0.1321395973555949,0.1015625,,
1.6732399999997578,1200,,,,0,0.1015625,-0.9765625,0.02676058830374679,0.9577021041317476,22.833773660115337,0.3183522097403277,1586,0,7.2691823014082075,4.444445504171548,61.140927822247036,0.2154829220501973,0.13174825783997998,0.1015625,,
1.6813649999997577,1200,,,,-0.125,0.109375,-0.9609375,0.02676058830374679,0.9577021041317476,22.833948147384767,0.31744024873835736,1586,0,7.248414179584574,4.445120208515727,61.325416820627765,0.21545021488890953,0.132125742321562,0.1015625,,
1.6893599999996367,1200,,,,-0.0625,0.02734375,-0.982421875,0.02676058830374679,0.9577021041317476,22.833983339944382,0.3184881945792741,1587,0,7.2723541289921085,4.44698198753502,61.149139723636324,0.21536001423351972,0.13169079601249806,0.1015625,,
1.6979549999998418,1200,,,,0,0.025390625,-0.955078125,0.02676058830374679,0.9577021041317476,22.833884746234165,0.31906736250059975,1587,0,7.285547381623611,4.447721244680308,61.04855286369871,0.21532421917790065,0.13145231977316715,0.1015625,,
1.7057549999998882,1200,,,,-0.125,0.015625,-0.9453125,0.02676058830374679,0.9577021041317476,22.833926745871377,0.3184947885152117,1587,0,7.27248666989814,4.448021464467737,61.162318562627725,0.2153096858417137,0.1316883959507019,0.1015625,,
1.7147299999997485,1200,,,,-0.0625,0.076171875,-1.015625,0.02676058830374679,0.9577021041317476,22.83402949814196,0.3181036567942997,1587,0,7.263588282707865,4.448527745597408,61.24421666613237,0.21528518172772115,0.13184972314740234,0.1015625,,
1.7214199999996926,1200,,,,0,0.033203125,-0.98046875,0.02676058830374679,0.9577021041317476,22.833995823632982,0.317635117394871,1587,0,7.2528789440336565,4.448723597158533,61.337347989492216,0.21527570396673926,0.13204440767890796,0.099609375,,
1.728619999999646,1200,,,,-0.0625,0.02734375,-0.953125,0.02676058830374679,0.9577021041317476,22.83399599030154,0.3184663661772706,1588,0,7.271859728337698,4.448797298729484,61.17826065033919,0.21527213757418312,0.1316997494326905,0.099609375,,
1.7373949999997857,1200,,,,0,-0.033203125,-0.955078125,0.026788084589113182,0.9577021041317476,22.834094174699377,0.31808063543804405,1587,0,7.263083184740518,4.453136135740601,61.31192528672236,0.2150623908497404,0.13185889239763163,0.099609375,,
1.7456599999996834,1200,,,,-0.1875,0.05859375,-0.94140625,0.026788084589113182,0.9577021041317476,22.833991131299133,0.3193145224488653,1587,0,7.291224973692408,4.452910555584985,61.07218706941025,0.21507328570311535,0.13134995938093377,0.1015625,,
1.7531999999997205,1200,,,,-0.03125,0.064453125,-0.986328125,0.026788084589113182,0.9577021041317476,22.834089733681033,0.3195255388061251,1587,0,7.296074825301842,4.45282207406585,61.03037839776587,0.21507755939982454,0.13126264835039259,0.099609375,,
1.7613749999997672,1200,,,,0,0.01171875,-0.95703125,0.026788084589113182,0.9577021041317476,22.834183953675442,0.32090528415854364,1587,0,7.327610290182675,4.452519926848704,60.76360164532855,0.21509215452508185,0.13069773994597528,0.099609375,,
1.7704149999998045,1200,,,,-0.125,0.08984375,-0.9921875,0.026788084589113182,0.9441923635367973,22.83406317527807,0.3204552791914198,1587,0,7.317296089908252,4.451828403876502,60.83980133066231,0.21209091588405035,0.12903569186423836,0.099609375,,
1.7782699999997857,1200,,,,-0.0625,0.009765625,-0.97265625,0.026788084589113182,0.9441923635367973,22.834060100772263,0.32029326070324887,1587,0,7.313595564770304,4.451598175068997,60.86743703073233,0.21210188485221104,0.12910098120341595,0.099609375,,
1.7859799999997485,1200,,,,-0.125,0.09375,-0.98828125,0.026788084589113182,0.9441923635367973,22.83408985367632,0.3197098515402025,1587,0,7.3002834771745,4.451505570358212,60.97716046611825,0.2121062972096468,0.12933639720826803,0.099609375,,
1.792904999999795,1200,,,,0,0.052734375,-0.978515625,0.026788084589113182,0.9441923635367973,22.834086045438777,0.3206992099520775,1586,0,7.322873354749974,4.450004066868187,60.76855151375378,0.2121778653117723,0.12893741538276746,0.099609375,,
1.8026949999998323,1200,,,,-0.0625,0.0390625,-0.96484375,0.026788084589113182,0.9441923635367973,22.834170189696664,0.32082755375048744,1586,0,7.325830963882685,4.449323772562441,60.73473158878762,0.21221030695930246,0.12888536033547462,0.099609375,,
1.810904999999795,1200,,,,-0.0625,0.01953125,-1.001953125,0.026788084589113182,0.9441923635367973,22.834203211694696,0.32115835520632247,1586,0,7.333395145914794,4.448964363493258,60.667184502823865,0.21222745034429363,0.12875241886601152,0.1015625,,
1.8197549999998883,1200,,,,-0.0625,0.03125,-0.984375,0.026788084589113182,0.9441923635367973,22.834225680566437,0.3213834395720552,1587,0,7.338541989184994,4.451254875794553,60.655848019327095,0.212118243031019,0.12866211911416175,0.099609375,,
1.826524999999907,1200,,,,-0.03125,0.1015625,-0.96875,0.026788084589113182,0.9441923635367973,22.834247450642465,0.3226754060531211,1587,0,7.3680500680535035,4.452173328633375,60.42539460931694,0.21207448449151545,0.12814684411967286,0.099609375,,
1.8341099999996369,1200,,,,-0.125,0.09375,-1.0546875,0.026788084589113182,0.9441923635367973,22.834150859130894,0.3218756451682528,1587,0,7.34975703965197,4.452506092967401,60.58031672266324,0.2120586348052663,0.12846579260278612,0.099609375,,
1.8425449999999255,1200,,,,-0.0625,0.05078125,-0.96484375,0.026788084589113182,0.9441923635367973,22.83404387066029,0.32099044581747743,1587,0,7.329509921859085,4.453200555251395,60.75713932756186,0.212025564944154,0.12882066790316982,0.099609375,,
1.85020999999973,1200,,,,-0.0625,0.0390625,-0.90234375,0.026788084589113182,0.9441923635367973,22.834074421473815,0.32122612988179106,1588,0,7.334901355842831,4.454536857406943,60.73069890515366,0.21196196007825308,0.12872597976858585,0.099609375,,
1.8580599999995902,1200,,,,-0.09375,0.0546875,-0.96484375,0.026788084589113182,0.9441923635367973,22.83407080951554,0.3197685676437441,1588,0,7.301618116234613,4.455058008051711,61.01466739470002,0.21193716486527012,0.1293127562283016,0.099609375,,
1.866494999999879,1200,,,,-0.0625,0.078125,-0.98828125,0.026788084589113182,0.9441923635367973,22.834165329032043,0.31995708650043175,1588,0,7.305953011346265,4.455267814403556,60.98133682880867,0.21192718437358404,0.12923603013466567,0.099609375,,
1.875429999999702,1200,,,,0,0.03515625,-0.9765625,0.026788084589113182,0.9441923635367973,22.834119509803475,0.3202784137770161,1588,0,7.313275576594673,4.45365959870227,60.898287669559636,0.21200371124275436,0.1291066299427551,0.099609375,,
1.8844049999995622,1200,,,,-0.0625,0,-0.94921875,0.026615926971421035,0.9441923635367973,22.834149719665966,0.3201029567384329,1587,0,7.3092788398731345,4.42446507883111,60.53216980442772,0.2134026027359315,0.12917722585518238,0.099609375,,
1.8924849999996367,1200,,,,-0.03125,0.037109375,-0.98828125,0.026615926971421035,0.9441923635367973,22.834044712161873,0.3201686364968845,1587,0,7.310744961201762,4.4242735023124204,60.51741000119836,0.21341184333276397,0.1291513202208039,0.099609375,,
1.9003249999997207,1200,,,,-0.03125,0.0625,-0.974609375,0.026615926971421035,0.9441923635367973,22.834042518889028,0.319386139562096,1587,0,7.292876690704725,4.424197874902722,60.664646648169274,0.21341549140307334,0.12946775375212852,0.099609375,,
1.9088599999996367,1200,,,,-0.0625,0.0859375,-0.94140625,0.026615926971421035,0.9441923635367973,22.8339424447779,0.3190614942294596,1587,0,7.285431795580317,4.424167720035094,60.726225214530196,0.21341694603054234,0.1296000552924795,0.09765625,,
1.9176099999998697,1200,,,,-0.0625,0.107421875,-0.998046875,0.026615926971421035,0.9441923635367973,22.833982155184366,0.3196694186217315,1587,0,7.299325800366778,4.4241551189032124,60.610462389292266,0.21341755389690562,0.12935336623683152,0.099609375,,
1.92658499999973,1200,,,,-0.03125,-0.013671875,-0.982421875,0.026615926971421035,0.9240074583128911,22.833983018646293,0.3198643261547968,1588,0,7.3037765916893695,4.424946352386967,60.58436066379562,0.20881777647190003,0.12651091482785448,0.099609375,,
1.9346999999997205,1200,,,,-0.0625,0.103515625,-0.98046875,0.026615926971421035,0.9240074583128911,22.833783909636317,0.31917708986087867,1588,0,7.288020698789876,4.42572884889796,60.726074085283834,0.20878085618439454,0.12678441740242533,0.099609375,,
1.9437249999998603,1200,,,,0,0.02734375,-0.97265625,0.026615926971421035,0.9240074583128911,22.8337614001887,0.3184225655541702,1588,0,7.270784886299867,4.4259654274968785,60.87328255078209,0.20876969634068449,0.12708496713387463,0.099609375,,
1.955119999999646,1200,,,,-0.0625,0.03515625,-0.986328125,0.026615926971421035,0.9240074583128911,22.83366425902767,0.31834993232707953,1588,0,7.269095471640714,4.425780662974974,60.88488836391671,0.20877841191790572,0.1271145030241751,0.099609375,,
1.962929999999702,1200,,,,-0.041015625,0.01171875,-0.955078125,0.026615926971421035,0.9240074583128911,22.833730350283822,0.3199864678533243,1588,0,7.30648472270257,4.425100849063421,60.564019730498195,0.2088104858691432,0.12646402386113703,0.09765625,,
1.9715149999998975,1200,,,,-0.125,0.1015625,-0.984375,0.026615926971421035,0.9240074583128911,22.83357922479157,0.3198442954650507,1588,0,7.303190060098879,4.424920394447149,60.5888708637447,0.20881900146100524,0.12652107513416963,0.09765625,,
1.9816049999997485,1200,,,,-0.03125,0.044921875,-1.029296875,0.026615926971421035,0.9240074583128911,22.833272617367122,0.3211252154735286,1587,0,7.332339589217838,4.424565310502495,60.34315864214462,0.2088357597795188,0.1260180938252831,0.099609375,,
1.9884899999997578,1200,,,,0,0.009765625,-0.953125,0.026615926971421035,0.9240074583128911,22.833203878109465,0.32231546602987926,1587,0,7.359494748928099,4.424299742596718,60.1168951610586,0.20884829511360614,0.12555311061910487,0.09765625,,
1.9967549999998881,1200,,,,-0.125,0.04296875,-0.95703125,0.026615926971421035,0.9240074583128911,22.83332520103312,0.3226541461680138,1587,0,7.367267046915933,4.4242139798159545,60.05230910786664,0.20885234360914193,0.12542065496318566,0.099609375,,
2.0043199999995993,1200,,,,-0.03125,-0.0078125,-0.947265625,0.026615926971421035,0.9240074583128911,22.833159436416146,0.32302691166752157,1587,0,7.375724976357635,4.424574365925565,59.98833172478943,0.20883533237204396,0.12527683194190833,0.09765625,,
2.0126099999998694,1200,,,,-0.125,0.0546875,-0.94140625,0.026615926971421035,0.9240074583128911,22.83290522104365,0.32316295121363836,1588,0,7.378749036013757,4.425509935411766,59.976425730323676,0.20879118379539194,0.12522548928050686,0.09765625,,
2.020929999999702,1200,,,,0,0.056640625,-0.951171875,0.026615926971421035,0.9240074583128911,22.83295889418782,0.32350472655161633,1588,0,7.386570123428526,4.425876603955671,59.91788516185331,0.20877388616913772,0.1250928973627623,0.09765625,,
2.029089999999851,1200,,,,-0.03125,0.05078125,-0.9765625,0.026615926971421035,0.9240074583128911,22.833126073723474,0.3229148164490323,1588,0,7.373154715054029,4.426029867651723,60.02898404688216,0.208766656787866,0.1253205030983973,0.09765625,,
2.037999999999767,1200,,,,-0.03125,-0.0078125,-0.970703125,0.026447668788047274,0.9240074583128911,22.83326695520421,0.32454471931892304,1588,0,7.41041621511079,4.397312371574477,59.33961391544773,0.2101300476822951,0.12469035901502014,0.09765625,,
2.04797499999986,1200,,,,-0.0625,0.00390625,-0.96484375,0.026447668788047274,0.9240074583128911,22.833311106459817,0.323703779611568,1588,0,7.391229106207836,4.396990420121407,59.489299505388196,0.21014543358667997,0.12501404638327668,0.09765625,,
2.056644999999786,1200,,,,-0.03125,0.111328125,-0.966796875,0.026447668788047274,0.9240074583128911,22.833607819471382,0.32189720232662855,1588,0,7.350074476111267,4.396888121601859,59.82100094213111,0.21015032285521515,0.1257140266151098,0.09765625,,
2.0657299999997485,1200,,,,-0.0625,0.080078125,-1.01171875,0.026447668788047274,0.9240074583128911,22.83329398828285,0.32162892594910303,1587,0,7.343847821331524,4.396429752272796,59.86548004851867,0.2101722330113912,0.12582061622096058,0.09765625,,
2.0825199999997857,1200,,,,-0.03125,0.0234375,-0.96484375,0.026447668788047274,0.9076667292366369,22.83351064256633,0.3216206156809321,1587,0,7.343727751019299,4.396215303045566,59.863538683543624,0.20646548603018436,0.12359754609784576,0.09765625,,
2.091284999999916,1200,,,,-0.03125,0.0546875,-1,0.026447668788047274,0.9076667292366369,22.833646017405126,0.3213751919184057,1587,0,7.338167371040512,4.395777275550871,59.902930163441795,0.20648605976582146,0.12369120017876271,0.09765625,,
2.0994499999997207,1200,,,,-0.0625,0,-0.95703125,0.026447668788047274,0.9076667292366369,22.833630788203333,0.3211668777198411,1587,0,7.333405907254899,4.3956273057119875,59.93977915995919,0.2064931046490568,0.12377151090718803,0.09765625,,
2.110999999999767,1200,,,,0,-0.013671875,-0.96484375,0.026447668788047274,0.9076667292366369,22.833616187036785,0.3205401392111089,1587,0,7.319090511285801,4.395567658240031,60.05620030879803,0.20649590674258061,0.12401359538279301,0.09765625,,
2.11909999999986,1200,,,,-0.03125,0.041015625,-0.97265625,0.026447668788047274,0.9076667292366369,22.833354967785294,0.3209979754068239,1587,0,7.329460716404424,4.396243825959325,59.980454170657836,0.20646414647817463,0.1238381327571814,0.09765625,,
2.1277599999997765,1200,,,,-0.03125,0.013671875,-0.94921875,0.026447668788047274,0.9076667292366369,22.83308233463828,0.32013678343109614,1587,0,7.309709534428483,4.396606877265648,60.14749090313069,0.2064470976311478,0.12417274926747193,0.09765625,,
2.1357799999997953,1200,,,,-0.0625,0.08984375,-0.98046875,0.026447668788047274,0.9076667292366369,22.83322082221303,0.3208173550209973,1588,0,7.325293510792745,4.39674063238148,60.021357859634264,0.2064408172162301,0.12390858166970692,0.09765625,,
2.144714999999851,1200,,,,-0.03125,0.068359375,-0.958984375,0.026447668788047274,0.9076667292366369,22.8332997468007,0.31990366682061216,1588,0,7.3044563146157,4.397632328759997,60.20478649397418,0.2063989577529262,0.12426205184093717,0.09765625,,
2.1524799999997484,1200,,,,-0.03125,-0.03125,-1.001953125,0.026447668788047274,0.9076667292366369,22.833236504900086,0.31913311701352204,1588,0,7.286841937315702,4.397935436172978,60.3544783049469,0.2063847326568477,0.12456242869609982,0.099609375,,
2.160149999999907,1200,,,,-0.0625,0.087890625,-0.98046875,0.026447668788047274,0.9076667292366369,22.833176526465657,0.31903482880676143,1588,0,7.2845785642355345,4.398055526662717,60.37487945089192,0.2063790972474107,0.1246011311749632,0.099609375,,
2.1677799999997953,1200,,,,0.0625,0.0078125,-0.95703125,0.026447668788047274,0.9076667292366369,22.83324945121873,0.3191530614139412,1588,0,7.28730146438465,4.397314855637273,60.342156518820346,0.20641385914702598,0.12455457396303579,0.099609375,,
2.1755349999996834,1200,,,,-0.0625,0.03515625,-0.990234375,0.026447668788047274,0.9076667292366369,22.833194603270385,0.3190632431474603,1587,0,7.285233121536538,4.396297761201947,60.34532715508654,0.2064616135073801,0.12458993612069888,0.099609375,,
2.1847899999995715,1200,,,,-0.0625,0.03125,-0.984375,0.026240729625933077,0.9076667292366369,22.83312862772278,0.31895512682970145,1587,0,7.282743437374206,4.361408369150463,59.88688749857937,0.20811321766079816,0.12463252853019578,0.09765625,,
2.194564999999711,1200,,,,-0.0625,0.044921875,-0.953125,0.026240729625933077,0.9076667292366369,22.833139944823905,0.3190925405961419,1587,0,7.2858846347811115,4.360542283886462,59.84918101873657,0.20815455283870157,0.12457879512717618,0.09765625,,
2.203824999999721,1200,,,,0,0.009765625,-0.978515625,0.026240729625933077,0.9076667292366369,22.833071027048675,0.31976011863517406,1586,0,7.30110550041444,4.3587750351505425,59.700206152385014,0.2082389483093128,0.12431908143021822,0.09765625,,
2.211589999999851,1200,,,,-0.125,0.150390625,-1,0.026240729625933077,0.9076667292366369,22.833084016670416,0.31984340543633805,1586,0,7.303011348505886,4.358248248722831,59.67741306624808,0.20826411838807607,0.12428663819923207,0.099609375,,
2.219739999999758,1200,,,,-0.0625,-0.013671875,-0.962890625,0.026240729625933077,0.8867859100964472,22.83322678533547,0.3193904579458022,1586,0,7.292714759348652,4.358433020385922,59.76420529541176,0.2034643886802064,0.12159887495389309,0.099609375,,
2.228844999999739,1200,,,,0.0625,0.03125,-0.87890625,0.026240729625933077,0.8867859100964472,22.833159249525412,0.3183089303835727,1586,0,7.267998497994214,4.3593393450369,59.979915326619405,0.20342208759362848,0.12201239589429992,0.099609375,,
2.237814999999944,1200,,,,-0.09375,0.0625,-0.98828125,0.026240729625933077,0.8867859100964472,22.833388574356665,0.31895854794022516,1587,0,7.28290446423173,4.359663481215373,59.861604702173885,0.20340696338544734,0.12176267235849206,0.099609375,,
2.2454899999997577,1200,,,,-0.03125,0.02734375,-1.009765625,0.026240729625933077,0.8867859100964472,22.833418688399256,0.318225601849274,1587,0,7.266178404392314,4.359773373942309,60.00091287748839,0.20340183629649866,0.12204295858747373,0.099609375,,
2.2533449999997393,1200,,,,0,0.09375,-0.94921875,0.026240729625933077,0.8867859100964472,22.833605309999392,0.3192067428380635,1587,0,7.288640778254817,4.361742870508962,59.843021534576614,0.20330999245560066,0.1216668425671512,0.099609375,,
2.266364999999758,1200,,,,-0.03125,0.009765625,-0.97265625,0.026240729625933077,0.8867859100964472,22.833724489749397,0.3191022518421032,1588,0,7.286292902621212,4.362555334671005,59.87345544538286,0.20327212884815424,0.12170604749878089,0.099609375,,
2.283274999999674,1200,,,,0.0625,0.04296875,-0.88671875,0.026240729625933077,0.8867859100964472,22.83328953236861,0.33328394506454356,1589,0,7.609968814148758,4.366654399350567,57.380713456169616,0.20308131328834608,0.11652950646101196,0.099609375,,
2.291924999999814,1200,,,,-0.09375,0.060546875,-1.005859375,0.026240729625933077,0.8867859100964472,22.833225287441103,0.33280207165217923,1589,0,7.598944678161325,4.367631210187072,57.476812836119805,0.2030358946121884,0.11669856113638902,0.099609375,,
2.2997199999999722,1200,,,,-0.0625,0.03515625,-0.93359375,0.026240729625933077,0.8867859100964472,22.83326356409571,0.3304186001520114,1590,0,7.544534983750431,4.368009647220042,57.89634028641855,0.2030183039226641,0.11754016808278102,0.099609375,,
2.3089149999998044,1200,,,,-0.03125,0.046875,-0.939453125,0.026240729625933077,0.8867859100964472,22.8334134289677,0.3306403307128099,1597,0,7.549647367456195,4.387810228512393,58.119406310639874,0.2021021566370467,0.117460573578451,0.099609375,,
2.3168099999995904,1200,,,,0,0.05078125,-1.046875,0.026240729625933077,0.8867859100964472,22.83327876051532,0.32912516943642084,1599,0,7.515006740843634,4.394542492335722,58.4768935528911,0.20179254419385895,0.11800201126591361,0.1015625,,
2.3258849999997766,1200,,,,-0.0625,0.09765625,-1,0.026240729625933077,0.8867859100964472,22.833281829453036,0.32724975470811596,1600,0,7.472185877869787,4.397371821622446,58.84987195843251,0.20166270810578404,0.1186782455081614,0.1015625,,
2.334969999999739,1200,,,,-0.0625,-0.015625,-0.96875,0.02615257487848286,0.8867859100964472,22.833651901078934,0.32669134219246,1600,0,7.4595563867188925,4.3806540724829155,58.72539659707243,0.20243230700794068,0.11887917513101641,0.1015625,,
2.342689999999944,1200,,,,0,0.052734375,-0.927734375,0.02615257487848286,0.8867859100964472,22.83376672967326,0.32601050762959927,1599,0,7.444047882636634,4.379999132027964,58.838943557098624,0.20246257667312834,0.11912684121294949,0.099609375,,
2.3506949999998326,1200,,,,-0.1875,0.12109375,-1.0546875,0.02615257487848286,0.8867859100964472,22.83380988541775,0.32641669308996313,1599,0,7.4533367134429716,4.379742375916293,58.762169808012445,0.20247444575114337,0.1189783776301189,0.1015625,,
2.358989999999758,1200,,,,-0.03125,0.0546875,-1.015625,0.02615257487848286,0.8867859100964472,22.834016818316705,0.3240284872785888,1597,0,7.398871928133017,4.372507183881533,59.09694378214305,0.20280948042016378,0.11985420462876062,0.1015625,,
2.366659999999916,1200,,,,0.0625,0.0703125,-0.96875,0.02615257487848286,0.8661219322340273,22.833786567024198,0.323260980067392,1596,0,7.381272224305893,4.369673924350921,59.19946848677334,0.1982120284553458,0.11734046732241665,0.099609375,,
2.374679999999702,1200,,,,-0.09375,-0.005859375,-0.970703125,0.02615257487848286,0.8661219322340273,22.833796997345186,0.3232784188998248,1595,0,7.381673790781318,4.368561872098203,59.18118296630676,0.19826248490742615,0.11733408394661018,0.099609375,,
2.382359999999637,1200,,,,0,0.013671875,-0.935546875,0.02615257487848286,0.8661219322340273,22.833710083629,0.3223492032000449,1594,0,7.360428251558639,4.3650030200398735,59.30365558709908,0.198424131268096,0.11767276340892502,0.1015625,,
2.391069999999832,1200,,,,-0.0625,0.12109375,-0.9453125,0.02615257487848286,0.8661219322340273,22.834019975056037,0.3220910055468363,1593,0,7.354632454442345,4.361995797912692,59.30950084769987,0.19856092769472294,0.11776549509430241,0.099609375,,
2.3990249999999067,1200,,,,-0.09375,0.0546875,-1.046875,0.02615257487848286,0.8661219322340273,22.83411923029518,0.32205873331032087,1592,0,7.3539275155657045,4.3608027164509755,59.2989624553774,0.19861525240906053,0.11777678395670187,0.1015625,,
2.4064899999997578,1200,,,,0,0.029296875,-0.96484375,0.02615257487848286,0.8661219322340273,22.83420974832799,0.32056741786276066,1592,0,7.319903657958181,4.359058367902439,59.5507614798083,0.1986947315529527,0.11832422566004426,0.1015625,,
2.4164999999997674,1200,,,,-0.0625,0.11328125,-0.9296875,0.02615257487848286,0.8661219322340273,22.83410068648829,0.3210394168755533,1590,0,7.330646369267873,4.355728701545853,59.41807150603103,0.19884662052681096,0.11815082717194673,0.1015625,,
2.4239799999997484,1200,,,,-0.0625,-0.03515625,-1,0.02615257487848286,0.8661219322340273,22.834215614097847,0.32158921671834956,1590,0,7.343237513715634,4.354286353085764,59.29654794568291,0.19891248806368242,0.11794823885463224,0.1015625,,
2.432779999999795,1200,,,,0,0.095703125,-0.978515625,0.02615257487848286,0.8661219322340273,22.834105403475334,0.3226613432827888,1590,0,7.367683122146137,4.353854774639082,59.09394720780071,0.19893220538248788,0.11755689242804107,0.1015625,,
2.4409199999996924,1200,,,,-0.125,0.12109375,-0.9921875,0.02615257487848286,0.8661219322340273,22.834132778744756,0.3219649123584346,1589,0,7.351789558889414,4.351736252043043,59.19288381671838,0.19902905003201937,0.11781103434697152,0.1015625,,
2.4484499999997205,1200,,,,-0.03125,0.017578125,-0.9921875,0.02615257487848286,0.8661219322340273,22.834028853722785,0.32490156161724865,1589,0,7.418811632587847,4.350900489617675,58.64686563149715,0.19906728142847868,0.11674672105563416,0.1015625,,
2.4569149999998046,1200,,,,-0.03125,0.013671875,-0.935546875,0.02615257487848286,0.8661219322340273,22.833830154838513,0.3267655880637601,1589,0,7.461309938293825,4.350567106853665,58.308355273182876,0.19908253589964908,0.11608175231922922,0.1015625,,
2.465939999999711,1200,,,,-0.0625,0.12109375,-0.94140625,0.02615257487848286,0.8661219322340273,22.83380304379839,0.33097851305863113,1590,0,7.557498178910037,4.355117269931391,57.6264415396723,0.19887453736640068,0.11460431901274262,0.1015625,,
2.4739249999995807,1200,,,,-0.0625,0.06640625,-1.041015625,0.02615257487848286,0.8661219322340273,22.833845923130518,0.32942439507259347,1592,0,7.5220258804080755,4.358915205251463,57.9486866245,0.19870125741160438,0.11514476897639171,0.1015625,,
2.4827099999999627,1200,,,,0,0.01953125,-0.9765625,0.025921519262057643,0.8661219322340273,22.833890863085117,0.3270837374315362,1592,0,7.468594363601685,4.321946877295033,57.86827703962757,0.20040087414866725,0.11596853304218616,0.1015625,,
2.491029999999795,1200,,,,0,0.025390625,-0.953125,0.025921519262057643,0.8661219322340273,22.833993944976445,0.3259592939996081,1594,0,7.4429525454958485,4.327143104128528,58.13745388914413,0.2001602238224246,0.11636805782916977,0.1015625,,
2.4995699999998324,1200,,,,-0.09375,0.046875,-0.98046875,0.025921519262057643,0.8661219322340273,22.833958178476337,0.32500963360251234,1596,0,7.421256381281684,4.331772074107053,58.36979416359871,0.1999463308356474,0.11670826174643548,0.1015625,,
2.5070949999997394,1200,,,,0,0,-0.97265625,0.025921519262057643,0.8661219322340273,22.833732191765648,0.324835340671653,1596,0,7.417203175317484,4.333366029795062,58.4231809129265,0.1998727839464299,0.11677203816072547,0.1015625,,
2.5148799999998883,1200,,,,-0.125,0.18359375,-0.9765625,0.025921519262057643,0.8661219322340273,22.83383188909518,0.3244956453657447,1596,0,7.409479015024862,4.332245769245392,58.46896604282852,0.19992446836295066,0.11689376951843908,0.1015625,,
2.5228549999997485,1200,,,,-0.03125,0.00390625,-0.966796875,0.025921519262057643,0.8467419238231079,22.833740553798012,0.3234782504668462,1594,0,7.386218445956457,4.328053169480629,58.5963331730325,0.19564037008462115,0.11463808307573842,0.1015625,,
2.5300099999997765,1200,,,,-0.03125,0.068359375,-0.966796875,0.025921519262057643,0.8467419238231079,22.83391000565101,0.3229727644542846,1594,0,7.374731037825455,4.326469592111208,58.66613399079201,0.19571197850715022,0.11481665154703484,0.1015625,,
2.536934999999823,1200,,,,-0.125,0.08984375,-0.96484375,0.025921519262057643,0.8467419238231079,22.833999375653764,0.322722159101855,1594,0,7.369037579441391,4.325860435127503,58.70319412125219,0.19573953818465029,0.1149053610725778,0.1015625,,
2.544899999999674,1200,,,,-0.03125,0.060546875,-1,0.025921519262057643,0.8467419238231079,22.834267631960053,0.322471131356916,1593,0,7.363392116984766,4.322997078586359,58.70931508067755,0.1958691871473567,0.11499345822830362,0.1015625,,
2.552904999999562,1200,,,,0,0.078125,-0.98828125,0.025921519262057643,0.8467419238231079,22.834157472160285,0.3224213365218815,1592,0,7.362219570525026,4.321724365679416,58.70137835852699,0.1959268690403841,0.11501177270141152,0.099609375,,
2.560929999999702,1200,,,,-0.03125,0.017578125,-0.93359375,0.025921519262057643,0.8467419238231079,22.834051828238138,0.32184211382711864,1592,0,7.3489595076381455,4.321216602255353,58.800386609343725,0.19594989137576943,0.11521929368954151,0.099609375,,
2.570399999999674,1200,,,,0,-0.01171875,-0.94140625,0.025921519262057643,0.8467419238231079,22.833886457172788,0.3220348932012495,1591,0,7.353308186605096,4.31927266631587,58.739176391163994,0.19603808076912582,0.11515115405682935,0.099609375,,
2.5785449999996928,1200,,,,-0.125,0.078125,-0.970703125,0.025921519262057643,0.8467419238231079,22.83376987805253,0.3233401728019637,1590,0,7.383075098089778,4.316457499241762,58.46422313052943,0.1961659356015548,0.11468689029618367,0.099609375,,
2.58805999999959,1200,,,,-0.03125,0.056640625,-0.9921875,0.025921519262057643,0.8467419238231079,22.833528282867505,0.3227643227695383,1590,0,7.369848292658829,4.3156000184327015,58.557514986183755,0.19620491245864335,0.1148927210165988,0.1015625,,
2.6019199999996925,1200,,,,-0.03125,0.01953125,-0.978515625,0.025921519262057643,0.8467419238231079,22.83339539645917,0.32227215774797735,1589,0,7.35856760312963,4.314576042274081,58.63336827182336,0.19625147767167783,0.11506885164213004,0.1015625,,
2.6090149999998977,1200,,,,-0.0625,0.0234375,-0.99609375,0.025921519262057643,0.8467419238231079,22.833404600053104,0.3220386134229248,1589,0,7.353237957125734,4.313406470844842,58.659960360250395,0.19630469086240823,0.11515225384520074,0.1015625,,
2.6162599999997767,1200,,,,0.0625,0.13671875,-0.9921875,0.025921519262057643,0.8467419238231079,22.833258409554304,0.32154702931943757,1589,0,7.341966411275252,4.312927849539499,58.743497422107815,0.19632647550863072,0.11532903807932762,0.1015625,,
2.624124999999767,1200,,,,-0.09375,0.056640625,-1.00390625,0.025921519262057643,0.8467419238231079,22.833025278202527,0.3207732672101655,1588,0,7.3242241187813235,4.3118000443127755,58.870400118643765,0.19637782715363916,0.11560841258964603,0.1015625,,
2.6325299999997953,1200,,,,0,0.03515625,-0.96484375,0.025202998903021415,0.8467419238231079,22.833105856393953,0.32037963700712563,1588,0,7.315262166016769,4.190843675920632,57.28904283689653,0.20204569516353962,0.11575004485234561,0.1015625,,
2.640704999999609,1200,,,,-0.03125,0.015625,-0.921875,0.025202998903021415,0.8467419238231079,22.833154346523745,0.321967256441109,1588,0,7.351528060846634,4.190248169314287,56.998329253900984,0.20207440934498946,0.11517903717633277,0.1015625,,
2.6500149999998976,1200,,,,-0.0625,0.025390625,-1.005859375,0.025202998903021415,0.8467419238231079,22.83309694367027,0.32280574998121664,1588,0,7.370654983295307,4.189915411966802,56.84590340292329,0.20209045781801022,0.11488014643775152,0.099609375,,
2.6581299999996553,1200,,,,0,0.03125,-1.001953125,0.025202998903021415,0.8467419238231079,22.833331827431696,0.3220085520419513,1587,0,7.352528120044682,4.189511478683311,56.98055703128478,0.20210994244350985,0.11516337101992098,0.099609375,,
2.6670749999997208,1200,,,,0,0.0625,-0.98046875,0.025202998903021415,0.8377105984159877,22.833259334901822,0.32221423685089945,1587,0,7.3572012314140665,4.189369152191834,56.94242987814309,0.1999610366104181,0.11386267305549536,0.099609375,,
2.6746349999997765,1200,,,,-0.0625,0.0390625,-0.96875,0.025202998903021415,0.8377105984159877,22.833295597078763,0.3222830009975425,1587,0,7.358783027690517,4.189320399923395,56.92952739820314,0.19996336361174616,0.11383819787371759,0.099609375,,
2.6830549999999347,1200,,,,0,-0.04296875,-0.9609375,0.025202998903021415,0.8377105984159877,22.8332319772231,0.3216021853107818,1588,0,7.343217301582972,4.191560956271338,57.080715225024946,0.19985647522616132,0.11407950548261768,0.099609375,,
2.691064999999944,1200,,,,-0.09375,0.091796875,-0.994140625,0.025202998903021415,0.8377105984159877,22.83317148316596,0.3217011885864508,1588,0,7.345458405332742,4.192442306082462,57.075298432549616,0.19981446070244635,0.11404469975731082,0.099609375,,
2.698689999999944,1200,,,,-0.03125,0.04296875,-1.00390625,0.025202998903021415,0.8377105984159877,22.83311480047555,0.32126861037838406,1589,0,7.335563062558894,4.192787254453665,57.15699284017985,0.19979802159676815,0.11419854089888579,0.1015625,,
2.7067949999996928,1200,,,,-0.03125,0.013671875,-0.96875,0.025202998903021415,0.8377105984159877,22.83305936539969,0.3217091643663954,1589,0,7.345604448371033,4.194191964771552,57.09798280387477,0.19973110564614222,0.1140424323558232,0.1015625,,
2.7147749999999067,1200,,,,-0.0625,0.015625,-0.98046875,0.025202998903021415,0.8377105984159877,22.833007573433736,0.31957162412082396,1590,0,7.296781313805293,4.195362350510056,57.4960680618529,0.19967538639758783,0.11480549606592488,0.1015625,,
2.7254699999997394,1200,,,,-0.03125,0.021484375,-0.978515625,0.025202998903021415,0.8377105984159877,22.83295900704678,0.3200804934087593,1590,0,7.308384784957509,4.195821167269023,57.41105990895659,0.19965355171732377,0.11462322018679236,0.1015625,,
2.733749999999767,1200,,,,-0.0625,0.11328125,-0.974609375,0.025202998903021415,0.8377105984159877,22.833168887552308,0.31987520123117846,1590,0,7.303764492651278,4.19544948872592,57.442288739556076,0.19967123920025667,0.1146957297512611,0.1015625,,
2.74220999999973,1200,,,,-0.03125,0.02734375,-0.955078125,0.025202998903021415,0.8377105984159877,22.83330539423055,0.3197419106303348,1590,0,7.300764692757206,4.195109233374524,57.46123056857759,0.1996874340604804,0.11474285690196899,0.1015625,,
2.7502249999996273,1200,,,,-0.0625,0.09375,-0.9375,0.025202998903021415,0.8377105984159877,22.833374643156212,0.31982874053789284,1589,0,7.30276945435051,4.194968903122798,57.44353466647796,0.19969411401175902,0.1147113576092608,0.099609375,,
2.75797499999986,1200,,,,-0.0625,0.0390625,-0.984375,0.025202998903021415,0.8377105984159877,22.833496982881492,0.31909479094522597,1589,0,7.286049946301017,4.193819711603096,57.559579504834645,0.19974883424251233,0.11497458905579926,0.1015625,,
2.766324999999721,1200,,,,-0.125,0.09375,-0.9921875,0.025202998903021415,0.8377105984159877,22.833556614981102,0.32076460622838904,1588,0,7.3241967963980406,4.191018199240393,57.22153999605103,0.19988235760174458,0.114375763200132,0.1015625,,0.2533499999998603,5898,
2.774744999999879,1200,,,,-0.03125,0.099609375,-0.99609375,0.025202998903021415,0.8377105984159877,22.833544972493648,0.3203461361164778,1588,0,7.314637905780167,4.189935538006966,57.28151676101423,0.19993400633902425,0.11452523135205542,0.1015625,,
2.784619999999879,1500,,,,0,0.01953125,-0.97265625,0.025193201086799757,0.8377105984159877,22.833685467321718,0.3205332008525489,1587,0,7.318954290100959,4.18788386878701,57.21970247103758,0.2000319551980854,0.11445768961134367,0.1015625,,
2.791174999999814,1500,,,,-0.03125,0.017578125,-0.970703125,0.025193201086799757,0.8377105984159877,22.833730678970504,0.32077579710794074,1587,0,7.324508159494805,4.188116514610345,57.17949141992919,0.2000208436163641,0.11437090111368887,0.1015625,,
2.798964999999851,1500,,,,-0.0625,0.015625,-0.984375,0.025193201086799757,0.8377105984159877,22.833830579064394,0.32061431094942633,1588,0,7.320852857442671,4.188210180909198,57.20932058689441,0.20001637029451402,0.11442800650805839,0.1015625,,
2.8070749999997204,1500,,,,0.28125,-0.138671875,-1.205078125,0.025193201086799757,0.8377105984159877,22.825420897726342,0.6042056274319562,1588,0,13.791247754909229,4.188255321427706,30.368936849363937,0.2000142145418265,0.0607421905039586,0.103515625,,
2.816019999999786,1500,,,,-0.59375,0.0703125,-0.6171875,0.025193201086799757,0.8377105984159877,22.800301822369782,1.300807774548053,1605,0,29.658809872580754,4.233860135996781,14.275219249141005,0.19785977134522534,0.028244916165379986,0.11328125,,
2.8241299999998883,1500,,,,0.5,-0.34765625,-1.23828125,0.025193201086799757,0.8336576738179086,22.78148566060557,1.8603408132011905,1620,0,42.38132755978222,4.274193018952156,10.085085260538543,0.19504446105297432,0.01967040019315035,0.12109375,,
2.8321449999997856,1500,,,,-0.40625,0.6328125,-0.962890625,0.025193201086799757,0.8336576738179086,22.76489121849185,2.2686727173957384,1705,0,51.64608762187429,4.4980706988724215,8.709412282697865,0.18533672092501574,0.016141739136592788,0.12890625,,
2.8402399999999908,1500,,,,-0.09375,0.322265625,-0.9609375,0.025193201086799757,0.8336576738179086,22.75054556066058,2.6961238122324325,1908,0,61.33828762737585,5.033496483559237,8.206124882613679,0.16562198395108854,0.013591146836088709,0.13671875,,
2.8494449999998324,1500,,,,-0.125,1.03125,-0.50390625,0.025193201086799757,0.8336576738179086,22.739013082506883,3.004589285724197,1981,0,68.32139507564253,5.2251148350262495,7.647845640799966,0.15954820135808948,0.012202000162539398,0.146484375,,
2.8584949999998788,1500,,,,-0.03125,-0.021484375,-1.09375,0.025193201086799757,0.8336576738179086,22.72986878841347,3.2737745931903417,2266,0,74.41246694605815,5.9774377751623105,8.032844522538642,0.13946739475598666,0.01120319898038362,0.150390625,,
2.866189999999944,1500,,,,0.03125,0.2265625,-0.833984375,0.025193201086799757,0.8336576738179086,22.723716737595737,3.440107199198363,2416,0,78.17202154154744,6.375116737437276,8.155240982285436,0.13076743660587922,0.010664399581566788,0.15234375,,
2.8775999999996276,1500,,,,0.125,0.6015625,-1.19921875,0.025193201086799757,0.8336576738179086,22.718398249167194,3.584126795426773,2596,0,81.42561991401682,6.8479585397028355,8.410078482588267,0.12173813100423427,0.01023827236069222,0.158203125,,
2.8945699999998324,1500,,,,-0.375,0.458984375,-1.037109375,0.025193201086799757,0.8336576738179086,22.71034187141476,3.7902062134684393,2904,0,86.07687887102868,7.660521984600778,8.899627966388914,0.10882517868804914,0.009685036036994329,0.166015625,,
2.9032649999998976,1500,,,,0,-0.4609375,-1.0078125,0.025193201086799757,0.8336576738179086,22.707885585680504,3.845603587980261,3029,0,87.3255262837382,7.99177545600497,9.151706031565254,0.10431445157677739,0.009546551956746153,0.169921875,,
2.9124449999998325,1500,,,,-0.1875,0.17578125,-0.92578125,0.025193201086799757,0.8336576738179086,22.706224328926023,3.8858697298084333,4356,0,88.23342979801343,11.491560849331071,13.024044147028956,0.0725452081530279,0.009448319936404402,0.173828125,,
2.920089999999618,1500,,,,-0.09375,0.173828125,-0.986328125,0.025193201086799757,0.8336576738179086,22.704931181932537,3.912945508321313,5766,0,88.84315848508744,15.212884077801382,17.12330396307883,0.05479944956882834,0.009383476319764567,0.177734375,,
2.9283649999999906,1500,,,,-0.4375,0.02734375,-1.04296875,0.025193201086799757,0.8336576738179086,22.70429706548588,3.925082531577249,6157,0,89.11623980347922,16.24416184033572,18.228060201101,0.051320448664077034,0.009354722277963095,0.1796875,,
2.9373249999997206,1500,,,,0.40625,0.263671875,-0.92578125,0.025189180384054405,0.8336576738179086,22.70362852523319,3.9379303927907703,4924,0,89.40530879614727,12.988546991981723,14.527713361626951,0.06418405956667471,0.009324476197702403,0.18359375,,
2.9449399999997112,1500,,,,-0.21875,-0.076171875,-0.8984375,0.025189180384054405,0.8336576738179086,22.70331833465047,3.935633637939573,4814,0,89.35194333070064,12.698643362134616,14.211938642605283,0.06564934930795413,0.009330045242916056,0.19140625,,
2.9526149999997577,1500,,,,0.21875,-0.130859375,-1.208984375,0.025189180384054405,0.8336576738179086,22.70354361051774,3.9201784955877894,5970,0,89.0019434355912,15.748971202488592,17.695086865025353,0.05293410363758727,0.009366735619893611,0.1953125,,
2.961454999999842,1500,,,,-0.8125,-0.015625,-0.421875,0.025189180384054405,0.8336576738179086,22.70410446316074,3.8994680442963383,6445,0,88.53392982846117,17.000127648608675,19.20182203766088,0.04903831847910488,0.009416250644619087,0.203125,,
2.9703649999997577,1500,,,,-0.03125,0.732421875,-0.87109375,0.025189180384054405,0.8324637183473744,22.704759093469416,3.871077837656886,4562,0,87.89188973606811,12.033716072106259,13.691497711839498,0.06917761008812537,0.009471450902320934,0.2109375,,
2.9783799999996554,1500,,,,-0.28125,-0.068359375,-1.119140625,0.025189180384054405,0.8324637183473744,22.705440810132675,3.8439898608110807,3933,0,87.27948425939613,10.373844517718037,11.885776601161842,0.08024640401401482,0.00953790831157157,0.21875,,
2.9863299999998416,1500,,,,0.5625,0.1875,-1.26953125,0.025189180384054405,0.8324637183473744,22.706366560594134,3.813120239947242,3691,0,86.58210590786274,9.735414281193252,11.244141245020415,0.08550881290748119,0.009614731700257435,0.22265625,,
2.994409999999683,1500,,,,-0.46875,-0.416015625,-0.845703125,0.025189180384054405,0.8324637183473744,22.70712533824814,3.78436958067252,3607,0,85.93215439458447,9.513886372659973,11.071392821101606,0.08749985923098923,0.009687453133373752,0.228515625,,
3.0030749999997206,1500,,,,0.5625,0.40625,-1.42578125,0.025189180384054405,0.8324637183473744,22.708132779527347,3.755764053214114,3572,0,85.28638880896192,9.423011103322686,11.048669353828373,0.08834370555435682,0.009760803921620596,0.236328125,,
3.0204099999996834,1500,,,,0.15625,0.53515625,-1.1796875,0.025189180384054405,0.8324637183473744,22.71022142693052,3.6862004210099792,3611,0,83.71442778518113,9.525281762672636,11.378303614659327,0.08739518043546031,0.009944088974526021,0.240234375,,
3.0296899999997113,1500,,,,-0.5,-0.203125,-0.892578125,0.025189180384054405,0.8324637183473744,22.711059247455538,3.661501899621921,3610,0,83.15658657698444,9.523619732977746,11.452634271082063,0.0874104323448337,0.010010797131225423,0.248046875,,
3.0466949999998323,1500,,,,-0.625,-0.67578125,-0.515625,0.025189180384054405,0.8324637183473744,22.71327386748942,3.5882717673466185,3626,0,81.50139936272403,9.563583278657935,11.734256532326478,0.08704516854107372,0.010214103375605535,0.26171875,,
3.053499999999767,1500,,,,0.40625,0.08203125,-1.1875,0.025189180384054405,0.8324637183473744,22.71404967430541,3.560928748859183,3628,0,80.88311248824971,9.569312228548187,11.831038561898033,0.08699305639373751,0.010292182048116789,0.263671875,,
3.0857949999999255,1500,,,,-0.25,0.12890625,-1.01953125,0.025189180384054405,0.8324637183473744,22.717205434450634,3.451199228545374,3654,0,78.4016018700828,9.638976086955664,12.294361157222468,0.08636433069628005,0.010617942726818616,0.2734375,,
3.1051649999998046,1500,,,,0.01953125,0.033203125,-1.029296875,0.09538237360597643,0.8324637183473744,22.719573259423456,3.381136800263083,3668,0,76.81798523370972,36.636825685273095,47.693031226749625,0.022722048179026594,0.01083683353338025,0.2890625,,
3.1139449999998323,1500,,,,0,0.09765625,-0.9609375,0.09538237360597643,0.8324637183473744,22.720257423821593,3.354280674489064,3662,0,76.21012039614145,36.573162524846516,47.98990256771492,0.022761600607599297,0.01092326995443931,0.2890625,,
3.122269999999786,1500,,,,0,0.162109375,-0.9921875,0.09538237360597643,3.06955437057729,22.721024409774717,3.33031796360171,3674,0,75.66823574330569,36.695670748705645,48.495475529772854,0.08364895116913924,0.040565956645141565,0.29296875,,
3.131589999999851,1500,,,,0.0625,0.171875,-1.052734375,0.09538237360597643,3.06955437057729,22.721773054642224,3.306561154545701,3673,0,75.13093214488319,36.68266650734668,48.82498520929766,0.08367860526067616,0.040856066641871726,0.296875,,
3.140054999999702,1500,,,,-0.4375,-0.041015625,-0.861328125,0.09538237360597643,3.06955437057729,22.722916599843668,3.2810807810329305,3677,0,74.55572494476121,36.72644700936884,49.26039822774131,0.08357885449126765,0.0411712765565829,0.298828125,,
3.1479799999997486,1500,,,,0.3125,0.35546875,-1.2578125,0.09538237360597643,3.06955437057729,22.723692407083718,3.258977395016456,3681,0,74.0559998859929,36.76431956214272,49.64394460778375,0.0834927562140467,0.041449097646413274,0.302734375,,
3.1561049999997484,1500,,,,-0.21875,-0.001953125,-0.853515625,0.09538237360597643,3.06955437057729,22.724704176401463,3.2402073540946565,3677,0,73.63275359200158,36.725378531612,49.876416051349906,0.08358128611077809,0.04168735000168081,0.3046875,,
3.164199999999721,1500,,,,0.0625,0.12109375,-0.9296875,0.09538237360597643,3.06955437057729,22.725311941895573,3.2203835133547023,3687,0,73.18421991352324,36.824197020037374,50.31712719429133,0.0833569940142085,0.041942844703467104,0.3046875,,
3.172304999999702,1500,,,,0.09375,0.158203125,-0.9140625,0.09538237360597643,3.06955437057729,22.72583780719173,3.198450482582398,3690,0,72.6874669015017,36.85403119572644,50.70204364896509,0.08328951463342854,0.042229486064452114,0.30859375,,
3.1828899999996647,1500,,,,0.125,0.09765625,-1.06640625,0.09538237360597643,3.06955437057729,22.726462258494806,3.1783281285364535,3689,0,72.23215425829613,36.844768093491815,51.00881798670716,0.08331045435781939,0.04249567802727883,0.3125,,
3.1995749999997205,1500,,,,0.375,0.18359375,-1.40625,0.09538237360597643,3.06955437057729,22.72598030501562,3.1832687921696543,3682,0,72.34290387641843,36.77444073443357,50.83351478018414,0.08346977708632092,0.0424306214721617,0.318359375,,
3.207399999999674,1500,,,,-0.21875,0.05859375,-0.8515625,0.09538237360597643,3.06955437057729,22.725981351104092,3.1720710568517387,3685,0,72.08842768238966,36.80711858702667,51.05829017272103,0.08339567150087128,0.042580403946404076,0.31640625,,
3.2165749999997204,1500,,,,0.375,0.158203125,-1.05078125,0.09538237360597643,3.06955437057729,22.72660844970669,3.145739215816428,3709,0,71.49198344274733,37.050204922037494,51.82427894409767,0.08284851263404257,0.042935644288502224,0.318359375,,
3.2244799999997484,1500,,,,-0.75,-0.328125,-0.63671875,0.09538237360597643,3.06955437057729,22.727396063623278,3.1245135008228075,3712,0,71.01205583933806,37.07727466574582,52.21264787718817,0.08278802577183825,0.04322582038072569,0.32421875,,
3.233399999999674,1500,,,,0.3125,0.30078125,-1.2265625,0.12065190587865303,3.06955437057729,22.72830483851168,3.1009200494270277,3707,0,70.47865616323018,46.83132505376318,66.44752837696105,0.06554489686237551,0.04355296394227682,0.32421875,,
3.2412499999997673,1500,,,,-0.46875,-0.025390625,-0.884765625,0.12065190587865303,3.06955437057729,22.729071361548243,3.082185460386563,3705,0,70.05521327865262,46.80794903844999,66.81579692330108,0.06557763015969426,0.04381621619461477,0.330078125,,
3.2494499999997206,1500,,,,0.125,0.224609375,-1.03125,0.12065190587865303,3.06955437057729,22.729814712358067,3.0662417805784394,3705,0,69.69510753583882,46.80848380211643,67.16179292505782,0.06557688096785783,0.04404260900234432,0.33203125,,
3.2575649999997114,1500,,,,-0.5,-0.2265625,-0.5234375,0.12065190587865303,3.06955437057729,22.730441243764922,3.0483747205771388,3717,0,69.29090247505697,46.96585998313903,67.78070180287462,0.06535714179787774,0.04429952938890144,0.333984375,,
3.2652699999997856,1500,,,,0.40625,0.134765625,-1.16015625,0.12065190587865303,4.448041653759208,22.7307104700145,3.033395263185132,3715,0,68.95122946857467,46.93383581963396,68.06816380413436,0.09477260010992851,0.06450996868426334,0.3359375,,
3.2733449999997393,1500,,,,-0.375,-0.056640625,-0.8515625,0.12065190587865303,4.448041653759208,22.731261472429274,3.0196621865549864,3699,0,68.6407307209889,46.731762985558206,68.0816805047045,0.09518240634606087,0.06480178178521474,0.33984375,,
3.2814899999997578,1500,,,,0.625,0.21484375,-1.296875,0.12065190587865303,4.448041653759208,22.73183280168517,3.0064732604532884,3704,0,68.34264747936142,46.79875920766428,68.47665540290474,0.09504614500614254,0.0650844211896014,0.341796875,,
3.290779999999795,1500,,,,-0.4375,0.0625,-0.740234375,0.12065190587865303,4.448041653759208,22.7321301800966,2.9948378794593014,3705,0,68.07904454415329,46.805179302338075,68.751228246134,0.09503310787524348,0.06533642890470341,0.34375,,
3.299494999999879,1500,,,,0.21875,-0.005859375,-1.09375,0.12065190587865303,4.448041653759208,22.73242075149247,2.981153161909916,3703,0,67.76882800117836,46.78662623677836,69.03856480440363,0.0950707929066845,0.06563551097094177,0.34765625,,
3.3072799999997953,1500,,,,-0.125,0.12890625,-1.064453125,0.12065190587865303,4.448041653759208,22.732696009770926,2.9696928877929913,3699,0,67.50912566057683,46.74125424582118,69.2369420999872,0.09516307864496121,0.06588800566197707,0.3515625,,
3.31555999999959,1500,,,,0,0.171875,-0.8828125,0.12065190587865303,4.448041653759208,22.732986239621138,2.961645235624222,3700,0,67.32704038808494,46.752745392656834,69.44126033636078,0.09513968894023139,0.06606619908018993,0.349609375,,
3.3249849999998697,1500,,,,-0.0625,-0.015625,-0.9375,0.12065190587865303,4.448041653759208,22.733480645572065,2.951937679357167,3698,0,67.10781810060108,46.726646707664656,69.62921464324307,0.09519282822898541,0.06628201869253393,0.3515625,,
3.337144999999786,1500,,,,-0.125,-0.005859375,-0.876953125,0.12065190587865303,4.448041653759208,22.733620651460747,2.9436071604937215,3693,0,66.91884853358779,46.65492105354469,69.71865487214373,0.09533917437464531,0.06646918994021027,0.353515625,,
3.3529699999997393,1500,,,,-0.5625,-0.009765625,-0.849609375,0.12065190587865303,4.448041653759208,22.73438861767709,2.9279298747906233,3695,0,66.56469561879666,46.68678705849835,70.13746044279192,0.09527410074687362,0.0668228347235642,0.359375,,
3.3604249999998137,1500,,,,0.75,0.15234375,-1.16796875,0.12065190587865303,4.448041653759208,22.73466574141094,2.920047697051019,3702,0,66.38630834143171,46.7678019786116,70.44796306202163,0.09510905934372196,0.06700239499510148,0.365234375,,
3.3684999999997673,1500,,,,-0.34375,-0.109375,-0.759765625,0.12065190587865303,4.448041653759208,22.734809408697718,2.9135136803759707,3698,0,66.23817823298113,46.7233918841608,70.53846154980214,0.09519945950814182,0.06715223414077007,0.365234375,,
3.376374999999767,1500,,,,0.3125,0.044921875,-1.1875,0.12065190587865303,4.448041653759208,22.735333857497817,2.906332311343651,3685,0,66.0764353992312,46.559788751403836,70.4635298046746,0.0955339741232201,0.06731661032990531,0.3671875,,
3.384674999999581,1500,,,,-0.6875,-0.13671875,-0.8359375,0.1274352268169904,4.448041653759208,22.735465306706075,2.9003309082729016,3685,0,65.94037274300588,49.18229441133802,74.58601212798672,0.0904398972637966,0.06745551274171406,0.369140625,,
3.3926299999996554,1500,,,,0.3125,0.271484375,-1.095703125,0.1274352268169904,4.448041653759208,22.73562096279564,2.8941774890440404,3690,0,65.80092238996093,49.24045652106839,74.83247154082581,0.09033307097500275,0.06759846962932291,0.369140625,,
3.403309999999823,1500,,,,-0.40625,-0.130859375,-0.796875,0.1274352268169904,4.448041653759208,22.73586149011146,2.8899458491146373,3696,0,65.70540853939295,49.32495503198406,75.06985517396461,0.09017832151848773,0.0676967353622409,0.373046875,,
3.410744999999879,1500,,,,0.15625,0.052734375,-1.05859375,0.1274352268169904,4.448041653759208,22.73580975371747,2.8924209217847676,3689,0,65.7615318053706,49.23151768757637,74.86370273929013,0.09034947250634275,0.0676389605236651,0.375,,
3.4192249999998605,1500,,,,-0.5,-0.4140625,-0.69140625,0.1274352268169904,5.105329415197502,22.735421178924664,2.8961220556539073,3703,0,65.84455472086468,49.4112330333585,75.04224645884221,0.10332325468888409,0.07753609143292965,0.37890625,,
3.4274499999997206,1500,,,,0.21875,0.326171875,-1.1796875,0.1274352268169904,5.105329415197502,22.735317583749033,2.892089619472862,3704,0,65.7525759793794,49.429176934734286,75.17451019749511,0.10328574602685617,0.07764455367951789,0.37890625,,
3.4355099999997765,1500,,,,-0.09375,0.01171875,-0.830078125,0.1274352268169904,5.105329415197502,22.735350596000824,2.8846996845627793,3701,0,65.58465869270778,49.384757736465296,75.2992524789281,0.10337864655409192,0.07784334807806438,0.380859375,,
3.443429999999702,1500,,,,0.625,0.01171875,-1.125,0.1274352268169904,5.105329415197502,22.735382541173216,2.8777661260888734,3703,0,65.42711374066066,49.41851305318855,75.53216125209673,0.10330803376667158,0.07803079065101291,0.3828125,,
3.451684999999823,1500,,,,-0.46875,-0.142578125,-0.8671875,0.1274352268169904,5.105329415197502,22.735808578753215,2.8689802999513376,3702,0,65.2285869159076,49.4042158951763,75.74012903095385,0.10333793022906723,0.07826828169341259,0.384765625,,
3.460619999999646,1500,,,,0.0625,0.134765625,-0.990234375,0.1274352268169904,5.105329415197502,22.73610971161122,2.861182862610271,3701,0,65.05216746928897,49.383774792284164,75.91411126400695,0.1033807042226179,0.07848054282907209,0.38671875,,
3.4693849999997766,1500,,,,-0.5625,0.0390625,-0.8203125,0.1274352268169904,5.105329415197502,22.7362509600829,2.8550360469777454,3693,0,64.91281606416905,49.27804201838935,75.91419538735761,0.1036025216523887,0.07864902071342383,0.388671875,,
3.4776099999998697,1500,,,,0.28125,0.08203125,-1.046875,0.1274352268169904,5.105329415197502,22.736533109608,2.8474286868071763,3694,0,64.740656614839,49.290450846149014,76.13523467856102,0.10357643980844972,0.0788581655198617,0.388671875,,
3.488869999999879,1500,,,,-0.1875,-0.07421875,-0.962890625,0.1274352268169904,5.105329415197502,22.736799747838774,2.8450219231697784,3700,0,64.6866937453224,49.37255885514601,76.3256799760557,0.10340418916054182,0.07892395050051043,0.390625,,
3.4967499999997673,1500,,,,-0.1875,-0.02734375,-0.90625,0.1274352268169904,5.105329415197502,22.73675045107299,2.846381250115806,3702,0,64.71746017249625,49.40702676047448,76.34265409796099,0.1033320511260102,0.07888643036345817,0.392578125,,
3.504454999999609,1500,,,,0.125,-0.0234375,-0.94921875,0.1274352268169904,5.105329415197502,22.73652501541952,2.849422524745796,3700,0,64.78596651338263,49.37616711111054,76.2142941880956,0.10339663270559352,0.0788030138308257,0.390625,,
3.5145149999996645,1500,,,,0.09375,0.056640625,-0.962890625,0.1274352268169904,5.105329415197502,22.736792530890334,2.847021708828526,3695,0,64.73214192457506,49.30778218017055,76.17202322398546,0.10354003342804262,0.07886853830893094,0.39453125,,
3.521734999999637,1500,,,,0.03125,0.150390625,-1.12890625,0.1274352268169904,5.105329415197502,22.736965200032152,2.8417922012567574,3701,0,64.61373038569766,49.39227403020118,76.44238110903781,0.1033629148574091,0.07901307330071093,0.3984375,,
3.5292299999997487,1500,,,,-0.3125,0.28515625,-1.02734375,0.1274352268169904,5.105329415197502,22.7369232676442,2.841001002051707,3707,0,64.59562178694995,49.4681562366621,76.58128348050981,0.10320436021049466,0.07903522365704539,0.3984375,,
3.537639999999665,1500,,,,-0.0625,0.046875,-0.9375,0.1275262624855256,5.105329415197502,22.73677961012576,2.837583772431578,3691,0,64.51751685904605,49.29094045375438,76.39931425358826,0.10357541098221511,0.0791309037257481,0.40234375,,
3.547144999999553,1500,,,,-0.15625,-0.109375,-0.904296875,0.1275262624855256,5.105329415197502,22.736736105960624,2.834374328116709,3698,0,64.44442112389906,49.38529756279591,76.63238601809938,0.10337751653122708,0.07922065752413444,0.404296875,,
3.555574999999721,1500,,,,0.25,0.07421875,-1.0859375,0.1275262624855256,5.105329415197502,22.736768502173522,2.829218820039444,3701,0,64.32729335322936,49.42882035901762,76.83957738995433,0.10328649112230136,0.07936490327928906,0.404296875,,
3.564064999999711,1500,,,,-0.4375,-0.146484375,-0.865234375,0.1275262624855256,5.105329415197502,22.737128620205766,2.8273191937085116,3691,0,64.2851201577269,49.29137177599417,76.67617584762263,0.10357450464959253,0.07941696931842565,0.408203125,,
3.5721649999998046,1500,,,,0.4375,0.55078125,-1.22265625,0.1275262624855256,5.385466218862271,22.737212525859523,2.8239246712336357,3700,0,64.20817540685715,49.40922601103045,76.9516119994803,0.10899717833385981,0.08387508576185342,0.408203125,,
3.580534999999683,1500,,,,-0.40625,-0.154296875,-0.822265625,0.1275262624855256,5.385466218862271,22.737547295132945,2.8229458048480613,3698,0,64.18686374932993,49.380657293820754,76.93265320871244,0.10906023763146995,0.08390293440561648,0.408203125,,
3.588579999999842,1500,,,,0.28125,0.013671875,-1.072265625,0.1275262624855256,5.385466218862271,22.737536880963493,2.821061852227476,3694,0,64.14399790850142,49.335030140348614,76.91293300851446,0.10916110122040387,0.08395900465300589,0.412109375,,
3.596374999999767,1500,,,,-0.625,-0.2578125,-0.69921875,0.1275262624855256,5.385466218862271,22.737527062468402,2.8183336527102325,3693,0,64.08193769956434,49.31713011209134,76.95948637399994,0.109200722074091,0.0840403148249196,0.4140625,,
3.6045699999998324,1500,,,,0.3125,0.275390625,-1.064453125,0.1275262624855256,5.385466218862271,22.737550492290563,2.8137841305231412,3694,0,63.97855874217582,49.33751478937887,77.11570213421311,0.10915560384127064,0.08417611032103595,0.4140625,,
3.6128249999997206,1500,,,,-0.625,-0.08203125,-0.86328125,0.1275262624855256,5.385466218862271,22.737538805916028,2.812197481659974,3697,0,63.942449369142984,49.37672493665895,77.22057166062662,0.10906892317728265,0.08422364598158733,0.416015625,,
3.619784999999683,1500,,,,0.34375,0.115234375,-1.177734375,0.1275262624855256,5.385466218862271,22.737473149493574,2.8104602665220235,3699,0,63.902764847763066,49.40355033781309,77.31050519568008,0.10900970035629763,0.08427595005775076,0.416015625,,
3.6278249999997207,1500,,,,-0.53125,0.015625,-0.849609375,0.1275262624855256,5.385466218862271,22.737401218184647,2.8200222916912394,3694,0,64.11997829040824,49.32721027725719,76.92954924882763,0.10917840657502773,0.08399045605522121,0.419921875,,
3.634929999999935,1500,,,,0.5625,0.171875,-1.03515625,0.1275262624855256,5.385466218862271,22.73708166892164,2.8260800043178915,3693,0,64.25681186108233,49.31981268283763,76.75421679722113,0.10919478250038676,0.08381160009160092,0.421875,,
3.645304999999702,1500,,,,-0.25,0.16015625,-1.0546875,0.1275262624855256,5.385466218862271,22.736764017287943,2.8316537628983056,3698,0,64.3826433856842,49.38355036110625,76.70320410001514,0.10905384848764912,0.08364779598440278,0.419921875,,
3.6614699999997393,1500,,,,-0.5625,-0.2890625,-0.765625,0.1275262624855256,5.385466218862271,22.73715627826264,2.8244093999406226,3699,0,64.21903792024393,49.404304919460934,76.93093281904662,0.1090080353856142,0.08386089846986942,0.42578125,,
3.669184999999823,1500,,,,0.25,0.23046875,-1.1328125,0.1275262624855256,5.385466218862271,22.737197868813084,2.8227701261632427,3698,0,64.18188289674812,49.385576556699654,76.94628815447521,0.10904937421717066,0.08390944571579613,0.42578125,,
3.685869999999646,1500,,,,0.1875,0.181640625,-1.033203125,0.12724968213314178,5.385466218862271,22.73752994043946,2.816392592612728,3701,0,64.03781089856382,49.32292919452481,77.02157288395219,0.10918788293417285,0.08409822483458833,0.427734375,,
3.6950049999996555,1500,,,,-0.40625,-0.251953125,-0.966796875,0.12724968213314178,5.385466218862271,22.737892360799734,2.813760241291758,3692,0,63.97897749558988,49.193038323936825,76.8893787452726,0.10947618610989024,0.08417555937391302,0.4296875,,
3.7028799999996553,1500,,,,0.28125,0.03125,-1.12109375,0.12724968213314178,5.385466218862271,22.737801988041355,2.813920065714036,3690,0,63.98235726438207,49.17602265823381,76.8587228742341,0.10951406656635239,0.08417111293053706,0.431640625,,
3.7116949999998323,1500,,,,-0.21875,0.005859375,-0.94921875,0.12724968213314178,5.385466218862271,22.7377039040624,2.812200751090074,3692,0,63.94298799706799,49.201165110202275,76.94536438062345,0.10945810341685484,0.08422293651821859,0.431640625,,
3.7198749999997673,1500,,,,0.5,0.16015625,-1.01171875,0.12724968213314178,5.497122293002231,22.737917190214638,2.8108284219693207,3698,0,63.9123838946401,49.28236945089014,77.10926497771133,0.11154338466781943,0.08601028404861671,0.43359375,,
3.7278749999997673,1500,,,,-0.3125,-0.021484375,-0.90625,0.12724968213314178,5.497122293002231,22.737433020032565,2.8138904149033976,3701,0,63.980644834577646,49.313825188909426,77.07616157419268,0.1114722346511161,0.08591851969005744,0.43359375,,
3.7360799999998417,1500,,,,0.5,0.1875,-1.203125,0.12724968213314178,5.497122293002231,22.737093932613547,2.823513814117808,3714,0,64.19849881162855,49.494363328399935,77.09582660745146,0.11106562289786996,0.08562696004982773,0.43359375,,
3.752019999999786,1500,,,,-0.53125,-0.009765625,-0.88671875,0.12724968213314178,5.497122293002231,22.735566918960913,2.839221847783868,3700,0,64.551318318066,49.310784701618225,76.39005056201556,0.11147910799362788,0.08515894696241627,0.435546875,,
3.760379999999888,1500,,,,0,-0.02734375,-0.90625,0.12724968213314178,5.497122293002231,22.735674883541133,2.83521966202972,3699,0,64.46063245933108,49.29243141721048,76.46904713246431,0.1115206155378026,0.08527875205801659,0.4375,,
3.7684049999997953,1500,,,,0.28125,0.115234375,-1.12109375,0.12724968213314178,5.497122293002231,22.735861942322277,2.8314812376923486,3702,0,64.37616651244905,49.33538020459535,76.6360951223383,0.11142353155495092,0.08539064363112084,0.4375,,
3.7767949999999253,1500,,,,-0.28125,0.064453125,-0.853515625,0.12724968213314178,5.497122293002231,22.7357613207235,2.8314080490824187,3703,0,64.37421760551324,49.34020357785355,76.64590796304743,0.11141263907288834,0.0853932288030082,0.4375,,
3.784554999999935,1500,,,,0.75,0.1796875,-1.4140625,0.12724968213314178,5.497122293002231,22.735642351262847,2.8333662320974096,3702,0,64.4184013031119,49.32638707185327,76.57188951298986,0.111443846170907,0.08533465875901328,0.439453125,,
3.7927249999996273,1500,,,,-0.5,-0.1015625,-0.802734375,0.12724968213314178,5.497122293002231,22.73575938148267,2.827556898768676,3702,0,64.28665328785597,49.33127903328703,76.73642429696356,0.11143279478508887,0.08550954221225049,0.443359375,,
3.802909999999683,1500,,,,0.0625,0.15234375,-1.130859375,0.12724968213314178,5.497122293002231,22.736030157543027,2.820932538290941,3701,0,64.13680726297724,49.3126470747398,76.88665709932424,0.11147489780199023,0.08570932242483836,0.443359375,,
3.8106049999997484,1500,,,,0.0625,0.05859375,-1.0078125,0.12724968213314178,5.497122293002231,22.73611103019606,2.816661006123226,3701,0,64.0399173696414,49.323564038773554,77.0200307318881,0.11145022465693903,0.08583899728153277,0.4453125,,
3.8191999999997206,1500,,,,0.3125,-0.04296875,-0.921875,0.12724968213314178,5.497122293002231,22.736494225827713,2.8122588665366206,3703,0,63.94090748054266,49.340374536023134,77.16558378693249,0.11141225304215745,0.08597191547015526,0.4453125,,
3.8275399999998045,1500,,,,-0.25,-0.126953125,-0.94140625,0.12724968213314178,5.497122293002231,22.736467665537948,2.8109982534433042,3702,0,63.91217089729733,49.325749404584585,77.1773962800416,0.11144528688075646,0.08601057069139063,0.44921875,,
3.8357599999997767,1500,,,,-0.09375,0.09375,-0.85546875,0.12680961129936205,5.497122293002231,22.73644470129415,2.8076054849689216,3700,0,63.83496685204603,49.129508751087855,76.9633183408055,0.11189043881658009,0.08611459461932874,0.44921875,,
3.8437649999996646,1500,,,,0,-0.0625,-1.125,0.12680961129936205,5.497122293002231,22.736622022745426,2.8053746561798913,3701,0,63.784743189751595,49.14531527494023,77.04869976310651,0.11185445168575973,0.08618240065103004,0.44921875,,
3.852004999999888,1500,,,,0.09375,0.228515625,-1.029296875,0.12680961129936205,5.497122293002231,22.736592150612946,2.803587507052327,3704,0,63.744025706402454,49.1870038062047,77.16331571644737,0.11175964924923515,0.08623745099378152,0.451171875,,
3.8599499999997207,1500,,,,-0.03125,0.091796875,-1.150390625,0.12680961129936205,5.497122293002231,22.736760483208105,2.8065067287620717,3698,0,63.81087128637512,49.10780074864661,76.9583611047356,0.11193989975520804,0.08614711227389205,0.453125,,
3.868029999999795,1500,,,,-0.1875,0.296875,-0.8046875,0.12680961129936205,5.5443071255802625,22.737113868285153,2.8060711288575844,3692,0,63.80195877934236,49.02921879728776,76.84594601061421,0.113081694173087,0.0868986976521383,0.453125,,
3.87670999999973,1500,,,,-0.125,-0.001953125,-0.9453125,0.12680961129936205,5.5443071255802625,22.737126066950154,2.807038173011816,3696,0,63.823980814511096,49.08297195642964,76.90365177796944,0.11295785288840858,0.08686871384117273,0.453125,,
3.884909999999916,1500,,,,-0.03125,0.033203125,-0.90625,0.12680961129936205,5.5443071255802625,22.737458734889298,2.805162762590265,3693,0,63.78227255904421,49.03992017548671,76.88644227922377,0.1130570177467716,0.08692551869248331,0.455078125,,
3.8919799999997484,1500,,,,0.0625,0.11328125,-0.98046875,0.12680961129936205,5.5443071255802625,22.737387508361955,2.8054284500851083,3695,0,63.78811379656838,49.06360037673044,76.91652481401626,0.11300245157323963,0.08691755870477755,0.453125,,
3.899239999999758,1500,,,,-0.09375,0.013671875,-0.984375,0.12680961129936205,5.5443071255802625,22.73767463597646,2.804663059276628,3698,0,63.77151610537433,49.11071596148612,77.01042559555414,0.11289403986552039,0.0869401805724518,0.455078125,,
3.906614999999758,1500,,,,-0.4375,0.12109375,-1.0078125,0.12680961129936205,5.5443071255802625,22.737689137690182,2.8052129910832684,3693,0,63.78406095626142,49.034662159091994,76.87604304893112,0.113069140918966,0.08692308144792091,0.455078125,,
3.914864999999758,1500,,,,0.21875,0.173828125,-1.056640625,0.12680961129936205,5.5443071255802625,22.737508929376553,2.803726369066845,3689,0,63.749753352185884,48.99000767061712,76.8473681772093,0.11317220366359707,0.0869698600236256,0.455078125,,
3.923869999999646,1500,,,,-0.5625,-0.19921875,-0.6875,0.12680961129936205,5.5443071255802625,22.737435741261027,2.804059619375366,3693,0,63.75712541021225,49.047471263223294,76.92861142602135,0.11303961208979772,0.08695980394204235,0.45703125,,
3.9318199999995995,1500,,,,0.5,0.076171875,-1.158203125,0.12680961129936205,5.5443071255802625,22.73728149428588,2.8018850508174205,3709,0,63.70724911506719,49.25472485007025,77.31416053000031,0.11256396502989206,0.08702788462214416,0.458984375,,
3.9397499999997674,1500,,,,-0.34375,-0.01171875,-0.8984375,0.12680961129936205,5.5443071255802625,22.7373168249955,2.8023117660776515,3695,0,63.71705046772024,49.066666329926335,77.0071212803299,0.11299539056311891,0.08701449745212342,0.458984375,,
3.947929999999702,1500,,,,-0.125,0.099609375,-0.916015625,0.12680961129936205,5.5443071255802625,22.7371542152453,2.798569585983607,3690,0,63.63150825860447,49.00256060911367,77.00989957673585,0.11314321244978191,0.08713147428546994,0.4609375,,
3.9589799999997486,1500,,,,-0.25,-0.078125,-1.02734375,0.12680961129936205,5.5443071255802625,22.736902224377435,2.802980116961091,3689,0,63.731084856218345,48.98749705355257,76.86593938275442,0.11317800375714827,0.0869953357625811,0.4609375,,
3.966529999999795,1500,,,,0.1875,0.20703125,-1.06640625,0.12680961129936205,5.5443071255802625,22.736637834766057,2.8033858534140457,3693,0,63.73956886018172,49.03995980061939,76.93801617672187,0.11305692639475279,0.08698375631849946,0.462890625,,
3.9750049999996553,1500,,,,0.03125,0.064453125,-1.01171875,0.12680961129936205,5.5443071255802625,22.736607638079445,2.8024915834423143,3693,0,63.719151541747884,49.046417922597264,76.97280446438893,0.11304203977403662,0.08701162823782599,0.46484375,,
3.9841049999999814,1500,,,,-0.34375,-0.236328125,-0.802734375,0.12686058722714008,5.5443071255802625,22.736574401183816,2.7988873288486396,3697,0,63.63710999289773,49.119735712556,77.18725083216074,0.11287330937660207,0.08712380443107866,0.46484375,,
3.9929849999996367,1500,,,,0.1875,0.20703125,-1.15625,0.12686058722714008,5.5443071255802625,22.736393876695303,2.7973627446635594,3703,0,63.60194117866412,49.19394875646788,77.34661528376505,0.11270303087534343,0.08717197970429484,0.46484375,,
4.000754999999655,1500,,,,-0.03125,0.078125,-0.8828125,0.12686058722714008,5.5443071255802625,22.736275602484447,2.7976948936793478,3701,0,63.60916215435707,49.166989473994704,77.29545211534733,0.1127648282901833,0.08716208385399227,0.46484375,,
4.0085449999996925,1500,,,,0.3125,0.076171875,-1.1953125,0.12686058722714008,5.5443071255802625,22.736197279881456,2.7957861728023605,3700,0,63.565545977199214,49.15649762132557,77.33198364874876,0.1127888965623738,0.08722189104721904,0.46484375,,
4.017089999999619,1500,,,,-0.5625,0.033203125,-0.890625,0.12686058722714008,5.557256536630075,22.736285894646375,2.7965138412408836,3696,0,63.582338202788456,49.101148989276155,77.22450978866767,0.11317976566788278,0.08740251921698527,0.46875,,
4.026159999999684,1500,,,,0.5625,0.2421875,-1.10546875,0.12686058722714008,5.557256536630075,22.736416993355185,2.7946616909193485,3686,0,63.54059356009741,48.96967901222091,77.06833737066813,0.11348362188045386,0.08745994057128155,0.470703125,,
4.035254999999656,1500,,,,-0.34375,-0.103515625,-0.798828125,0.12686058722714008,5.557256536630075,22.73646719067848,2.792685495131166,3690,0,63.49580213393344,49.02354057031666,77.20753014019725,0.11335893882774649,0.08752163686204013,0.46875,,
4.043894999999786,1500,,,,0.40625,0.076171875,-1.1484375,0.12686058722714008,5.557256536630075,22.736441633408965,2.7934310050871693,3692,0,63.51268100411937,49.04287890556709,77.21745977372018,0.11331423971522284,0.08749837746999904,0.470703125,,
4.051984999999637,1500,,,,-0.3125,-0.083984375,-0.833984375,0.12686058722714008,5.557256536630075,22.736617184712884,2.7942769506956586,3693,0,63.532405336034024,49.06662624539068,77.230865077229,0.11325939771846702,0.08747121263923145,0.470703125,,
4.059964999999851,1500,,,,0.5625,0.15234375,-1.4296875,0.12686058722714008,5.557256536630075,22.736587251572374,2.794648851170982,3700,0,63.54077744215553,49.15767548770189,77.36398178705426,0.11304962005415353,0.08745968746902938,0.470703125,,
4.068304999999702,1500,,,,-0.59375,0.033203125,-0.794921875,0.12686058722714008,5.557256536630075,22.736657349033514,2.7970505885892893,3693,0,63.59558082066718,49.06008667878217,77.1438613276077,0.11327449486618037,0.0873843192391143,0.474609375,,
4.076774999999907,1500,,,,0.125,0.1796875,-1.1171875,0.12686058722714008,5.557256536630075,22.736621306414907,2.7975565725732365,3696,0,63.606984373869714,49.10687300722013,77.20358619515633,0.11316657315592052,0.08736865285053576,0.474609375,,
4.08623499999987,1500,,,,-0.5625,-0.23828125,-0.6328125,0.12686058722714008,5.557256536630075,22.736591135737807,2.794701399112928,3704,0,63.541983058105046,49.20450472066353,77.43621201697339,0.11294202773056862,0.08745802804971199,0.4765625,,
4.094864999999758,1500,,,,0.4375,0.12109375,-1.09765625,0.12686058722714008,5.557256536630075,22.736554663984503,2.792871040140286,3684,0,63.50026507360887,48.939273879978366,77.06940092808817,0.11355412731008284,0.08751548564699942,0.478515625,,
4.103309999999823,1500,,,,-0.25,-0.072265625,-0.966796875,0.12686058722714008,5.557256536630075,22.736725258829118,2.794714898369453,3694,0,63.54266482098279,49.077528599135185,77.23555305305516,0.11323423764920391,0.08745708969377346,0.478515625,,
4.113954999999609,1500,,,,-0.15625,0.068359375,-0.845703125,0.12686058722714008,5.557256536630075,22.73668602231163,2.7945174238759707,3694,0,63.53806525054709,49.07497948585355,77.2371322487365,0.11324011940202687,0.08746342078117061,0.48046875,,
4.121694999999599,1500,,,,0.21875,0.1796875,-1.171875,0.12686058722714008,5.557256536630075,22.736643652226853,2.7925552343858593,3690,0,63.49333324339212,49.016632856679344,77.19965286557168,0.11337491403946579,0.08752504007510788,0.48046875,,
4.128634999999776,1500,,,,-0.25,-0.0625,-0.78125,0.12686058722714008,5.557256536630075,22.736839758987063,2.7914946225445,3690,0,63.469765920868376,49.015287236728575,77.22619821512959,0.1133780265285452,0.0875575394993365,0.48046875,,
4.137149999999674,1500,,,,-0.03125,0.1015625,-1.10546875,0.12704773217158702,5.557256536630075,22.73689749098068,2.7913118237037082,3695,0,63.46577080091355,49.15921097351095,77.45783333778297,0.11304608895420551,0.08756305117703041,0.482421875,,
4.144879999999655,1500,,,,-0.28125,-0.244140625,-0.7578125,0.12704773217158702,5.557256536630075,22.73675691703136,2.7916160323622012,3698,0,63.472295133506925,49.19709006872885,77.50954958418981,0.11295904958741523,0.08755405054978717,0.482421875,,
4.152704999999842,1500,,,,0.1875,0.36328125,-1.16015625,0.12704773217158702,5.557256536630075,22.736784932515853,2.790012338974527,3700,0,63.435910510329336,49.232614770079564,77.61000728769073,0.11287754190150023,0.08760426849592047,0.482421875,,
4.163034999999684,1500,,,,-0.125,-0.015625,-0.90625,0.12704773217158702,5.557256536630075,22.736962791338474,2.788991192321197,3690,0,63.41318896517778,49.095565555843855,77.42169469320302,0.11319263712949719,0.0876356579335845,0.482421875,,
4.17070999999973,1500,,,,0.34375,0.2109375,-1.11328125,0.12704773217158702,5.562742662315679,22.736910806422113,2.789338435911862,3687,0,63.42093922625297,49.05765699029516,77.3524605419086,0.11339193519609243,0.08771145193026397,0.482421875,,
4.17922499999986,1500,,,,-0.5,-0.375,-0.5703125,0.12704773217158702,5.562742662315679,22.736999784791397,2.7904146152562874,3689,0,63.44565650656098,49.08583081452768,77.36673165238926,0.1133268515579307,0.08767728113492576,0.486328125,,
4.188054999999702,1500,,,,0.0625,0.041015625,-1.056640625,0.12704773217158702,5.562742662315679,22.736872452877886,2.7879641076396178,3691,0,63.389584318603504,49.10788911246865,77.46996551617474,0.11327594736511046,0.08775483736187131,0.486328125,,
4.196554999999935,1500,,,,-0.46875,-0.107421875,-0.8515625,0.12704773217158702,5.562742662315679,22.736829813798867,2.7890727146511405,3692,0,63.41467165133299,49.11542272561911,77.45119772229666,0.11325857243236338,0.08772012087204034,0.48828125,,
4.204904999999795,1500,,,,0.34375,0.193359375,-1.158203125,0.12704773217158702,5.562742662315679,22.736710539532645,2.7902595940542927,3689,0,63.441324720166314,49.08238968285657,77.36659015137901,0.11333479682344451,0.08768326775729245,0.48828125,,
4.213574999999953,1500,,,,-0.625,0.12109375,-0.72265625,0.12704773217158702,5.562742662315679,22.736675683400396,2.78837765894406,3687,0,63.39843851425033,49.054164719642515,77.37440522074752,0.11340000780990198,0.0877425815631929,0.490234375,,
4.2222249999998605,1500,,,,0.40625,0.203125,-1.072265625,0.12704773217158702,5.562742662315679,22.736861645204147,2.7880422123059603,3690,0,63.39133004218951,49.09698209903489,77.45062623920155,0.11330111189105099,0.08775242069559745,0.48828125,,
4.230489999999758,1500,,,,-0.4375,-0.048828125,-0.7890625,0.12704773217158702,5.562742662315679,22.736820074738414,2.7870346818238443,3690,0,63.36830610268457,49.090687676520226,77.46883370524642,0.11331563939317771,0.08778430424353754,0.490234375,,
4.2450849999997295,1500,,,,0.09375,-0.03515625,-1.08984375,0.12704773217158702,5.562742662315679,22.73674386487967,2.790039107770513,3692,0,63.436404566375565,49.122661934528445,77.4360751847621,0.11324188151142545,0.08769006850782664,0.490234375,,
4.252729999999748,1500,,,,-0.0625,0.154296875,-1.05859375,0.12704773217158702,5.562742662315679,22.736755393928572,2.7876095271013206,3691,0,63.381195951487626,49.10989434125509,77.48338226190008,0.11327132214256588,0.0877664515288326,0.490234375,,
4.261204999999609,1500,,,,-0.5,-0.25,-0.7421875,0.12704773217158702,5.562742662315679,22.73678398530921,2.7863887662172986,3682,0,63.35351947657496,48.99339915133709,77.33335031126796,0.11354065565307618,0.08780479298190387,0.490234375,,
4.271844999999972,1500,,,,0.3125,0.263671875,-1.07421875,0.12704773217158702,5.562742662315679,22.736646676832045,2.7875839328710716,3698,0,63.38031096370345,49.19447219735008,77.61790917296494,0.11307657982384701,0.08776767702356877,0.490234375,,
