Time (s),ESC signal (µs),Servo 1 (µs),Servo 2 (µs),Servo 3 (µs),AccX (g),AccY (g),AccZ (g),Torque (N·m),Thrust (N),Voltage (V),Current (A),Motor Electrical Speed (RPM),Motor Optical Speed (RPM),Electrical Power (W),Mechanical Power (W),Motor Efficiency (%),Propeller Mech. Efficiency (N/W),Overall Efficiency (N/W),Vibration (g),App message,90% settling time (s),Max acceleration (RPM/s),
0,1000,,,,-0.0625,0.052734375,-0.95703125,-0.003076227377902973,0.02198318799646689,22.82753163359251,0.04189391222462481,0,0,0.9563346065625709,0,0,0,0,0.060546875,,
0,1200,,,,-0.0625,0.046875,-0.953125,-0.003076227377902973,0.02198318799646689,22.827484036444012,0.04205145663755686,0,0,0.9599289551030469,0,0,0,0,0.060546875,,
0.008334999999962747,1200,,,,-0.0625,0.046875,-0.955078125,-0.003076227377902973,0.02198318799646689,22.827654857901933,0.042720505730026656,0,0,0.9752089601600704,0,0,0,0,0.060546875,,
0.016764999999897553,1200,,,,-0.0625,0.046875,-0.95703125,-0.003076227377902973,0.02198318799646689,22.8276067437944,0.04329566215431441,0,0,0.9883363493708716,0,0,0,0,0.060546875,,
0.028550000000046566,1200,,,,-0.0625,0.05078125,-0.955078125,-0.003076227377902973,0.02198318799646689,22.82748053317808,0.04223243095805012,0,0,0.9640599955636764,0,0,0,0,0.060546875,,
0.03928500000014901,1200,,,,-0.0625,0.05078125,-0.95703125,-0.003076227377902973,0.02198318799646689,22.827519994787444,0.041601214775846905,0,0,0.9496525621030921,0,0,0,0,0.060546875,,
0.0477249999998603,1200,,,,-0.01953125,0.04296875,-0.9140625,-0.003076227377902973,0.02198318799646689,22.826596391589053,0.08099338802397715,0,0,1.848803378810689,0,0,0,0,0.060546875,,
0.05452999999979511,1200,,,,-0.375,0.03515625,-0.99609375,-0.003076227377902973,0.02198318799646689,22.825478589378196,0.11770708581822201,0,0,2.6867205671619283,0,0,0,0,0.0625,,
0.0625449999999255,1200,,,,0.125,-0.09375,-0.89453125,-0.003076227377902973,0.02198318799646689,22.824436846903026,0.15428865688606755,0,0,3.5215517052895384,0,0,0,0,0.064453125,,
0.07380499999993481,1200,,,,-0.0625,0.107421875,-0.994140625,-0.003076227377902973,0.02198318799646689,22.822978925433198,0.20098994856166938,0,0,4.5871893602468825,0,0,0,0,0.06640625,,
0.08281499999994411,1200,,,,-0.0625,0.181640625,-0.951171875,-0.003042492065350508,0.02198318799646689,22.821681210091377,0.2238980013018745,0,0,5.109728809288004,0,0,0,0,0.068359375,,
0.09137999999988825,1200,,,,-0.0625,0.099609375,-0.970703125,-0.003042492065350508,0.02198318799646689,22.82115133444024,0.2399835518552003,0,0,5.476700954664013,0,0,0,0,0.072265625,,
0.0994299999999348,1200,,,,0.0625,0.18359375,-1.12890625,-0.003042492065350508,0.02198318799646689,22.82070290689306,0.25514465374958495,0,0,5.822580341501377,0,0,0,0,0.07421875,,
0.1067699999997858,1200,,,,-0.15625,0.107421875,-0.916015625,-0.003042492065350508,0.02198318799646689,22.820345011845404,0.26616370888670066,0,0,6.073947666426892,0,0,0,0,0.076171875,,
0.11540999999991618,1200,,,,0,-0.15234375,-0.83984375,-0.003042492065350508,0.02198318799646689,22.81924049388166,0.2836463113324576,0,0,6.472593393497782,0,0,0,0,0.076171875,,
0.12440999999991618,1200,,,,-0.0625,-0.11328125,-1.15234375,-0.003042492065350508,0.02198318799646689,22.8182540497956,0.30844108287662636,1,0,7.038086988472919,0.00020150790088731637,0.00286310614258319,0,0.0031234606836305478,0.078125,,
0.133125,1200,,,,0.0625,-0.072265625,-0.896484375,-0.003042492065350508,0.02614416675158801,22.818274686187607,0.3160750497075716,1,0,7.212287305677771,0.00044694721302253635,0.006197024523283806,0,0.003624948042628084,0.08203125,,
0.1415,1200,,,,-0.03125,-0.033203125,-0.892578125,-0.003042492065350508,0.02614416675158801,22.818149828862495,0.3172046893954722,2,0,7.238024129043675,0.0005480186700672891,0.007571384956680108,0,0.00361205852391132,0.083984375,,
0.14974499999987892,1200,,,,-0.125,0.10546875,-1.0546875,-0.003042492065350508,0.02614416675158801,22.818043590263915,0.3167702378672072,2,0,7.228077095752203,0.0005823869279602383,0.008057287162895584,0,0.0036170293157155747,0.083984375,,
0.1584450000000652,1200,,,,0,0.0234375,-0.9921875,-0.003042492065350508,0.02614416675158801,22.81792955160944,0.3172736202082772,2,0,7.239527114496558,0.0005966994644530601,0.008242243657851886,0,0.003611308630813257,0.083984375,,
0.16681499999994412,1200,,,,-0.03125,-0.00390625,-0.982421875,-0.003042492065350508,0.02614416675158801,22.81802850893555,0.31337664587624847,2,0,7.150637239638838,0.0006013701774087586,0.008410022173620045,0,0.0036562009615954856,0.083984375,,
0.17794999999995342,1200,,,,-0.0625,0.0625,-0.96484375,-0.003042492065350508,0.02614416675158801,22.81806380270138,0.3086885720235463,2,0,7.043675531598061,0.0006033944586445834,0.00856647152381941,0,0.003711722187415475,0.0859375,,
0.1860649999999441,1200,,,,-0.09375,0.0703125,-0.99609375,-0.003042492065350508,0.02614416675158801,22.818466590706926,0.3017545388098074,2,0,6.885575862425767,0.0006041889312420047,0.008774704444678805,0,0.0037969470199660984,0.0859375,,
0.19440500000002794,1200,,,,0,0.12109375,-1.04296875,-0.003042492065350508,0.02614416675158801,22.81866938076372,0.2961026213139662,254,0,6.756667818540875,0.08105473449458839,1.1996258610223112,0.3225495329126459,0.003869387611426772,0.0859375,,
0.20343499999982304,1200,,,,-0.0625,0.03125,-0.96875,-0.003042492065350508,0.02614416675158801,22.81874205326029,0.29050069120202704,496,0,6.628860338832876,0.15807077723123245,2.3845845160627337,0.16539531980249106,0.003943991186302643,0.0859375,,
0.21249499999987892,1200,,,,-0.03125,0.04296875,-0.9609375,-0.003042492065350508,0.02614416675158801,22.81911036461062,0.2845896612063918,584,0,6.494082887695799,0.18617516351042046,2.8668430435829912,0.1404277899298028,0.004025844326859888,0.0859375,,
0.21993999999994412,1200,,,,-0.0625,0.044921875,-0.970703125,-0.003042492065350508,0.02614416675158801,22.819281125174072,0.27875497650623743,613,0,6.360988173937126,0.19537458867489096,3.071450273644576,0.13381559459143721,0.0041100794462578145,0.0859375,,
0.2285,1200,,,,-0.0625,0.083984375,-0.966796875,0.006221798916937053,0.02614416675158801,22.819416290463288,0.27322238540406985,625,0,6.23477535240887,0.40721683904917955,6.531379496966913,0.06420207674278072,0.004193281277004943,0.0859375,,
0.23694999999995342,1200,,,,-0.0625,0.04296875,-0.9921875,0.006221798916937053,0.02614416675158801,22.819445642029887,0.2685670310788581,630,0,6.128550766945354,0.41023446372473965,6.693825005698898,0.06372981566251416,0.004265962336903185,0.0859375,,
0.2447349999998696,1200,,,,-0.03125,0.0390625,-0.9609375,0.006221798916937053,0.02614416675158801,22.819728469750576,0.26370971114854846,631,0,6.017784003246232,0.4113755851073839,6.835997850462422,0.06355303449708478,0.004344484072124358,0.083984375,,
0.25239500000001863,1200,,,,-0.0625,0.02734375,-1.01171875,0.006221798916937053,0.02614416675158801,22.81993563275284,0.25714185006832224,698,0,5.867960467046095,0.4549157590869526,7.752536194504309,0.05747034748600745,0.004455409489960123,0.083984375,,
0.26013999999989756,1200,,,,-0.0625,0.041015625,-0.97265625,0.006221798916937053,0.02614416675158801,22.820037425384374,0.25143422576403784,725,0,5.737738441957887,0.4723877051859944,8.232994758555108,0.05534472312587857,0.00455652815409042,0.083984375,,
0.26813500000000934,1200,,,,-0.0625,-0.0078125,-0.94140625,0.006221798916937053,0.02614416675158801,22.820298002236605,0.24473669823426722,736,0,5.584964385789431,0.4792519731293785,8.581110639645315,0.0545520273622956,0.004681169824128172,0.083984375,,
0.2766099999998696,1200,,,,-0.0625,0.04296875,-0.990234375,0.006221798916937053,0.02614416675158801,22.820381591331934,0.23647222224135248,740,0,5.396386347297914,0.48194878429810156,8.930954036295486,0.054246773938155565,0.004844754446589792,0.083984375,,
0.2858400000000838,1200,,,,-0.03125,0.07421875,-1.00390625,0.006221798916937053,0.07276184185174159,22.820580120733226,0.2312537491268486,741,0,5.2773447101691895,0.4830751666203732,9.153754267548802,0.15062219480415107,0.013787585584760651,0.083984375,,
0.29487999999988823,1200,,,,-0.03125,0.02734375,-0.953125,0.006221798916937053,0.07276184185174159,22.82076867487609,0.22540045158115174,742,0,5.1438115647460725,0.48348016403536803,9.399258856000401,0.15049602292767247,0.014145510762957647,0.083984375,,
0.3038300000000745,1200,,,,-0.03125,0.12109375,-1.029296875,0.006221798916937053,0.07276184185174159,22.820836853447606,0.22075431321814684,742,0,5.037798166646201,0.48362531533714553,9.59993432327417,0.15045085429619778,0.014443183201239902,0.083984375,,
0.3127749999999069,1200,,,,-0.21875,0.080078125,-0.88671875,0.006221798916937053,0.07276184185174159,22.818412358784524,0.3159197241461463,755,0,7.208786537840222,0.4921575132600033,6.8271894399505335,0.14784259081970375,0.010093493748192092,0.0859375,,
0.321089999999851,1200,,,,0.1875,0.171875,-1.140625,0.006221798916937053,0.07276184185174159,22.815918492661147,0.3964220272280179,760,0,9.044732661929954,0.49529589979943833,5.476070087556935,0.14690580293760813,0.008044664731551696,0.087890625,,
0.33068499999982304,1200,,,,-0.0625,0.1171875,-0.947265625,0.006221798916937053,0.07276184185174159,22.813984666500403,0.4458075839359831,762,0,10.17064738412511,0.49634179951745555,4.880139687982619,0.1465962405795377,0.007154101317612502,0.08984375,,
0.3437949999999255,1200,,,,-0.03125,0.037109375,-0.8828125,0.006221798916937053,0.07276184185174159,22.81105842396376,0.5200446729830817,763,0,11.862769418488204,0.49687588674423605,4.188531945751653,0.14643866565655123,0.006133630291957102,0.091796875,,
0.36086999999987895,1200,,,,0.03125,0.015625,-1.119140625,0.006221798916937053,0.07276184185174159,22.808838797958042,0.5769130375298533,997,0,13.158716473458743,0.6496885243913644,4.937324439673066,0.111994962385869,0.005529554649080168,0.09765625,,
0.37102499999990685,1200,,,,-0.125,0.078125,-0.89453125,0.006221798916937053,0.07276184185174159,22.808385368725308,0.5945335243940945,1037,0,13.560349739006956,0.675406418314592,4.980744828223384,0.10773045662389671,0.005365779146716171,0.099609375,,
0.3788299999998417,1200,,,,0,-0.029296875,-0.962890625,0.04590872298078,0.07276184185174159,22.808037136556834,0.6050571718040941,1048,0,13.800166444247827,5.040272164434802,36.523270822836224,0.014436093821513077,0.005272533642669949,0.099609375,,
0.39646999999997207,1200,,,,-0.03125,0.078125,-1.021484375,0.04590872298078,0.07276184185174159,22.807550341048692,0.6156424065010856,1219,0,14.041295178357872,5.858102308971603,41.7205267360294,0.012420718863224331,0.005181989334138553,0.1015625,,
0.4059049999997951,1200,,,,-0.125,-0.0078125,-0.86328125,0.04590872298078,0.07276184185174159,22.807653704339835,0.6158228661493559,1236,0,14.045474674348531,5.942236034565078,42.30712149171773,0.012244858909760077,0.005180447335441619,0.1015625,,
0.41442499999981375,1200,,,,-0.03125,0.13671875,-1.046875,0.04590872298078,0.07276184185174159,22.807391046294978,0.6155201067216303,1301,0,14.03840777085744,6.254982089264187,44.55620745145334,0.011632621934541945,0.005183055161197774,0.103515625,,
0.4217399999999907,1200,,,,-0.03125,-0.009765625,-1,0.04590872298078,0.07276184185174159,22.807418184245172,0.6133452484380366,1350,0,13.98882157244605,6.491657724333707,46.40603706834322,0.011208514826497533,0.005201427545195191,0.103515625,,
0.4451449999997858,1200,,,,-0.041015625,0.041015625,-0.98828125,0.04590872298078,0.16584131355126738,22.807737509572537,0.6026223359732603,1409,0,13.744452056283553,6.775728446113026,49.29791612183889,0.02447579103415872,0.012066054934176127,0.1015625,,
0.45275,1200,,,,-0.0625,0.095703125,-1.025390625,0.04590872298078,0.16584131355126738,22.807934203298625,0.5954607574874226,1438,0,13.581229777419493,6.912865160400956,50.900141398788975,0.023990242786921127,0.012211067500455627,0.1015625,,
0.4607399999999907,1200,,,,0,0.015625,-1.05078125,0.04590872298078,0.16584131355126738,22.808186572819203,0.5889420094163375,1450,0,13.432699231338868,6.970192631526333,51.889739444658126,0.023792931173976958,0.012346089992423481,0.1015625,,
0.47023999999975785,1200,,,,-0.03125,0.056640625,-0.9296875,0.04590872298078,0.16584131355126738,22.808550825912274,0.5795172955865798,1469,0,13.217949690881733,7.060214164113059,53.41383746515146,0.023489558488782928,0.012546674592480203,0.1015625,,
0.47902000000001865,1200,,,,-0.0625,0.044921875,-0.984375,0.04590872298078,0.16584131355126738,22.808880635558904,0.5726183691578536,1488,0,13.060784031849886,7.154325852259707,54.77715453232551,0.023180564734675328,0.012697653766178858,0.1015625,,
0.49012999999988827,1200,,,,-0.03125,0.064453125,-1.0234375,0.04590872298078,0.16584131355126738,22.809050544893523,0.5657979720132089,1495,0,12.905314541847533,7.188688085238972,55.70331557536633,0.02306976065518836,0.012850621580241271,0.1015625,,
0.5078449999997392,1200,,,,-0.09375,0.1484375,-0.951171875,0.04590872298078,0.16584131355126738,22.80940062697803,0.5556725472019289,1518,0,12.674557746542156,7.298918326573509,57.58716376959806,0.022721354881788617,0.013084583846447173,0.1015625,,
0.5164899999999907,1200,,,,-0.09375,0.138671875,-0.970703125,0.04590872298078,0.16584131355126738,22.809690393197133,0.547803891439573,1525,0,12.495237159925233,7.329742633984411,58.660292239129205,0.022625803091958892,0.013272362215193017,0.1015625,,
0.5249349999998231,1200,,,,-0.03125,-0.001953125,-0.9609375,0.04590872298078,0.16584131355126738,22.80999936188776,0.5390548264557444,1532,0,12.295840247478047,7.3674819797108535,59.91849138754035,0.022509904199015912,0.01348759500883093,0.1015625,,
0.5331599999999161,1200,,,,-0.0625,0.06640625,-0.9921875,0.045022949130918345,0.16584131355126738,22.81029410162337,0.5300746751329231,1547,0,12.091159235604438,7.293671428283311,60.32235029049884,0.022737700098220757,0.013715915101251825,0.1015625,,
0.5417399999997579,1200,,,,-0.03125,0.02734375,-1.005859375,0.045022949130918345,0.16584131355126738,22.810609186305708,0.5190370845889387,1553,0,11.839552089757778,7.322257088472022,61.845727211305565,0.022648933456920515,0.014007397602037182,0.1015625,,
0.5514949999998789,1200,,,,-0.03125,0.083984375,-0.974609375,0.045022949130918345,0.16584131355126738,22.81087060002954,0.5105160630207979,1555,0,11.645315852803945,7.331801131810347,62.95922948320036,0.022619450605627422,0.014241031814636124,0.1015625,,
0.5616650000000373,1200,,,,-0.0625,0.087890625,-0.978515625,0.045022949130918345,0.16584131355126738,22.81134879177991,0.49907118371351933,1563,0,11.384486843615559,7.368534770842604,64.72434701766898,0.022506688060630966,0.01456730688254706,0.1015625,,
0.5698700000001118,1200,,,,-0.09375,0.087890625,-1.0234375,0.045022949130918345,0.16584131355126738,22.8116828026271,0.4903760126483787,1565,0,11.18630205455187,7.378687890537314,65.96181521430327,0.02247571872011934,0.014825392050251684,0.1015625,,
0.5788499999998603,1200,,,,0.0625,0.06640625,-1,0.045022949130918345,0.4596123242586401,22.81206313825412,0.4830670033901672,1566,0,11.019754981343713,7.382238097218668,66.99094589413913,0.06225921166533543,0.04170803480084241,0.1015625,,
0.586464999999851,1200,,,,-0.0625,-0.0234375,-0.916015625,0.045022949130918345,0.4596123242586401,22.81225183464729,0.47604755990814546,1568,0,10.859716821893958,7.390553100251408,68.05474969063216,0.06218916473829344,0.04232268039734049,0.103515625,,
0.5947949999999255,1200,,,,-0.0625,0.12890625,-0.986328125,0.045022949130918345,0.4596123242586401,22.812527920565085,0.4669436424980597,1568,0,10.652164881817349,7.394116069766961,69.41420971044397,0.0621591979246717,0.04314731600176155,0.103515625,,
0.6021349999997765,1200,,,,-0.0625,0.0390625,-0.9609375,0.045022949130918345,0.4596123242586401,22.812851925646626,0.46045229605078253,1569,0,10.504230048630504,7.395259909374187,70.40268420566768,0.06214958363749167,0.04375497510344058,0.1015625,,
0.6096550000000279,1200,,,,0.0625,0.00390625,-1.01953125,0.045022949130918345,0.4596123242586401,22.81299207899778,0.45522950675711943,1570,0,10.385147131776232,7.404483684204847,71.2987846031452,0.062072163821372095,0.04425669838151151,0.1015625,,
0.6179849999998697,1200,,,,-0.0625,0.04296875,-0.9609375,0.045022949130918345,0.4596123242586401,22.81321323540342,0.44686994209533665,1571,0,10.194539277513295,7.408711911978116,72.67333726713827,0.062036738601693606,0.045084168273541746,0.1015625,,
0.6261399999998976,1200,,,,0,0.013671875,-0.96484375,0.045022949130918345,0.4596123242586401,22.813346916718164,0.44096519501403325,1572,0,10.05989197205342,7.410277795360672,73.66160408030794,0.06202362947127138,0.04568760037736512,0.1015625,,
0.6348900000001304,1200,,,,-0.09375,0.11328125,-0.984375,0.045022949130918345,0.4596123242586401,22.813561394350106,0.43430067320418136,1572,0,9.907945071751174,7.411636954897103,74.80498631374768,0.06201225546469322,0.04638825921321001,0.1015625,,
0.645619999999879,1200,,,,0.0625,-0.05078125,-0.9765625,0.045022949130918345,0.4596123242586401,22.813812066166495,0.4287592712163698,1572,0,9.78163343515677,7.413428936737097,75.78927370240676,0.06199726579707813,0.046987277462956153,0.103515625,,
0.6537449999998789,1200,,,,-0.0625,0.03515625,-0.98828125,0.045022949130918345,0.4596123242586401,22.813963115638337,0.42225525650248674,1573,0,9.633315847232138,7.414254326163726,76.96471748400113,0.0619903639718348,0.04771070849822668,0.103515625,,
0.663059999999823,1200,,,,-0.0625,0.02734375,-0.88671875,0.045022949130918345,0.4596123242586401,22.814140045162077,0.41742406009021715,1573,0,9.523170965118364,7.414467689743935,77.85713095881378,0.06198858009650497,0.04826252998524505,0.103515625,,
0.6725749999999534,1200,,,,-0.03125,0.068359375,-0.984375,0.045022949130918345,0.4596123242586401,22.814388706409513,0.4119100932030902,1573,0,9.39747697842867,7.414549051734144,78.89935850605204,0.06198789987789536,0.04890805535503326,0.103515625,,
0.6814449999998323,1200,,,,0,0.017578125,-0.986328125,0.04466639467289931,0.4596123242586401,22.81424313529579,0.4066568545488496,1573,0,9.27756835231207,7.35586066905817,79.28651549330822,0.06248246737352734,0.049540171174713016,0.1015625,,
0.6897949999999254,1200,,,,0,0.0390625,-0.990234375,0.04466639467289931,0.4596123242586401,22.814528812656366,0.40189129845427113,1573,0,9.168960608140848,7.356966836171255,80.23774068392466,0.06247307273412062,0.05012698209768334,0.1015625,,
0.6980999999998603,1200,,,,-0.0625,0.01171875,-0.939453125,0.04466639467289931,0.4596123242586401,22.81473037554977,0.39797250651635374,1573,0,9.079635433052335,7.359568014415901,81.05576560513738,0.06245099214496731,0.05062012981110746,0.1015625,,
0.705969999999972,1200,,,,0,0.09765625,-0.96484375,0.04466639467289931,0.4596123242586401,22.81479271664008,0.3963460990092008,1574,0,9.042554092943822,7.360602951782312,81.39960099908069,0.0624422112250123,0.05082771079216318,0.1015625,,
0.7137549999998882,1200,,,,-0.0625,0.02734375,-1.015625,0.04466639467289931,0.4596123242586401,22.81485219856996,0.3962912846184659,1574,0,9.04132708615172,7.361011918990104,81.41517112310542,0.06243874202579701,0.050834608667416986,0.1015625,,
0.7228999999999068,1200,,,,-0.0625,0.060546875,-0.99609375,0.04466639467289931,0.4596123242586401,22.814767957829062,0.3959919225583143,1575,0,9.034463826342556,7.367462542222142,81.54842040255011,0.06238407343432708,0.05087322646846062,0.1015625,,
0.7308599999998696,1200,,,,0,0.04296875,-0.984375,0.04466639467289931,0.685133171758632,22.814892555922572,0.39258453175793234,1576,0,8.9567739111744,7.369605935725935,82.27969142474025,0.09296740934780302,0.07649329753694745,0.1015625,,
0.7389599999999628,1200,,,,-0.03125,0.015625,-0.958984375,0.04466639467289931,0.685133171758632,22.815046662743583,0.38819676127070046,1576,0,8.856727222716962,7.370468351355593,83.21887042485393,0.0929565312674629,0.07735737530690878,0.1015625,,
0.7469449999998323,1200,,,,-0.0625,0.046875,-0.98828125,0.04466639467289931,0.685133171758632,22.815289075420683,0.3847166720640508,1579,0,8.77742208527514,7.38706316587587,84.15982613241634,0.09274770722464737,0.07805630914206578,0.1015625,,
0.7552599999997764,1200,,,,0.0625,0.0234375,-0.98828125,0.04466639467289931,0.685133171758632,22.815583771690758,0.3820557691162723,1582,0,8.716825405730054,7.4017239881148456,84.91306919201664,0.09256399898979877,0.07859893250910542,0.1015625,,
0.7645,1200,,,,-0.09375,0.107421875,-0.97265625,0.04466639467289931,0.685133171758632,22.81582948117846,0.3794104535743708,1584,0,8.656564212129421,7.407937815639916,85.57595870726689,0.09248635569161409,0.07914608555651163,0.1015625,,
0.772839999999851,1200,,,,-0.0625,0.009765625,-0.943359375,0.04466639467289931,0.685133171758632,22.815911882139655,0.3745728758676689,1584,0,8.54622172923637,7.41012517478978,86.70644653929305,0.09245905508985801,0.08016796117222325,0.1015625,,
0.7804750000000932,1200,,,,0,0.0234375,-0.923828125,0.04466639467289931,0.685133171758632,22.81591622658538,0.37179920090856755,1584,0,8.482939421041264,7.410863358753399,87.36197432191176,0.09244984539478542,0.08076601019443956,0.1015625,,
0.7887550000001211,1200,,,,-0.0625,0,-0.953125,0.04466639467289931,0.685133171758632,22.81611951138908,0.3692952239571178,1584,0,8.425883964790795,7.4111628244919245,87.95709572385424,0.09244610973792787,0.08131291323516854,0.1015625,,
0.8000100000000093,1200,,,,-0.0625,0.03125,-0.984375,0.04466639467289931,0.685133171758632,22.816210875942886,0.3667606910053342,1584,0,8.368089266984235,7.408641909381551,88.53445121112506,0.09247756608279972,0.08187450562481227,0.1015625,,
0.817125,1200,,,,0,0.001953125,-0.962890625,0.04466639467289931,0.685133171758632,22.816593131782696,0.36240912350873605,1582,0,8.268941518344814,7.399331310529621,89.483415671934,0.09259393085746181,0.08285621203616572,0.1015625,,
0.8250849999999628,1200,,,,-0.03125,0.052734375,-0.98828125,0.04466639467289931,0.685133171758632,22.81665981188722,0.3599563350921832,1582,0,8.213001244932027,7.398240947699642,90.07962773979673,0.09260757747713833,0.08342056105025007,0.103515625,,
0.8343049999999348,1200,,,,-0.0625,0.0234375,-0.9609375,0.03364762655368173,0.685133171758632,22.816774685710207,0.3562610094446581,1581,0,8.12872718180244,5.5720827578406285,68.54803505172,0.12295818305902986,0.08428541842226184,0.1015625,,
0.8429399999999441,1200,,,,-0.03125,0.052734375,-0.986328125,0.03364762655368173,0.685133171758632,22.816733493872036,0.35509938268645397,1581,0,8.102207978595297,5.571720366036331,68.76792574019207,0.12296618041619867,0.08456129163416211,0.103515625,,
0.8508449999999721,1200,,,,-0.09375,0.005859375,-0.966796875,0.03364762655368173,0.685133171758632,22.816697701396848,0.3522851178687379,1581,0,8.03798303911195,5.571095578073234,69.3096209703963,0.12297997084364967,0.08523695166123747,0.103515625,,
0.8603850000000093,1200,,,,0.0625,0.07421875,-0.9609375,0.03364762655368173,0.685133171758632,22.816728639047128,0.3509990445158484,1581,0,8.008649951282935,5.569860359848128,69.54805608598078,0.12300724389745979,0.08554914697562452,0.103515625,,
0.86825,1200,,,,-0.0625,0.04296875,-0.970703125,0.03364762655368173,0.685133171758632,22.816684588063026,0.3468380290407663,1581,0,7.913693911768609,5.569312379974105,70.3756354752598,0.12301934691654297,0.08657564715003155,0.103515625,,
0.8760299999997951,1200,,,,-0.0625,0.11328125,-1.0546875,0.03364762655368173,0.685133171758632,22.816655319482305,0.3464007352743126,1581,0,7.903706179169226,5.569161433520135,70.46265773641804,0.12302268123076755,0.08668505081380032,0.103515625,,
0.8846750000000466,1200,,,,0.0625,-0.0390625,-0.95703125,0.03364762655368173,0.7783850897488452,22.816838653155177,0.3445590064297658,1580,0,7.861747256199423,5.566458412988103,70.80434198134064,0.1398348881818025,0.0990091724374687,0.103515625,,
0.8931949999998323,1200,,,,-0.0625,0.07421875,-0.9453125,0.03364762655368173,0.7783850897488452,22.81679714146506,0.3425511400748141,1580,0,7.815919873664615,5.565533099826218,71.20765296710663,0.13985813681948098,0.09958969671267719,0.103515625,,
0.9009849999998696,1200,,,,-0.09375,0.01953125,-0.962890625,0.03364762655368173,0.7783850897488452,22.816956019043513,0.34064403165122054,1579,0,7.772459888335566,5.5651716014256705,71.60116206939249,0.13986722162339804,0.1001465560365256,0.103515625,,
0.9100249999999068,1200,,,,-0.03125,0.087890625,-1.025390625,0.03364762655368173,0.7783850897488452,22.816902641640635,0.3407841388988316,1579,0,7.775638519069979,5.562899537308391,71.54267168754333,0.13992434782050134,0.10010561677215746,0.103515625,,
0.9183900000001304,1200,,,,-0.03125,0.0703125,-0.978515625,0.03364762655368173,0.7783850897488452,22.817053975827548,0.3392030109750628,1579,0,7.7396134101812315,5.562150521473008,71.86599932958103,0.13994319045193832,0.10057157231198431,0.103515625,,
0.9265,1200,,,,-0.125,-0.0078125,-0.96875,0.03364762655368173,0.7783850897488452,22.81706784830441,0.3385410641295505,1578,0,7.724514429681128,5.561852723530454,72.00261937707391,0.13995068342168468,0.10076815789972929,0.103515625,,
0.9351099999998697,1200,,,,-0.0625,0.072265625,-1.021484375,0.03364762655368173,0.7783850897488452,22.816938080395865,0.33738264575083915,1578,0,7.69803893749703,5.561208779471796,72.24188945554995,0.1399668886056057,0.10111472494083439,0.10546875,,
0.9436100000001024,1200,,,,0,0.068359375,-1.005859375,0.03364762655368173,0.7783850897488452,22.816693852740606,0.3363797857759208,1578,0,7.675074590299654,5.560486830256756,72.4486357081731,0.1399850612923587,0.10141726710156379,0.10546875,,
0.9540500000000466,1200,,,,-0.125,0.14453125,-0.9453125,0.03364762655368173,0.7783850897488452,22.81687448635592,0.3353278738113083,1578,0,7.651134008529218,5.5601894283121425,72.67144219554692,0.13999254877637013,0.10173460416209265,0.10546875,,
0.9620599999998231,1200,,,,-0.01953125,-0.013671875,-0.966796875,0.03364762655368173,0.7783850897488452,22.81673819476162,0.33447055324756264,1577,0,7.6315270473067125,5.558230341160188,72.83247909239576,0.14004189138846848,0.10199598126610188,0.10546875,,
0.970589999999851,1200,,,,0.0625,0.01171875,-0.9765625,0.03364762655368173,0.7783850897488452,22.81683276233514,0.3329804057331663,1577,0,7.597558230748156,5.556837268826226,73.13977859803815,0.1400769992160062,0.10245200709336258,0.10546875,,
0.9787999999998137,1200,,,,-0.0625,0.099609375,-0.95703125,0.02749068974095659,0.7783850897488452,22.816572307207053,0.33247576062456174,1577,0,7.585957232683977,4.539560953646016,59.84163651868995,0.17146704223096149,0.10260868416120057,0.10546875,,
0.9868999999999069,1200,,,,-0.125,0.0078125,-1.0234375,0.02749068974095659,0.7783850897488452,22.816740796824558,0.33129414982158667,1577,0,7.559052743983504,4.540207538893169,60.063181097748895,0.17144262306973818,0.10297389317310787,0.10546875,,
0.9969849999998697,1200,,,,0,0.025390625,-0.9609375,0.02749068974095659,0.7783850897488452,22.816773517334138,0.33170760760665874,1577,0,7.568497356737875,4.541335830407579,60.003136902262945,0.17140002827735953,0.10284539361778144,0.10546875,,
1.00475,1200,,,,-0.0625,0.013671875,-0.921875,0.02749068974095659,0.7783850897488452,22.81695860101412,0.33087003221837685,1578,0,7.549447827442913,4.541747526447617,60.1599962044636,0.17138449136948583,0.10310490350292194,0.107421875,,
1.0133449999997393,1200,,,,-0.09375,0.060546875,-0.958984375,0.02749068974095659,0.7783850897488452,22.816913511227735,0.33144834858056516,1578,0,7.562628303002017,4.541876285604217,60.056849333733616,0.17137963273372048,0.10292520781959652,0.10546875,,
1.0212099999999626,1200,,,,-0.0625,0.046875,-1.001953125,0.02749068974095659,0.7783850897488452,22.81699956295773,0.3315962563252738,1577,0,7.566031635652191,4.539908173835522,60.00382224735679,0.17145392812895374,0.10287891027060825,0.107421875,,
1.0301699999999254,1200,,,,0.0625,0.07421875,-0.98828125,0.02749068974095659,0.8088656021001714,22.816869333172594,0.3307873787357522,1577,0,7.547532397676332,4.539077109604641,60.139882420406586,0.17820045409420784,0.10716954356488723,0.107421875,,
1.0382050000000744,1200,,,,-0.09375,0.015625,-0.96484375,0.02749068974095659,0.8088656021001714,22.816724729653245,0.3291120049883734,1577,0,7.509258023043982,4.53879791287968,60.44269485681909,0.17821141580348082,0.10771578225411499,0.107421875,,
1.0466699999999256,1200,,,,0.125,-0.046875,-0.95703125,0.02749068974095659,0.8088656021001714,22.816689063845228,0.32809133992804196,1578,0,7.485958087678482,4.5423464879078805,60.67822494737659,0.17807219335941055,0.10805104605535054,0.107421875,,
1.0551599999999162,1200,,,,-0.09375,0.076171875,-1.021484375,0.02749068974095659,0.8088656021001714,22.81675753907725,0.32819757933175076,1578,0,7.4884045925246285,4.5437815611078225,60.6775649601478,0.178015952400441,0.10801574515720334,0.107421875,,
1.0632349999998696,1200,,,,-0.0625,0.08984375,-0.98046875,0.02749068974095659,0.8088656021001714,22.81665468858894,0.3276516694378953,1579,0,7.475914999704147,4.54430324250839,60.78591373347913,0.17799551634976044,0.10819620101782614,0.109375,,
1.0715900000000838,1200,,,,0.0625,0.0703125,-0.9609375,0.02749068974095659,0.8088656021001714,22.816490717972727,0.3267030593592367,1578,0,7.454217321403317,4.543966397634695,60.95833005280904,0.1780087111826391,0.10851113768546473,0.109375,,
1.0799699999999721,1200,,,,-0.09375,-0.02734375,-0.958984375,0.02749068974095659,0.8088656021001714,22.81653695587564,0.3259399278209044,1578,0,7.436820408521105,4.543541509664111,61.09521623593497,0.178025357615797,0.10876497719016769,0.109375,,
1.088244999999879,1200,,,,-0.0625,0.017578125,-0.974609375,0.02749068974095659,0.8088656021001714,22.81651061896995,0.325825529891643,1578,0,7.434201662704183,4.543396492008298,61.11478674033766,0.17803103988897792,0.1088032903597543,0.109375,,
1.0975649999999442,1200,,,,0,0.08203125,-0.96484375,0.02749068974095659,0.8088656021001714,22.816266424178817,0.32441294323354414,1578,0,7.401892144268541,4.542343254781296,61.36732562765778,0.1780723201067544,0.10927822053263707,0.109375,,
1.109619999999879,1200,,,,-0.125,0.14453125,-1.046875,0.02749068974095659,0.8088656021001714,22.81615898208938,0.3242137425594954,1577,0,7.397312294415645,4.539735104071534,61.37006149515488,0.1781746255138824,0.10934587724663154,0.109375,,
1.1176149999997578,1200,,,,-0.01953125,0,-0.9765625,0.02749068974095659,0.8088656021001714,22.81596692833523,0.32358412438437356,1577,0,7.38288468048818,4.538987574666763,61.47986554175231,0.17820396923196152,0.1095595606738756,0.109375,,
1.126375,1200,,,,0.0625,0.0625,-0.98828125,0.02749068974095659,0.8088656021001714,22.815968443061863,0.3227388243923769,1577,0,7.363598832687355,4.539347918251896,61.6457797524428,0.17818982300252187,0.1098465058294023,0.109375,,
1.1342099999999626,1200,,,,-0.0625,0.021484375,-0.966796875,0.024183459589989,0.8088656021001714,22.815970433041066,0.3218873265714206,1577,0,7.344171725824166,3.9939973239808184,54.3832235013896,0.20252031648683602,0.1101370763507576,0.109375,,
1.141280000000028,1200,,,,-0.0625,0.091796875,-1.00390625,0.024183459589989,0.8088656021001714,22.816058698811688,0.32224555652899495,1577,0,7.352373533196789,3.9942102988947403,54.325453962049586,0.2025095179199746,0.11001421492638436,0.109375,,
1.1488849999997766,1200,,,,-0.0625,-0.0078125,-0.91796875,0.024183459589989,0.8088656021001714,22.81588092649274,0.32316054498038177,1578,0,7.373192514412891,3.9951394341584834,54.1846618862712,0.2024624210069772,0.10970357826938952,0.109375,,
1.1571799999999348,1200,,,,0.0625,0,-0.9609375,0.024183459589989,0.8088656021001714,22.815755841830168,0.32243705329570754,1578,0,7.356645082354045,3.9964579829373177,54.324463640680285,0.20239562271230768,0.10995033647067604,0.109375,,
1.1650499999998138,1200,,,,-0.0625,0.03515625,-0.966796875,0.024183459589989,0.8088656021001714,22.815669678657972,0.32345403705882486,1578,0,7.379820465762543,3.9969776219674857,54.16090595307572,0.20236930966403877,0.10960505148502864,0.109375,,
1.173064999999944,1200,,,,0.0625,-0.0390625,-1.0234375,0.024183459589989,0.8088656021001714,22.815685872156134,0.3242024645231293,1578,0,7.396901589538561,3.9971816153823103,54.03859395717154,0.2023589818854922,0.10935194855696745,0.109375,,
1.1826049999999815,1200,,,,-0.03125,0.076171875,-0.990234375,0.024183459589989,0.8152626302086087,22.815477939110952,0.3260069080343358,1579,0,7.438003418255161,3.9993113208314126,53.768613644568454,0.2038507544941824,0.10960772459551471,0.109375,,
1.19070999999973,1200,,,,-0.09375,-0.052734375,-0.955078125,0.024183459589989,0.8152626302086087,22.815632599190902,0.32620678445706713,1580,0,7.442614145535901,4.0009497476564375,53.75731791841201,0.20376727567901848,0.10953982220045698,0.109375,,
1.1988699999998789,1200,,,,0.125,0,-1.046875,0.024183459589989,0.8152626302086087,22.815943147857244,0.32571119221606143,1580,0,7.431408044222461,4.0016409561080755,53.84768178917515,0.20373207870241278,0.10970500144214712,0.109375,,
1.2069249999998137,1200,,,,-0.03125,0.07421875,-0.978515625,0.024183459589989,0.8152626302086087,22.816240130608232,0.3256085600362786,1581,0,7.429163094369299,4.003129681933684,53.88399246434273,0.20365631268153217,0.10973815217847505,0.109375,,
1.2164799999999814,1200,,,,-0.09375,0.123046875,-1.009765625,0.024183459589989,0.8152626302086087,22.81630057731777,0.3263368227204502,1581,0,7.445799036636655,4.00508319985198,53.78983746600174,0.20355697735286477,0.10949296726881196,0.109375,,
1.2267999999998138,1200,,,,-0.03125,-0.001953125,-0.9921875,0.024183459589989,0.8152626302086087,22.816429706009547,0.32464860047546074,1582,0,7.407321971902728,4.005776942728608,54.07861245836516,0.2035217242159464,0.11006172450732438,0.111328125,,
1.2355749999999535,1200,,,,0,0.04296875,-0.939453125,0.024183459589989,0.8152626302086087,22.816566109991996,0.32471792725650694,1582,0,7.408948054347663,4.0054437121101785,54.062245850944166,0.20353865609039,0.1100375686572944,0.111328125,,
1.2441649999998043,1200,,,,-0.0625,0.025390625,-0.978515625,0.024183459589989,0.8152626302086087,22.816534863324854,0.32357531725947797,1581,0,7.382867507162279,4.0047681159970905,54.244074028309164,0.20357299264145484,0.11042628483007515,0.111328125,,
1.2524650000000839,1200,,,,-0.125,0.09765625,-1.0625,0.024183459589989,0.8152626302086087,22.81657437341756,0.3230416734290856,1581,0,7.370704367507998,4.004541092650327,54.330507546923144,0.2035845334949586,0.11060851033484678,0.111328125,,
1.262964999999851,1200,,,,0.03125,0.044921875,-0.966796875,0.024183459589989,0.8152626302086087,22.816651888061777,0.32307294951281557,1581,0,7.371443023483271,4.003693751495706,54.31356843892171,0.20362762009557842,0.11059742680115948,0.11328125,,
1.2814149999998043,1200,,,,-0.09375,0.03515625,-1.005859375,0.022661350112020983,0.8152626302086087,22.816774306147412,0.3235453768347576,1581,0,7.382261841036079,3.7508044885839666,50.80833719191884,0.2173567384517003,0.11043534458189701,0.11328125,,
1.2894999999997672,1200,,,,-0.0625,0.109375,-1.021484375,0.022661350112020983,0.8152626302086087,22.816932100198645,0.3238672077562567,1580,0,7.389656088855437,3.749180285664014,50.73551787231704,0.21745090075448806,0.11032484061580766,0.115234375,,
1.2986799999999348,1200,,,,0,-0.029296875,-0.94921875,0.022661350112020983,0.8152626302086087,22.81688102624718,0.3211114623495386,1579,0,7.326762032593673,3.747671601603792,51.15044797322449,0.21753843902964237,0.11127188607762191,0.115234375,,
1.3074699999999722,1200,,,,-0.125,0.015625,-0.9453125,0.022661350112020983,0.8152626302086087,22.81668519432059,0.32280623913710527,1579,0,7.365368337153902,3.7471294775206663,50.87497740769632,0.21756991187505942,0.11068864351238127,0.115234375,,
1.3151249999997672,1200,,,,0,0.025390625,-0.970703125,0.022661350112020983,0.8152626302086087,22.816651479240726,0.3216683988220802,1579,0,7.339395747808812,3.74812160961075,51.06853123065013,0.21751232086977973,0.11108034751389535,0.115234375,,
1.3231850000000558,1200,,,,0,0.064453125,-0.986328125,0.022661350112020983,0.8152626302086087,22.81661981559524,0.3220807373472189,1580,0,7.348793733978081,3.7496761570087216,51.024376145864835,0.21742214422564396,0.11093829269409733,0.11328125,,
1.3309150000000372,1200,,,,-0.125,0.015625,-1.01953125,0.022661350112020983,0.8152424196239677,22.8167189060809,0.3218402169346993,1580,0,7.343337762471132,3.7502896466746862,51.07064073561916,0.2173811882361749,0.1110179656709169,0.115234375,,
1.338844999999972,1200,,,,0,0.033203125,-0.994140625,0.022661350112020983,0.8152424196239677,22.816683977178567,0.32287823529205506,1580,0,7.367010657767924,3.750535416412885,50.909868203573794,0.21736694341195903,0.11066122440916518,0.11328125,,
1.3474750000000932,1200,,,,-0.0625,0.07421875,-0.98046875,0.022661350112020983,0.8152424196239677,22.81684836646078,0.32237749842061175,1580,0,7.3556384982220475,3.7492876445163694,50.97161375484427,0.21743928365067547,0.11083231181372254,0.11328125,,
1.3566299999998883,1200,,,,-0.0625,-0.0234375,-0.953125,0.022661350112020983,0.8152424196239677,22.81680143809274,0.3206415465373823,1580,0,7.316014500146425,3.7487707075630845,51.240613417155686,0.21746926745325587,0.11143258663684323,0.11328125,,
1.3642600000000094,1200,,,,-0.03125,0.08984375,-1.013671875,0.022661350112020983,0.8152424196239677,22.81669706545763,0.3208932974110314,1579,0,7.3217251573633035,3.7482641575989204,51.19372930612358,0.2174986568039002,0.11134567360864342,0.11328125,,
1.3726599999999163,1200,,,,0,0.03515625,-1.009765625,0.022661350112020983,0.8152424196239677,22.81666255718644,0.31941352251099236,1579,0,7.287950559335588,3.7473890698648047,51.41896942569871,0.2175494469415687,0.11186168360866185,0.11328125,,
1.381380000000121,1200,,,,-0.125,0.06640625,-0.91796875,0.022661350112020983,0.8152424196239677,22.816516584385322,0.3203582281260244,1579,0,7.309458824981732,3.7470295759025354,51.26274961829203,0.2175703188645376,0.11153252780324749,0.11328125,,
1.3894699999997393,1200,,,,0,-0.0078125,-0.974609375,0.022661350112020983,0.8152424196239677,22.816589861617686,0.32051912828434476,1579,0,7.313153492867119,3.746907378688837,51.235180313709826,0.21757741444605636,0.1114761806133447,0.11328125,,
1.398125,1200,,,,0,0.087890625,-0.99609375,0.022661350112020983,0.8152424196239677,22.816766845276984,0.3201169624094804,1580,0,7.304034094515411,3.7499645590975073,51.341005676758144,0.21740003319395895,0.11161536338338454,0.111328125,,
1.4068649999999907,1200,,,,-0.0625,0.08203125,-0.943359375,0.022661350112020983,0.8152424196239677,22.816949630330964,0.32289137214427227,1581,0,7.367396174284311,3.7511604833033427,50.915688454445586,0.21733072291965763,0.11065543379756725,0.11328125,,
1.4195100000000094,1200,,,,-0.09375,-0.04296875,-0.962890625,0.022661350112020983,0.8152424196239677,22.816952839472602,0.32778233405173146,1581,0,7.4789940576706115,3.7515970314584064,50.161786498689494,0.21730543360277904,0.10900428765387749,0.11328125,,
1.427964999999851,1200,,,,0,0.0703125,-0.970703125,0.022238916809030188,0.8152424196239677,22.817157430835085,0.32619146132013516,1583,0,7.442761925535677,3.686000168752748,49.52462816399244,0.22117264848086693,0.10953493176060343,0.11328125,,
1.4360400000000373,1200,,,,-0.0625,0.09375,-0.8984375,0.022238916809030188,0.8152424196239677,22.81728269796547,0.3254095522294196,1583,0,7.4249617458370265,3.6870564720257177,49.657582062196475,0.22110928482092457,0.10979752455708636,0.111328125,,
1.444649999999907,1200,,,,-0.09375,0.091796875,-1.046875,0.022238916809030188,0.8152424196239677,22.817207558238493,0.32313893402174737,1583,0,7.373128127722144,3.6875828771800347,50.01381792505588,0.221077721308707,0.1105694090081992,0.11328125,,
1.4537649999998976,1200,,,,-0.03125,0.037109375,-0.97265625,0.022238916809030188,0.8152424196239677,22.81714752935121,0.3215420115925906,1587,0,7.336671515392497,3.6947528570015518,50.360069266422514,0.2206487013276367,0.11111883882405958,0.11328125,,
1.4622700000000186,1200,,,,0,0.0078125,-0.97265625,0.022238916809030188,0.8152424196239677,22.817083404201885,0.3210508177738072,1588,0,7.325443286132179,3.697718428303,50.4777429005991,0.22047174100222347,0.11128915859157709,0.11328125,,
1.470589999999851,1200,,,,-0.0625,0.08984375,-0.9921875,0.022238916809030188,0.8152424196239677,22.817290637241918,0.3193786480600629,1588,0,7.287355436115854,3.6986930805737765,50.75494276350506,0.22041364391811055,0.11187081881359287,0.11328125,,
1.478625,1200,,,,-0.0625,0.0234375,-0.97265625,0.022238916809030188,0.8152340291153908,22.81742326696945,0.31990484719541673,1586,0,7.299404303613008,3.6927966154708414,50.590383295291744,0.22076331680439604,0.11168500814674316,0.11328125,,
1.4880749999999534,1200,,,,-0.03125,-0.0234375,-0.974609375,0.022238916809030188,0.8152340291153908,22.817491451783127,0.31927528376483655,1585,0,7.28506105806979,3.6903264442668626,50.65608118931307,0.22091108779330468,0.1119048999887711,0.11328125,,
1.4962349999998696,1200,,,,-0.0625,0.09375,-0.96875,0.022238916809030188,0.8152340291153908,22.817556001185203,0.31915654322003467,1584,0,7.282372298067827,3.689439892111212,50.66261021961348,0.22096417151517506,0.11194621693973135,0.11328125,,
1.5045100000000093,1200,,,,-0.0625,0.05859375,-0.984375,0.022238916809030188,0.8152340291153908,22.817577655686577,0.3171550120136049,1585,0,7.23670911551064,3.6904560154147217,50.996329360604875,0.22090333165067608,0.11265259057712808,0.111328125,,
1.5125499999998138,1200,,,,-0.03125,0.02734375,-0.994140625,0.022238916809030188,0.8152340291153908,22.817697111870135,0.3160838041304947,1585,0,7.212304504617315,3.690862217534056,51.174520088151674,0.22087901987846786,0.11303377839821908,0.111328125,,
1.5217099999999628,1200,,,,-0.0625,0.0625,-0.994140625,0.022238916809030188,0.8152340291153908,22.817677183157166,0.3180485495041303,1585,0,7.257129131156626,3.691030899733944,50.86075820102811,0.2208689255823229,0.11233561018163397,0.111328125,,
1.5306199999998789,1200,,,,-0.09375,0.048828125,-0.958984375,0.022238916809030188,0.8152340291153908,22.817732328179112,0.3177547750689443,1584,0,7.250443403523932,3.689567792099316,50.88747800315324,0.2209565117250585,0.11243919630062386,0.111328125,,
1.5385649999999442,1200,,,,-0.03125,0.017578125,-0.955078125,0.022238916809030188,0.8152340291153908,22.817843619893083,0.3180424609452911,1583,0,7.2570431383356055,3.68621980450388,50.795065348740785,0.2211571941855788,0.1123369413100063,0.111328125,,
1.5467549999998882,1200,,,,0,0.125,-0.96484375,0.022238916809030188,0.8152340291153908,22.817753186301328,0.31799651793954115,1582,0,7.255966060447692,3.684899711046348,50.7844121699074,0.22123642243818364,0.11235361664096469,0.111328125,,
1.5572700000000186,1200,,,,-0.0625,0.07421875,-0.9765625,0.022238916809030188,0.8152340291153908,22.8176577573965,0.3172385248467954,1582,0,7.238640087415503,3.6843506958810077,50.898382173832815,0.2212693894820593,0.11262253949228514,0.111328125,,
1.5649199999999255,1200,,,,0,-0.013671875,-1.01953125,0.022238916809030188,0.8152340291153908,22.817738259707408,0.317425825790363,1581,0,7.2429394097559845,3.6826903903318278,50.84524641157944,0.22136914665854773,0.11255568809774928,0.111328125,,
1.5748349999999627,1200,,,,0,0.03125,-0.974609375,0.022238916809030188,0.8152340291153908,22.817572091400198,0.3174116397595337,1581,0,7.242562972862709,3.6822177150044455,50.84136277173445,0.22139756315696466,0.11256153825241232,0.111328125,,
1.5833949999997858,1200,,,,-0.0625,0.015625,-0.95703125,0.021608076464904962,0.8152340291153908,22.817644729173388,0.3179673265220928,1581,0,7.255265492066185,3.5766693876460445,49.297567284852946,0.22793105561594285,0.11236446550534501,0.111328125,,
1.591739999999758,1200,,,,-0.0625,0.1171875,-1.046875,0.021608076464904962,0.8152340291153908,22.81756420877446,0.3172865446433007,1580,0,7.239706104978698,3.574891468349665,49.3789584343933,0.22804441374880133,0.11260595627697646,0.111328125,,
1.6010249999999069,1200,,,,0,0.0546875,-0.970703125,0.021608076464904962,0.8152340291153908,22.817477964883906,0.31703702748250023,1580,0,7.233985388634243,3.574146768036466,49.407713397541926,0.22809192851452406,0.11269500632338225,0.111328125,,
1.6095349999999162,1200,,,,-0.09375,0.0546875,-0.96875,0.021608076464904962,0.8152340291153908,22.817470122333454,0.3158499650373189,1579,0,7.206897140379089,3.573881608855371,49.58974076140875,0.22810885147829246,0.11311858810191217,0.111328125,,
1.6176399999998976,1200,,,,0,-0.09375,-1.015625,0.021608076464904962,0.8152340291153908,22.817398203780282,0.31463518509329247,1579,0,7.179156307193768,3.5737917751784107,49.78010816671237,0.22811458540409582,0.11355568735820636,0.11328125,,
1.6253549999999815,1200,,,,-0.0625,0.0859375,-0.984375,0.021608076464904962,0.8152340291153908,22.81732976633419,0.3137995492042867,1579,0,7.160067794721221,3.5737562900200888,49.912324749981416,0.22811685043884408,0.11385842320046526,0.11328125,,
1.634179999999935,1200,,,,-0.09375,0.12109375,-1.00390625,0.021608076464904962,0.8342307633686231,22.817460641289706,0.31459983722842455,1579,0,7.178369403715725,3.57374228906136,49.784875757598805,0.2334333860396333,0.11621452121658743,0.11328125,,
1.6428049999999348,1200,,,,-0.09375,-0.015625,-0.955078125,0.021608076464904962,0.8342307633686231,22.8176010595652,0.3135396864339555,1579,0,7.154223481391163,3.5723817427324627,49.933885236106725,0.2335222894545789,0.11660675201697838,0.11328125,,
1.6504350000000558,1200,,,,0.0625,0.0546875,-1.00390625,0.021608076464904962,0.8342307633686231,22.81758816051219,0.31434478474690186,1579,0,7.172589838759661,3.571927369959243,49.79968812181414,0.23355199503346624,0.11630816512894103,0.11328125,,
1.6585800000000746,1200,,,,-0.0625,0.017578125,-0.966796875,0.021608076464904962,0.8342307633686231,22.81770810730385,0.31480534300157426,1578,0,7.183136427229591,3.571744375036216,49.72402252443053,0.23356396084760808,0.11613739650081674,0.11328125,,
1.6711049999999814,1200,,,,0.0625,0.0859375,-1.0546875,0.021608076464904962,0.8342307633686231,22.81777295633125,0.31408255353934633,1578,0,7.166664396205559,3.570923670123074,49.82685769426743,0.23361764082172917,0.11640432944094779,0.11328125,,
1.67875,1200,,,,-0.0625,0.0546875,-0.94921875,0.021608076464904962,0.8342307633686231,22.817904294554214,0.3148362830083582,1578,0,7.183904174137902,3.5706925293295724,49.704066796771684,0.23363276353712173,0.11612498484763464,0.11328125,,
1.687744999999879,1200,,,,-0.03125,0.078125,-0.978515625,0.021608076464904962,0.8342307633686231,22.817608930565736,0.3152755719816391,1578,0,7.193834706837468,3.5706206818192534,49.63445543759176,0.2336374646616278,0.11596468328299485,0.11328125,,
1.696369999999879,1200,,,,-0.125,0.01953125,-0.953125,0.021608076464904962,0.8342307633686231,22.817740444415445,0.3146608640734734,1578,0,7.179849924444005,3.5709290182280506,49.73542700482806,0.23361729093752226,0.11619055720488818,0.11328125,,
1.7033300000000744,1200,,,,0,0.046875,-0.98046875,0.021608076464904962,0.8342307633686231,22.81766643170021,0.3147649914580709,1578,0,7.182202579467228,3.5710253952997553,49.72047719050347,0.23361098592764196,0.1161524969726635,0.11328125,,
1.7113400000000838,1200,,,,-0.03125,0.033203125,-0.986328125,0.021608076464904962,0.8342307633686231,22.817384150491073,0.3155307976755778,1578,0,7.199587421874534,3.5710715547351923,49.60105830349656,0.23360796628744238,0.11587202355984687,0.11328125,,
1.72,1200,,,,-0.125,0.03515625,-1,0.021608076464904962,0.8342307633686231,22.817643762604618,0.31518173419045215,1578,0,7.1917045312376775,3.569815651717745,49.6379632423996,0.23369015231002283,0.11599903190475676,0.11328125,,
1.7328049999999349,1200,,,,-0.03125,0.05859375,-0.97265625,0.021398857857547332,0.8342307633686231,22.817665477320855,0.31767340167321045,1577,0,7.248565410421895,3.533309286307727,48.74494587891253,0.23610465310847045,0.11508908537531812,0.111328125,,
1.752060000000056,1200,,,,0,0.0234375,-0.974609375,0.021398857857547332,0.8342307633686231,22.817786660260868,0.3179337172596957,1577,0,7.254543732535435,3.5327737610936096,48.69739423100726,0.23614044368082537,0.1149942427981012,0.111328125,,
1.7596099999998696,1200,,,,-0.1875,0.06640625,-0.90234375,0.021398857857547332,0.8342307633686231,22.81776492048773,0.3199848799335919,1577,0,7.3013397684351915,3.532838265384422,48.38616442228072,0.2361361321129846,0.11425721714460274,0.111328125,,
1.7796149999999906,1200,,,,0,0.07421875,-1.001953125,0.021398857857547332,0.8439226742326906,22.81789472456248,0.31992833949833016,1579,0,7.300091170076981,3.5381747545904867,48.46754200952227,0.23851921761008874,0.1156044019959536,0.111328125,,
1.7871599999999161,1200,,,,-0.09375,0.09765625,-0.958984375,0.021398857857547332,0.8439226742326906,22.817625743108398,0.3209879435306892,1580,0,7.324182763533279,3.540251137941992,48.33646636412074,0.2383793243332667,0.11522414192536774,0.11328125,,
1.7942900000000372,1200,,,,0,-0.125,-1.01953125,0.021398857857547332,0.8439226742326906,22.81773437426829,0.32140556356263816,1580,0,7.333746775784281,3.5411196215028986,48.28527258666095,0.23832086019012216,0.11507387697367563,0.11328125,,
1.8008499999998604,1200,,,,-0.03125,0.02734375,-0.96484375,0.021398857857547332,0.8439226742326906,22.817666045936214,0.3212360225177172,1581,0,7.3298562837341175,3.541730708923138,48.3192380835991,0.2382797404970648,0.11513495511575886,0.11328125,,
1.8082849999999162,1200,,,,-0.125,0.00390625,-0.9765625,0.021398857857547332,0.8439226742326906,22.817496387408347,0.32044159808933836,1581,0,7.311675006778835,3.542043504509375,48.44366716553264,0.23825869816626838,0.11542125073259807,0.11328125,,
1.8153499999998604,1200,,,,-0.03125,0.046875,-0.990234375,0.021398857857547332,0.8439226742326906,22.81743137239099,0.32029652471768094,1581,0,7.308343971561019,3.542168165115664,48.4674528032522,0.23825031305512104,0.11547385803359139,0.11328125,,
1.8233899999998975,1200,,,,-0.1875,0.1640625,-0.94140625,0.021398857857547332,0.8439226742326906,22.817557423841148,0.31982080277549335,1581,0,7.2975295326687935,3.5422259048345723,48.540069471142495,0.23824642947838845,0.11564498238132624,0.11328125,,
1.8311899999999441,1200,,,,0,0.033203125,-0.982421875,0.021398857857547332,0.8439226742326906,22.817546747631603,0.3192735531067211,1582,0,7.28503922329505,3.5450685541019697,48.662312520789996,0.23805538915635202,0.11584325744384685,0.11328125,,
1.8396450000000186,1200,,,,-0.03125,0,-0.958984375,0.021398857857547332,0.8439226742326906,22.81716005014428,0.31782788350125857,1583,0,7.251929686246828,3.5462487465358064,48.90076021091617,0.2379761642657149,0.11637215344671321,0.11328125,,
1.8515249999999068,1200,,,,-0.1875,0.0390625,-1.0390625,0.021398857857547332,0.8439226742326906,22.81717245366791,0.3186989052775119,1583,0,7.271807882512163,3.5467671361412902,48.77421397051544,0.23794138206401602,0.11605403881230482,0.115234375,,
1.8595649999999442,1200,,,,0.03125,0.048828125,-0.984375,0.021398857857547332,0.8439226742326906,22.817210937208312,0.318625059446722,1582,0,7.270135191276394,3.5445833926858574,48.75539861953443,0.23808797275699592,0.11608074018284191,0.115234375,,
1.8713649999999906,1200,,,,-0.03125,0.068359375,-0.982421875,0.021398857857547332,0.8439226742326906,22.81712285271586,0.3185144919682834,1581,0,7.267584293610701,3.542528936453096,48.74424283688751,0.23822604963042465,0.11612148413257835,0.115234375,,
1.8832749999999068,1200,,,,-0.041015625,0.009765625,-0.97265625,0.021867391900512623,0.8439226742326906,22.817226211122062,0.31754040341773687,1581,0,7.245391215953459,3.619576446657982,49.95694971843784,0.23315509056643882,0.11647717136025407,0.115234375,,
1.9028100000000558,1200,,,,-0.01953125,-0.015625,-0.994140625,0.021867391900512623,0.8439226742326906,22.81732743471207,0.31712578223870846,1581,0,7.2359628113298085,3.620285646753902,50.03184429147963,0.23310941637696092,0.11662894023049802,0.115234375,,
1.9127749999999069,1200,,,,-0.03125,0.04296875,-0.94921875,0.021867391900512623,0.8439226742326906,22.817407018023275,0.3163511606562668,1581,0,7.21831319331811,3.6196220530590053,50.14498479242544,0.23315215286620242,0.11691411159796972,0.115234375,,
1.9208349999999628,1200,,,,-0.125,0.04296875,-0.8828125,0.021867391900512623,0.8439226742326906,22.817403488075968,0.31574854020119614,1581,0,7.2045618425416675,3.619420057281715,50.237892829369265,0.2331651648265717,0.1171372656209953,0.115234375,,
1.9299449999998324,1200,,,,0,0.08984375,-1.03125,0.021867391900512623,0.862875439200034,22.817546448271685,0.3154651969645942,1581,0,7.198141784552804,3.6193355269546985,50.28152591717191,0.23840714207727945,0.11987474893197612,0.115234375,,
1.9488699999998789,1200,,,,-0.09375,0.029296875,-0.9765625,0.021867391900512623,0.862875439200034,22.817570542395767,0.3180938593947005,1580,0,7.258129075841499,3.6179760741477986,49.84722696913922,0.2384967234486981,0.11888400305143282,0.115234375,,
1.956559999999823,1200,,,,0,-0.00390625,-1.046875,0.021867391900512623,0.862875439200034,22.81750173616222,0.3183361321526092,1580,0,7.263635248075326,3.6178118130510457,49.80717904316123,0.23850755202005286,0.11879388346608862,0.115234375,,
1.9646249999997671,1200,,,,-0.0625,0.033203125,-0.984375,0.021867391900512623,0.862875439200034,22.817559587486237,0.3176283313980029,1580,0,7.247503378347757,3.6172485861072725,49.910271127488755,0.238544689052909,0.11905830106653185,0.11328125,,
1.9728949999997858,1200,,,,-0.125,0.134765625,-0.982421875,0.021867391900512623,0.862875439200034,22.817482775127548,0.3172817859551389,1579,0,7.239571685893087,3.6165437430794407,49.955216965757515,0.23859118000472643,0.11918874163252216,0.11328125,,
1.9812649999998975,1200,,,,0.0625,-0.0703125,-1.01171875,0.021867391900512623,0.862875439200034,22.817475657611382,0.3166456613273022,1579,0,7.225054669423976,3.616270250119132,50.05180466554785,0.23860922428892253,0.11942822285507046,0.115234375,,
1.9896850000000559,1200,,,,-0.03125,0.00390625,-0.955078125,0.021867391900512623,0.862875439200034,22.817171397850014,0.3152229309806682,1580,0,7.192495644718552,3.6170127464029167,50.288702629370206,0.23856024285735655,0.11996885112243942,0.115234375,,
1.9992299999999814,1200,,,,-0.09375,0.0390625,-0.9140625,0.021867391900512623,0.862875439200034,22.81732754845324,0.3153268124035139,1580,0,7.194915163420644,3.6181323617200345,50.28735265865015,0.23848642142816165,0.11992850778657427,0.115234375,,
2.007719999999972,1200,,,,-0.03125,0.07421875,-1.021484375,0.021867391900512623,0.862875439200034,22.817471353421475,0.31518912508384433,1580,0,7.191818832510596,3.6185273789607106,50.314495723990824,0.23846038701187422,0.11998014122650143,0.115234375,,
2.0158199999998323,1200,,,,-0.125,0.109375,-0.94140625,0.021867391900512623,0.862875439200034,22.81753071384537,0.31636298093176424,1580,0,7.218622034134207,3.6186659266664525,50.12959411858818,0.23845125708935572,0.11953464734956527,0.115234375,,
2.0239099999999164,1200,,,,-0.0625,0.005859375,-0.939453125,0.021867391900512623,0.862875439200034,22.81765403168401,0.31640008185938345,1579,0,7.219507603463912,3.6167654269538696,50.09712054626204,0.23857655593848376,0.1195199848236225,0.1171875,,
2.036519999999786,1200,,,,0.0625,0.0859375,-1,0.022294664115217543,0.862875439200034,22.817703230465288,0.31685625586415433,1579,0,7.2299320130246505,3.686690479811991,50.99204907003904,0.23405150064131172,0.11934765605618039,0.1171875,,
2.0445449999999257,1200,,,,-0.0625,0.0703125,-0.974609375,0.022294664115217543,0.862875439200034,22.817568776504736,0.3171334123181555,1579,0,7.236213446897147,3.686487703789541,50.94498290912478,0.2340643746927563,0.1192440556835745,0.1171875,,
2.0533649999999906,1200,,,,-0.0625,0.087890625,-0.97265625,0.022294664115217543,0.862875439200034,22.817492072661654,0.3173441935979193,1579,0,7.240998621725729,3.6866423457570545,50.91345183654277,0.23405455649721887,0.11916525389344529,0.1171875,,
2.0601799999999346,1200,,,,-0.09375,0.01171875,-0.947265625,0.022294664115217543,0.862875439200034,22.81732315835051,0.31701749463167495,1579,0,7.233490621861575,3.686703182187254,50.967138480072606,0.23405069422705888,0.1192889414402764,0.1171875,,
2.068969999999972,1200,,,,0.0625,-0.01171875,-0.9765625,0.022294664115217543,0.862875439200034,22.81725832021093,0.31744759399862,1579,0,7.243283755395953,3.6867276005636236,50.89856652125717,0.2340491440344327,0.11912765926879873,0.1171875,,
2.07795999999973,1200,,,,-0.0625,0.05859375,-1.01171875,0.022294664115217543,0.8973240199955265,22.817188328859526,0.3174285998310041,1580,0,7.2428281433102075,3.6884935254938895,50.92615001366204,0.24327656095732872,0.1238913863812072,0.1171875,,
2.086685000000056,1200,,,,-0.125,0.13671875,-1.001953125,0.022294664115217543,0.8973240199955265,22.817123820187987,0.3188262693568243,1580,0,7.274698465043267,3.689111847592617,50.71154310133562,0.24323578602830603,0.1233486204696169,0.1171875,,
2.0948899999998973,1200,,,,0.125,-0.0625,-0.96484375,0.022294664115217543,0.8973240199955265,22.81713423383309,0.31852745360579254,1580,0,7.267883666084411,3.68932471116608,50.762022077793,0.2432217520132324,0.12346427945495196,0.1171875,,
2.103284999999916,1200,,,,-0.09375,0,-0.970703125,0.022294664115217543,0.8973240199955265,22.81697889182604,0.3191025928838953,1579,0,7.280957126158797,3.6874225180794973,50.64474977927613,0.2433472203404766,0.12324259083625813,0.1171875,,
2.1113200000000654,1200,,,,-0.0625,0.041015625,-0.951171875,0.022294664115217543,0.8973240199955265,22.816997964834698,0.31876335789043353,1579,0,7.273222888249896,3.6866481641320603,50.68795801773033,0.2433983336749417,0.12337364518900963,0.1171875,,
2.1196699999999256,1200,,,,0,0.11328125,-1.0546875,0.022294664115217543,0.8973240199955265,22.817014761941913,0.3182483742337993,1579,0,7.261477852856613,3.686374713922693,50.766177197283604,0.24341638862878343,0.12357319517851668,0.1171875,,
2.1276350000000095,1200,,,,-0.0625,0.060546875,-0.98828125,0.022294664115217543,0.8973240199955265,22.81716088843786,0.31723698748152734,1579,0,7.238447383129357,3.6862692666630545,50.9262424875069,0.24342335165543047,0.12396636633526116,0.1171875,,
2.136125,1200,,,,0.0625,-0.00390625,-0.94140625,0.022294664115217543,0.8973240199955265,22.817169418077583,0.3174429591293213,1579,0,7.243149779029602,3.6862275383411927,50.89260405761004,0.24342610722270377,0.12388588492170391,0.1171875,,
2.145114999999991,1200,,,,-0.09375,0.064453125,-0.943359375,0.022294664115217543,0.8973240199955265,22.817178565733872,0.3167052209474065,1579,0,7.226319579057174,3.68621001241946,51.01089111949301,0.24342726458131558,0.12417441689073505,0.1171875,,
2.154334999999963,1200,,,,-0.0625,0.0078125,-0.982421875,0.022294664115217543,0.8973240199955265,22.817000899740442,0.3159996268496049,1579,0,7.21016377014508,3.6862037202151248,51.12510391897731,0.24342768010205337,0.12445265441973045,0.1171875,,
2.1620200000000187,1200,,,,-0.03125,0.0859375,-1.001953125,0.022294664115217543,0.8973240199955265,22.817146180781553,0.31647321413556573,1579,0,7.221015589232986,3.686201655291259,51.048243972601725,0.24342781646454065,0.12426562564599586,0.1171875,,
2.1701750000000466,1200,,,,-0.03125,0.0625,-0.9921875,0.022294664115217543,0.8973240199955265,22.817285707283755,0.3171408269412939,1579,0,7.236292857763736,3.6862008271318207,50.94045942567039,0.24342787115419354,0.12400327593607516,0.1171875,,
2.1786799999999347,1200,,,,-0.0625,0.021484375,-0.9453125,0.0234202499234171,0.8973240199955265,22.81721563723812,0.31642868595149515,1579,0,7.220021561163166,3.8721833165623276,53.631187715435416,0.23173593464892017,0.1242827341156811,0.1171875,,
2.1903249999999534,1200,,,,-0.0625,0.0078125,-0.97265625,0.0234202499234171,0.8973240199955265,22.817000758296683,0.3164662406533075,1579,0,7.220810452961817,3.8718939338465033,53.6213207515832,0.23175325443486178,0.12426915591274994,0.1171875,,
2.1984849999998697,1200,,,,0,0.0703125,-0.978515625,0.0234202499234171,0.8973240199955265,22.817000797877956,0.316950510788826,1579,0,7.231860057556469,3.8717815017657893,53.53783772018955,0.23175998428276162,0.12407928428564173,0.115234375,,
2.2056749999998138,1200,,,,-0.0625,0.099609375,-0.9765625,0.0234202499234171,0.8973240199955265,22.81695950509411,0.31776435491325916,1579,0,7.250416418218188,3.8719646626041504,53.403341811858276,0.23174902102335232,0.12376172184273612,0.1171875,,
2.213029999999795,1200,,,,-0.0625,0.009765625,-0.96875,0.0234202499234171,0.8973240199955265,22.816912998572658,0.31773241963923826,1579,0,7.2496729757344776,3.8725132055961042,53.41638469152842,0.231716193684974,0.12377441341133281,0.115234375,,
2.2207099999999627,1200,,,,0.0625,-0.01953125,-0.94140625,0.0234202499234171,0.8973240199955265,22.816932400762525,0.31790304318156043,1579,0,7.2535722462703545,3.8727248725961143,53.39058799045387,0.2317035290436208,0.1237078765510212,0.115234375,,
2.2285749999999536,1200,,,,-0.09375,0.125,-0.98046875,0.0234202499234171,0.9269258734176449,22.816888545796594,0.31694439721227646,1579,0,7.231684986407197,3.8728140379460716,53.55341175985239,0.23934169426560836,0.12817564304306825,0.115234375,,
2.236989999999758,1200,,,,0,-0.05859375,-1.0078125,0.0234202499234171,0.9269258734176449,22.816942993988558,0.3169523428770227,1578,0,7.231883539236142,3.8707819341996026,53.523842207896635,0.23946734514490645,0.12817212395479893,0.115234375,,
2.244754999999888,1200,,,,0,0.015625,-0.955078125,0.0234202499234171,0.9269258734176449,22.817159693706746,0.3169599689808522,1578,0,7.232126228748442,3.8699750672655946,53.51088939628913,0.23951727267136688,0.12816782286418338,0.115234375,,
2.253189999999944,1200,,,,-0.09375,0.072265625,-0.943359375,0.0234202499234171,0.9269258734176449,22.81720079296674,0.3163312817045091,1578,0,7.21779437174831,3.8696599680205255,53.6127765452427,0.23953677611932447,0.1284223165245317,0.1171875,,
2.2611049999999815,1200,,,,0,-0.0390625,-0.95703125,0.0234202499234171,0.9269258734176449,22.817273635760845,0.31680152596478606,1578,0,7.228547106165117,3.869881748445318,53.53609365213592,0.23952304842131855,0.12823128352128796,0.115234375,,
2.269,1200,,,,-0.0625,0.06640625,-0.96875,0.0234202499234171,0.9269258734176449,22.81721179749268,0.31681637021010917,1578,0,7.2288662199969105,3.8703110122533295,53.539668524326125,0.23949648244883048,0.12822562283052474,0.1171875,,
2.2770449999999256,1200,,,,-0.0625,0.0078125,-1.00390625,0.0234202499234171,0.9269258734176449,22.817217868104596,0.3170441641816207,1578,0,7.234065767943163,3.87048244828589,53.503556263442306,0.23948587438450986,0.12813345954431302,0.115234375,,
2.285024999999907,1200,,,,0,0.099609375,-0.990234375,0.0234202499234171,0.9269258734176449,22.81725584413575,0.3176787812072899,1578,0,7.248558027059957,3.870549214626326,53.3975060995164,0.23948174329237484,0.12787727848177405,0.115234375,,
2.2931149999999905,1200,,,,-0.09375,0.052734375,-0.93359375,0.0234202499234171,0.9269258734176449,22.817259758516627,0.3215076682859499,1578,0,7.335923981635517,3.870922602858786,52.76666732846621,0.23945864294292107,0.12635434551095093,0.1171875,,
2.3011850000000558,1200,,,,-0.0625,0.046875,-0.98046875,0.0234202499234171,0.9269258734176449,22.817197505941618,0.32408385796079714,1578,0,7.394685395579038,3.871069334127529,52.34934452305264,0.23944956636292272,0.125350278454282,0.1171875,,
2.309029999999795,1200,,,,-0.03125,0.0625,-1.029296875,0.0234202499234171,0.9269258734176449,22.817334524505732,0.32374314169053586,1578,0,7.3869555639674145,3.871126338658046,52.40489542865107,0.23944604033227457,0.12548144704417416,0.1171875,,
2.3168549999999812,1200,,,,-0.09375,0.1015625,-0.9921875,0.0234202499234171,0.9269258734176449,22.817269844957202,0.32215710820610544,1581,0,7.350745670409784,3.8775857347376794,52.75091682666684,0.23904716409329163,0.12609957070735808,0.1171875,,
2.325339999999851,1200,,,,0,-0.02734375,-0.94140625,0.0234202499234171,0.9269258734176449,22.8174051228039,0.3210472853299299,1583,0,7.325465972949428,3.8834359622271184,53.01281825029819,0.23868704993040762,0.1265347319666055,0.1171875,,
2.333094999999972,1200,,,,-0.03125,0.087890625,-0.990234375,0.024458333686005966,0.9269258734176449,22.817530677959137,0.32085662070884535,1584,0,7.321155786250378,4.05792723037141,55.427412677004774,0.22842348341786456,0.12660922680520936,0.1171875,,
2.3426999999999536,1200,,,,-0.1875,0.05859375,-0.9453125,0.024458333686005966,0.9269258734176449,22.81765141650014,0.31961374008701576,1585,0,7.292834909229403,4.058874648440185,55.65564967477189,0.22837016505889382,0.1271008990268763,0.1171875,,
2.350925000000047,1200,,,,-0.03125,0.0859375,-1.013671875,0.024458333686005966,0.9269258734176449,22.817467250114685,0.31972686403832873,1585,0,7.295357249176436,4.0597007214315655,55.64773023130375,0.2283236960114598,0.1270569544105992,0.1171875,,
2.3599099999999162,1200,,,,0,0.044921875,-0.96875,0.024458333686005966,0.9269258734176449,22.8173899269678,0.31786987492912344,1585,0,7.252960882294295,4.059949078280318,55.97643699128918,0.22830972890188686,0.12779965154374784,0.1171875,,
2.3696450000000184,1200,,,,-0.09375,0.0390625,-0.939453125,0.024458333686005966,0.9269258734176449,22.817197030239555,0.31764114965380624,1585,0,7.247680696562706,4.060044621262139,56.01853601508219,0.22830435620421652,0.12789275800426056,0.1171875,,
2.3780500000000466,1200,,,,-0.09375,0.0546875,-0.970703125,0.024458333686005966,0.9536199299974443,22.817354842452225,0.31614651374617303,1584,0,7.21362718635063,4.057741385318786,56.251054850695645,0.2350124957316681,0.1321970078800094,0.1171875,,
2.386364999999758,1200,,,,-0.03125,0.099609375,-1.00390625,0.024458333686005966,0.9536199299974443,22.817418972036187,0.3164056768413196,1584,0,7.219560893619076,4.056987780677034,56.19438412470147,0.23505615041273387,0.13208835607166775,0.1171875,,
2.3946449999997856,1200,,,,-0.125,0.046875,-0.94140625,0.024458333686005966,0.9536199299974443,22.8175503305966,0.31666209372299886,1584,0,7.225453261316624,4.056683523511907,56.144346614632965,0.23507377996592818,0.13198063782419034,0.1171875,,
2.403149999999907,1200,,,,-0.03125,-0.005859375,-0.9609375,0.024458333686005966,0.9536199299974443,22.817573818962202,0.31804395364680815,1583,0,7.256991390010638,4.055441213084873,55.88323032417058,0.23514579052966944,0.13140706371928687,0.1171875,,
2.411094999999972,1200,,,,0.125,0.08984375,-0.99609375,0.024458333686005966,0.9536199299974443,22.817627952241782,0.31821196963000986,1583,0,7.260842332967626,4.054988732077746,55.84735966054788,0.23517202956783964,0.1313373691737614,0.1171875,,
2.4193499999998602,1200,,,,-0.125,0.064453125,-0.982421875,0.024458333686005966,0.9536199299974443,22.817744008480776,0.31911233530806765,1583,0,7.281423577007969,4.054812172059824,55.68707999440405,0.23518226974074857,0.13096613868318577,0.1171875,,
2.4272249999998605,1200,,,,-0.0625,0.072265625,-1.04296875,0.024458333686005966,0.9536199299974443,22.817658414057647,0.32029400789809676,1583,0,7.308359264288254,4.053653234434715,55.46598200559988,0.2352495082452279,0.13048344991156033,0.119140625,,
2.436804999999935,1200,,,,0,0.08984375,-0.91796875,0.024458333686005966,0.9536199299974443,22.81778741655858,0.31987981066829607,1582,0,7.298949518678187,4.053169619772483,55.53086248096831,0.2352775776630276,0.13065166810060927,0.119140625,,
2.4455849999999626,1200,,,,0,-0.02734375,-0.958984375,0.024458333686005966,0.9536199299974443,22.818001812151714,0.3183999295113656,1582,0,7.265250168579318,4.052988836245168,55.78595013525472,0.23528807221707312,0.13125768664121854,0.119140625,,
2.4539799999999814,1200,,,,-0.125,0.0390625,-1.03125,0.024458333686005966,0.9536199299974443,22.817902834890685,0.31833593211089445,1583,0,7.263758367760747,4.054027540910078,55.81170704828723,0.23522778776765993,0.13128464380505317,0.119140625,,
2.462059999999823,1200,,,,0,0.09375,-0.998046875,0.024458333686005966,0.9536199299974443,22.818006516258112,0.31763239214555755,1583,0,7.247737993751985,4.054434211163312,55.94068404043434,0.23520419381125643,0.13157483490980576,0.1171875,,
2.4705049999998883,1200,,,,-0.0625,0.01953125,-0.966796875,0.024458333686005966,0.9536199299974443,22.818006233887168,0.31824929699778437,1583,0,7.261814442825653,4.054593637470482,55.834442884673805,0.2351949456006087,0.1313197875690115,0.119140625,,
2.4882299999999815,1200,,,,0,0.05859375,-0.96484375,0.02575023099334549,0.9536199299974443,22.818165297270017,0.31621301849558586,1581,0,7.21540092518098,4.263696216406182,59.09160503509011,0.22366038329091814,0.13216451031423804,0.1171875,,
2.4979499999999533,1200,,,,-0.0625,0.06640625,-0.966796875,0.02575023099334549,0.9536199299974443,22.81833429700839,0.31739854002981516,1581,0,7.242505991782722,4.262694051728705,58.85661753770196,0.22371296612542732,0.1316698848546915,0.1171875,,
2.5061249999997672,1200,,,,-0.09375,0.0859375,-0.98828125,0.02575023099334549,0.9536199299974443,22.81827017602084,0.31905177937479945,1580,0,7.280209701914367,4.261742834750691,58.53873733376176,0.22376289864830157,0.1309879754901408,0.1171875,,
2.5141750000000465,1200,,,,0.0625,0.05859375,-0.9765625,0.02575023099334549,0.9536199299974443,22.818348978647965,0.3199503639822346,1580,0,7.3007390611920675,4.260761932614787,58.36069330656352,0.22381441279264744,0.13061964302580303,0.1171875,,
2.522094999999972,1200,,,,-0.09375,0.021484375,-0.931640625,0.02575023099334549,0.9536199299974443,22.818331757141635,0.3207762466106543,1580,0,7.31957881497259,4.260331884170431,58.20460427935682,0.22383700517339683,0.13028344309193907,0.1171875,,
2.5312349999998696,1200,,,,-0.09375,0.044921875,-0.998046875,0.02575023099334549,0.9648824860029692,22.818350203714278,0.31961780166164955,1580,0,7.293150929656811,4.260153937336167,58.41307794704632,0.22649005181401988,0.13229981050842904,0.1171875,,
2.5394449999998323,1200,,,,0,0.04296875,-1.00390625,0.02575023099334549,0.9648824860029692,22.81843168600486,0.31981525758769397,1581,0,7.297682607406842,4.262003071917098,58.40214354610795,0.22639178567484092,0.13221765564641766,0.1171875,,
2.548329999999842,1200,,,,0,0.052734375,-0.98828125,0.02575023099334549,0.9648824860029692,22.81837229212542,0.3194334698633461,1581,0,7.288951837907257,4.2627644459668925,58.48254372868489,0.2263513497481355,0.13237602709692184,0.1171875,,
2.5586049999999814,1200,,,,-0.125,0.0390625,-0.90625,0.02575023099334549,0.9648824860029692,22.81831494577182,0.32050472860138085,1581,0,7.31337783883543,4.263043321584033,58.2910307046692,0.22633654251593313,0.13193390349384923,0.1171875,,
2.5750449999999256,1200,,,,-0.03125,0.08203125,-1,0.02575023099334549,0.9648824860029692,22.817893774376255,0.3193920804310943,1581,0,7.287854563653747,4.263724805939955,58.50452652011139,0.2263003664445593,0.13239595790166644,0.1171875,,
2.5838300000000745,1200,,,,-0.03125,0.033203125,-0.990234375,0.02575023099334549,0.9648824860029692,22.81779001105706,0.31819616388114924,1581,0,7.260533249763962,4.263790187367723,58.72557897185221,0.2262968963298462,0.13289416256503436,0.1171875,,
2.5922949999999254,1200,,,,-0.125,-0.0234375,-0.94921875,0.02575023099334549,0.9648824860029692,22.81802560285926,0.31772431332980783,1581,0,7.2498415162104335,4.26343452938259,58.80727902602665,0.22631577413778153,0.13309014877711745,0.1171875,,
2.5998799999998883,1200,,,,0,0.03125,-0.94140625,0.02575023099334549,0.9648824860029692,22.81799145148245,0.3181233583989767,1581,0,7.258936072464738,4.263290656930679,58.731618716172264,0.22632341157279395,0.13292340315036663,0.115234375,,
2.608304999999935,1200,,,,-0.0625,0.05859375,-0.97265625,0.02575023099334549,0.9648824860029692,22.8178936401875,0.3171137934046082,1581,0,7.235868809742742,4.263234472589683,58.91807307022271,0.22632639424517878,0.13334715033857472,0.1171875,,
2.6168849999997765,1200,,,,0,0.01953125,-1.03515625,0.02575023099334549,0.9648824860029692,22.817931658917097,0.31690097985349525,1581,0,7.231024900940918,4.262451400409425,58.946711687506216,0.22636797358212424,0.133436476740305,0.115234375,,
2.6266949999998324,1200,,,,-0.03125,0.09375,-0.9765625,0.02575023099334549,0.9648824860029692,22.81806273250195,0.31718898420612657,1581,0,7.237638139673966,4.262101676617222,58.88801836132163,0.22638654804893923,0.13331455198262154,0.1171875,,
2.6354449999998324,1200,,,,-0.125,0.00390625,-0.955078125,0.02679500372147463,0.9648824860029692,22.81805948071797,0.31855185024739735,1581,0,7.268735066637876,4.43492407478676,61.013698176209864,0.21756460082112286,0.1327442088832757,0.1171875,,
2.644299999999814,1200,,,,-0.0625,-0.0078125,-0.99609375,0.02679500372147463,0.9648824860029692,22.818313476919236,0.31799379236272585,1581,0,7.256082037847045,4.435303972469382,61.12532837053456,0.21754596573135557,0.13297568591014167,0.1171875,,
2.6552249999998603,1200,,,,-0.03125,0.107421875,-0.962890625,0.02679500372147463,0.9648824860029692,22.818396418626243,0.31795023764670355,1581,0,7.255114564018903,4.4354321374909995,61.13524601648789,0.21753967958323367,0.13299341829668937,0.1171875,,
2.6728850000000093,1200,,,,-0.0625,0.044921875,-0.98046875,0.02679500372147463,0.9648824860029692,22.818385535987417,0.31664951580592965,1579,0,7.225430731443444,4.431682277386992,61.33450644127431,0.21772375039753145,0.13353978771175792,0.119140625,,
2.681415000000037,1200,,,,-0.09375,0.107421875,-0.9375,0.02679500372147463,0.9733828676873004,22.81846561253636,0.31699476728190673,1579,0,7.2333341965761555,4.43043544894217,61.25025235304741,0.21970365642494794,0.13456904398915287,0.1171875,,
2.6895399999998046,1200,,,,0.0625,0.03515625,-0.94140625,0.02679500372147463,0.9733828676873004,22.81840969794377,0.3174293932367202,1579,0,7.2432339450451835,4.429947775939846,61.15980526861489,0.21972784261114459,0.1343851206619046,0.1171875,,
2.699104999999981,1200,,,,-0.03125,0.03515625,-1.013671875,0.02679500372147463,0.9733828676873004,22.81834770557356,0.31766129353733774,1579,0,7.24850584853724,4.430027299035329,61.1164202885939,0.21972389829274003,0.13428738115507358,0.1171875,,
2.7073299999998417,1200,,,,-0.09375,0.017578125,-0.96484375,0.02679500372147463,0.9733828676873004,22.81843320587551,0.31695949950500685,1579,0,7.232519168422731,4.430188681031192,61.253742684477785,0.21971589423607377,0.13458420849226396,0.1171875,,
2.7169999999997674,1200,,,,-0.0625,0.0078125,-0.962890625,0.02679500372147463,0.9733828676873004,22.81822294273313,0.31769422181801776,1579,0,7.249217581061641,4.43025192025004,61.11351839988824,0.21971275792198372,0.13427419673955343,0.1171875,,
2.725310000000056,1200,,,,0,0,-1.015625,0.02679500372147463,0.9733828676873004,22.818102444011018,0.3176623353680067,1579,0,7.248451711030961,4.429441781231819,61.108798924478336,0.21975294309356616,0.13428838412567065,0.1171875,,
2.7330500000000466,1200,,,,-0.0625,0.046875,-0.99609375,0.02679500372147463,0.9733828676873004,22.81799967778716,0.31763517216043735,1578,0,7.247799256010729,4.429163227335,61.110456717765956,0.21976676354575872,0.13430047291666594,0.1171875,,
2.741375,1200,,,,-0.03125,0.072265625,-0.9375,0.02679500372147463,0.9733828676873004,22.81770527071034,0.3172895503009784,1578,0,7.239819444243948,4.429052908375232,61.176289581317825,0.21977223750175956,0.134448500433418,0.1171875,,
2.7520299999997953,1200,,,,0,-0.04296875,-0.97265625,0.02679500372147463,0.9733828676873004,22.81775859854155,0.31727945700399773,1578,0,7.239606058193563,4.429006775691013,61.17745551470165,0.21977452665681083,0.13445246327811658,0.1171875,,
2.7595249999999067,1200,,,,-0.0625,0.03515625,-0.9609375,0.02679500372147463,0.9733828676873004,22.817833017272285,0.31804951896633915,1578,0,7.257200814997701,4.428989656624198,61.02889763600404,0.21977537613605955,0.13412648933121865,0.1171875,,0.26670999999996275,3816,
2.767934999999823,1200,,,,0,0.0859375,-1.0390625,0.02679500372147463,0.9733828676873004,22.817742503064604,0.31864655216283355,1578,0,7.27079497674088,4.428984486102793,60.914721158704396,0.21977563270803224,0.13387571383887617,0.1171875,,
2.7881149999999906,1500,,,,-0.03125,-0.0234375,-0.939453125,0.027089806918324803,0.9733828676873004,22.817487664380142,0.31958189614273635,1578,0,7.292055972996103,4.475304944135412,61.37233395778,0.217500903254169,0.1334853807063366,0.1171875,,
2.7961249999997673,1500,,,,-0.09375,0.056640625,-0.974609375,0.027089806918324803,0.9733828676873004,22.81755147751504,0.3222674026095219,1577,0,7.353353048567831,4.474737373403154,60.853019620412105,0.21752849082783543,0.13237265520344904,0.119140625,,
2.8073799999998883,1500,,,,0,0.109375,-1,0.027089806918324803,0.9733828676873004,22.807444662718236,0.5627362586312177,1590,0,12.834576078436594,4.510239609687875,35.14132124134229,0.2158162208492205,0.0758406714595493,0.1171875,,
2.824685000000056,1500,,,,-0.09375,0.326171875,-1.197265625,0.027089806918324803,0.976819627158405,22.756150387203785,1.970843009855828,2035,0,44.848799921848574,5.772920756159242,12.871962608183193,0.1692071775134306,0.021780284619890948,0.140625,,
2.8335800000000746,1500,,,,-0.4375,-0.46875,-0.5078125,0.027089806918324803,0.976819627158405,22.740132327761245,2.372959515402319,2209,0,53.96141338866893,6.26757284475442,11.614916013431394,0.15585293563455654,0.01810218757842103,0.146484375,,
2.8416399999998974,1500,,,,-0.53125,0.099609375,-0.95703125,0.027089806918324803,0.976819627158405,22.729059985961936,2.671656276287209,2252,0,60.72423576560367,6.387681550968951,10.519163346288101,0.15292240531468426,0.016086157608124395,0.154296875,,
2.8505399999998042,1500,,,,0.15625,0.166015625,-1.3203125,0.027089806918324803,0.976819627158405,22.71853375013077,3.001153695745281,2260,0,68.18181152611886,6.411496385609828,9.403528950171312,0.15235439098910059,0.014326689263517265,0.16015625,,
2.8582899999998044,1500,,,,0.0625,-0.53515625,-0.66796875,0.027089806918324803,0.976819627158405,22.711395471766682,3.1969618119325958,2459,0,72.60746401893697,6.976138003482156,9.608017712425115,0.14002297928607824,0.013453432651271744,0.1640625,,
2.866994999999879,1500,,,,-0.25,0.083984375,-0.94921875,0.027089806918324803,0.976819627158405,22.705505595481473,3.364990120581248,2540,0,76.40380201159739,7.205389033911436,9.43066816598698,0.1355679231976375,0.012784960976289278,0.166015625,,
2.87575,1500,,,,-0.0625,-0.150390625,-1.0390625,0.027089806918324803,0.976819627158405,22.700484250824683,3.4994088528009413,2677,0,79.43827555020424,7.5940435567106475,9.559678258513157,0.1286297108863981,0.012296586505595331,0.16796875,,
2.886524999999907,1500,,,,-0.1875,-0.0234375,-1.05859375,0.027089806918324803,0.976819627158405,22.69640604387372,3.6191585622846976,2787,0,82.14189226677573,7.907131752281223,9.626186509802933,0.1235365310406761,0.011891856885716074,0.169921875,,
2.8947649999998974,1500,,,,-0.33203125,0.203125,-0.9453125,0.027089806918324803,0.976819627158405,22.692999796021873,3.7046226668381945,2934,0,84.06900142289716,8.323129180996917,9.90035451846109,0.11736206490566625,0.011619260495847366,0.173828125,,
2.9031699999999256,1500,,,,0.125,-0.43359375,-0.671875,0.027089806918324803,0.976819627158405,22.691094742694208,3.750589618386907,3066,0,85.10498437178262,8.698441608641096,10.220836855620348,0.11229823353507658,0.011477819241363717,0.177734375,,
2.911244999999879,1500,,,,0,0.244140625,-1.12890625,0.027089806918324803,0.976819627158405,22.68987228534147,3.7872576929351567,3956,0,85.93239336437568,11.22360528794839,13.060971361937268,0.0870326069117281,0.01136730386428824,0.1796875,,
2.919684999999823,1500,,,,-0.0625,-0.240234375,-0.82421875,0.027089806918324803,0.976819627158405,22.68899644761048,3.8048030821836063,4967,0,86.32716361552126,14.091862500354198,16.323787218488597,0.06931799307109707,0.011315321693052556,0.181640625,,
2.9274749999998604,1500,,,,0.09375,0.1328125,-1.0546875,0.027601415259538572,0.976819627158405,22.688750905326092,3.8141778111548064,4978,0,86.53893026591331,14.389015276942896,16.627216482488187,0.06788648203909205,0.011287632330985295,0.185546875,,
2.9366399999998976,1500,,,,-0.4375,-0.14453125,-1.0234375,0.027601415259538572,0.976819627158405,22.68856244868433,3.8174746490436684,4798,0,86.61301197109657,13.869430698690142,16.01310286186385,0.0704296844174475,0.01127797781105196,0.1875,,
2.9453599999998694,1500,,,,0.03125,-0.005859375,-0.912109375,0.027601415259538572,0.976819627158405,22.688531656554503,3.8031721515311387,5756,0,86.28839175534074,16.63695061077771,19.280635868089384,0.058713862294307945,0.011320405993056946,0.189453125,,
2.9535100000000094,1500,,,,0.09375,-0.220703125,-0.8359375,0.027601415259538572,0.976819627158405,22.688802137086682,3.7885425198471085,6554,0,85.95749162075084,18.942741956883488,22.03733682744013,0.051566960547833704,0.011363984787599276,0.201171875,,
2.9642700000000186,1500,,,,0,0.3671875,-1.0546875,0.027601415259538572,0.976819627158405,22.689282227030372,3.770302991503053,4889,0,85.54546865562966,14.1317154448522,16.51953711509909,0.06912250893887295,0.0114187185190448,0.203125,,
2.9730100000000093,1500,,,,-0.0625,-0.3203125,-0.86328125,0.027601415259538572,1.0387884348812169,22.6902140678259,3.747689671870403,4026,0,85.03588091451965,11.635808215277835,13.683409979576105,0.0892751423590229,0.012215883738835314,0.21484375,,
2.981314999999944,1500,,,,0.375,0.443359375,-1.1328125,0.027601415259538572,1.0387884348812169,22.691178566809274,3.72424030910611,3717,0,84.50740187963571,10.742737391131682,12.712185148506416,0.09669680985953868,0.012292277502043765,0.224609375,,
2.990820000000065,1500,,,,-0.5625,-0.203125,-0.78515625,0.027601415259538572,1.0387884348812169,22.692174403459465,3.6954199009636066,3601,0,83.85711288668107,10.408070468413085,12.411672796889466,0.09980605320013756,0.012387600754690501,0.23046875,,
2.999679999999935,1500,,,,0.1875,0.427734375,-1.14453125,0.027601415259538572,1.0387884348812169,22.69296238872504,3.662767736261421,3597,0,83.11905047761597,10.39793302377963,12.509686965901762,0.09990335891811881,0.012497597469077963,0.232421875,,
3.0075749999997208,1500,,,,-0.59375,-0.18359375,-0.826171875,0.027601415259538572,1.0387884348812169,22.69370751580494,3.636994649830674,3594,0,82.53689281980473,10.389135148411599,12.587262245373413,0.09998796050314525,0.01258574680233128,0.23828125,,
3.016719999999739,1500,,,,0.6875,0.193359375,-1.19140625,0.027601415259538572,1.0387884348812169,22.69478973592842,3.606638619398473,3589,0,81.85190512072752,10.374715414721887,12.674983434313097,0.10012693296696693,0.012691072166848838,0.25,,
3.024094999999972,1500,,,,-0.8125,0.06640625,-0.671875,0.027601415259538572,1.0387884348812169,22.69581101394231,3.577592941488737,3584,0,81.19637328484234,10.360195783219767,12.759431688993676,0.10026725909598397,0.012793532430778371,0.25390625,,
3.0317849999999162,1500,,,,0.40625,0.333984375,-1.220703125,0.027601415259538572,1.0387884348812169,22.696801213886182,3.549555920105391,3612,0,80.56356511620491,10.43925216971749,12.957783279153434,0.09950793581695125,0.012894022668719638,0.2578125,,
3.039064999999944,1500,,,,-0.6875,-0.3125,-0.421875,0.027601415259538572,1.0387884348812169,22.697454182838637,3.5254706398947944,3622,0,80.0192083219549,10.468212131408935,13.082124093618116,0.0992326504126168,0.012981738468364777,0.263671875,,
3.0467899999998043,1500,,,,-0.375,-0.1640625,-0.94921875,0.027601415259538572,1.0387884348812169,22.698442494172777,3.4981118337491095,3623,0,79.40169029653944,10.470947277976634,13.187310293862836,0.0992067295636263,0.013082699259948757,0.265625,,
3.054560000000056,1500,,,,0.03125,0.322265625,-1.099609375,0.027601415259538572,1.0387884348812169,22.69920690682782,3.4720094743951573,3627,0,78.81186144176218,10.482247502444343,13.300342500081886,0.09909978128631126,0.013180610327911452,0.26953125,,
3.062549999999814,1500,,,,0,0.02734375,-0.90234375,0.027601415259538572,1.0387884348812169,22.700224236175018,3.445702597745051,3630,0,78.21822161998342,10.49169473879419,13.413363947044457,0.09901054698438595,0.013280645012975137,0.275390625,,
3.0716499999999067,1500,,,,-0.15625,-0.060546875,-0.94140625,0.027601415259538572,1.0387884348812169,22.701246753827174,3.4141017981815596,3624,0,77.50436736320465,10.475102484551458,13.51549963044345,0.09916737677871966,0.01340296644204832,0.28125,,
3.079659999999916,1500,,,,0,-0.35546875,-0.8359375,0.0932163814761242,1.0387884348812169,22.70209489817855,3.389173120395895,3642,0,76.94132980558352,35.55439119338558,46.2097435581435,0.02921688151629692,0.013501046024367434,0.283203125,,
3.087935000000056,1500,,,,0.0625,0.064453125,-0.92578125,0.0932163814761242,1.0387884348812169,22.70288501410423,3.36430093688977,3651,0,76.37933732305157,35.64062227824919,46.66264925486951,0.029146192419742634,0.013600385539973869,0.2890625,,
3.096475000000093,1500,,,,0.125,0.1640625,-1.1015625,0.0932163814761242,1.0387884348812169,22.70360023190463,3.335769297633617,3656,0,75.73397259933493,35.691417088691445,47.127353634958894,0.029104712550355676,0.013716280808044382,0.291015625,,
3.1050200000000188,1500,,,,-0.25,0.078125,-1.05859375,0.0932163814761242,1.0387884348812169,22.70446943976804,3.310879919300793,3666,0,75.17177194650654,35.78289523377919,47.60150560138836,0.029030307025033477,0.013818863224621546,0.29296875,,
3.129219999999972,1500,,,,-0.08203125,0.013671875,-0.91796875,0.0932163814761242,3.194603077900047,22.706966818225883,3.2383854793774995,3660,0,73.5339116248494,35.728571644333734,48.58788395021262,0.08941312039286871,0.043443943172750944,0.30078125,,
3.137624999999767,1500,,,,-0.09375,-0.03515625,-0.86328125,0.0932163814761242,3.194603077900047,22.707808830130226,3.2185387337211244,3666,0,73.0859622777087,35.785448543376596,48.963504656887025,0.08927100841080068,0.043710214360472406,0.302734375,,
3.1459150000000373,1500,,,,0.03125,0.173828125,-1.12109375,0.0932163814761242,3.194603077900047,22.7084721657368,3.200447824830474,3670,0,72.67728034805572,35.82745925917142,49.29664275767012,0.08916633062899276,0.04395600747029756,0.3046875,,
3.1548299999998415,1500,,,,-0.4375,-0.001953125,-0.876953125,0.0932163814761242,3.194603077900047,22.709324787193136,3.1774340996257,3672,0,72.15738295830262,35.84501012651338,49.676150460205896,0.0891226719318766,0.04427271260303472,0.306640625,,
3.1625999999998604,1500,,,,0.4375,0.3203125,-1.42578125,0.0932163814761242,3.194603077900047,22.709985837596307,3.159031046631197,3679,0,71.74155032952152,35.911019189410275,50.0560958391123,0.08895885302086042,0.04452932872549694,0.310546875,,
3.1720749999999533,1500,,,,-0.1875,-0.16796875,-0.83984375,0.0932163814761242,3.194603077900047,22.710829007426852,3.1391742811062984,3677,0,71.29325032271726,35.89478587015728,50.34808443671079,0.08899908442011413,0.04480933417173858,0.310546875,,
3.180969999999972,1500,,,,0.375,0.11328125,-1.083984375,0.0932163814761242,3.194603077900047,22.71147505342382,3.119474701565843,3672,0,70.84787186439935,35.84568395589557,50.59528679210451,0.08912099659838205,0.04509102382093309,0.3125,,
3.189905000000028,1500,,,,-0.375,-0.1328125,-0.875,0.0932163814761242,3.194603077900047,22.7119474896087,3.1006762626810334,3682,0,70.42239646028779,35.93898867228065,51.033464464031944,0.08888962088028952,0.045363453084155264,0.31640625,,
3.198879999999888,1500,,,,0.4375,0.40234375,-1.22265625,0.0932163814761242,3.194603077900047,22.712757552009247,3.0807634515448807,3675,0,69.97263335003007,35.87707823901719,51.273014207634894,0.08904301115651717,0.04565503576118698,0.3203125,,
3.2066999999999535,1500,,,,-0.46875,-0.05859375,-0.88671875,0.0932163814761242,3.194603077900047,22.713502841169433,3.066599070787767,3678,0,69.65320670706548,35.900891188685904,51.54233794241693,0.0889839492036571,0.04586440781305756,0.3203125,,
3.214689999999944,1500,,,,0.25,0.087890625,-1.04296875,0.0932163814761242,3.194603077900047,22.71401863789199,3.050502446613619,3681,0,69.28916942731685,35.93273631072684,51.859095162656935,0.08890508783619622,0.046105374105416735,0.322265625,,
3.2223199999998324,1500,,,,-0.0625,0.095703125,-0.966796875,0.0932163814761242,3.194603077900047,22.71443393625434,3.039188894029323,3684,0,69.03345535322696,35.95994835616535,52.090610519446365,0.0888378105068199,0.046276157865111356,0.32421875,,
3.230644999999786,1500,,,,0.375,-0.08984375,-0.94921875,0.12007278860662561,3.194603077900047,22.714916829044256,3.0251861308447947,3680,0,68.7168513545177,46.26631372750372,67.32891978535335,0.06904814368214873,0.04648936927302944,0.326171875,,
3.238594999999972,1500,,,,-0.28125,-0.12109375,-0.93359375,0.12007278860662561,3.194603077900047,22.715356099164413,3.014599567698162,3678,0,68.47770267665085,46.245954708723374,67.53432562873063,0.06907854098852562,0.04665172681076705,0.328125,,
3.248165000000037,1500,,,,0.4375,0.16015625,-1.28125,0.12007278860662561,3.194603077900047,22.715834597884573,3.0013930090487277,3680,0,68.17914715679798,46.27816077082215,67.87729489251592,0.06903046760480179,0.04685601406179398,0.328125,,
3.2567799999997953,1500,,,,-0.46875,-0.005859375,-0.931640625,0.12007278860662561,3.194603077900047,22.716214127743743,2.991269543366607,3682,0,67.9503194609141,46.29650607408292,68.13287478466273,0.06900311381571851,0.04701380513358181,0.33203125,,
3.2649599999999626,1500,,,,0.15625,0.1953125,-1.037109375,0.12007278860662561,3.194603077900047,22.716691217643753,2.9777025886751587,3684,0,67.64355024491205,46.318633713676746,68.47457524919119,0.06897014919843718,0.04722701671236328,0.333984375,,
3.2774199999999256,1500,,,,-0.125,0.009765625,-0.9296875,0.12007278860662561,4.507286447735773,22.717094298975525,2.9659810821387493,3685,0,67.37847193192344,46.33478006196834,68.76792947869636,0.09727652622301666,0.06689505295236968,0.3359375,,
3.294214999999851,1500,,,,0.34375,0.181640625,-1.1015625,0.12007278860662561,4.507286447735773,22.71803164464458,2.937477160476794,3674,0,66.7336990871325,46.20089276516507,69.2317275936431,0.09755842751017603,0.06754138477848684,0.33984375,,
3.3020849999999626,1500,,,,-0.40625,-0.11328125,-0.8046875,0.12007278860662561,4.507286447735773,22.718315655868956,2.930041757995345,3688,0,66.56561354301544,46.37181238488852,69.66331400960128,0.09719884162225652,0.06771193425300759,0.34375,,
3.3096849999998232,1500,,,,0.5,0.26953125,-1.1875,0.12007278860662561,4.507286447735773,22.718390197511383,2.9256232078304594,3687,0,66.46544960638731,46.365097041223706,69.75819364166014,0.09721291953143754,0.06781397665145146,0.345703125,,
3.317714999999851,1500,,,,-0.34375,-0.326171875,-0.876953125,0.12007278860662561,4.507286447735773,22.718403986779258,2.9178665277723086,3681,0,66.28927055743216,46.28426176403477,69.82164892572574,0.09738270150477292,0.06799420795905,0.345703125,,
3.326344999999972,1500,,,,0.375,0.23828125,-1.2578125,0.12007278860662561,4.507286447735773,22.718593103845347,2.90777441416898,3684,0,66.06054375327733,46.321620355509275,70.11995016043326,0.09730416192575392,0.06822962984636592,0.349609375,,
3.3357149999998508,1500,,,,-0.25,-0.005859375,-0.89453125,0.12007278860662561,4.507286447735773,22.71871614553389,2.901566210993795,3687,0,65.91985912504033,46.36201121002294,70.33087119024479,0.09721938997248136,0.06837524393348762,0.349609375,,
3.344534999999916,1500,,,,0.375,0.37109375,-1.08984375,0.12007278860662561,4.507286447735773,22.71888970389508,2.8946700162186363,3690,0,65.76368882764338,46.39664564375065,70.55055224373012,0.0971468170855338,0.06853761594105047,0.3515625,,
3.3529349999998233,1500,,,,-0.375,-0.125,-0.814453125,0.12007278860662561,4.507286447735773,22.71914235655736,2.888908590718798,3687,0,65.63352552762187,46.354808051609155,70.62672266797665,0.0972344970713196,0.06867353858416278,0.35546875,,
3.3609599999999626,1500,,,,0.09375,0.302734375,-1.11328125,0.12007278860662561,4.507286447735773,22.719379039058467,2.88271123585616,3686,0,65.49340922756876,46.348150690266095,70.7676562220498,0.09724846365191395,0.06882045843841152,0.357421875,,
3.3690699999998324,1500,,,,-0.5625,-0.08984375,-0.83203125,0.12007278860662561,4.507286447735773,22.719474996770387,2.8776814581365757,3684,0,65.37941193680368,46.321399804528575,70.85013222404517,0.09730462522195026,0.06894045562986337,0.359375,,
3.378064999999944,1500,,,,0.28125,0.056640625,-1.08203125,0.12007278860662561,4.507286447735773,22.719947151167272,2.8701845011818112,3681,0,65.21044018095014,46.28456656973105,70.97723377007983,0.09738206019376286,0.0691190925138469,0.359375,,
3.387369999999879,1500,,,,-0.125,-0.060546875,-0.951171875,0.12460947735498258,4.507286447735773,22.720169968273456,2.8659549703454483,3684,0,65.1149840476667,48.07274963150439,73.82747663166633,0.09375969717325949,0.06922041852050927,0.361328125,,
3.3956049999999816,1500,,,,-0.15625,-0.087890625,-0.87890625,0.12460947735498258,4.507286447735773,22.720233490996698,2.8606830757931885,3683,0,64.99538742576385,48.05513295544007,73.93622048999627,0.09379406882330822,0.06934778953174,0.36328125,,
3.404260000000009,1500,,,,0,0.11328125,-1.0859375,0.12460947735498258,4.507286447735773,22.720287321183726,2.8573873295039207,3683,0,64.92066111423895,48.05911146554415,74.02745234059765,0.09378630420512997,0.0694276116474605,0.36328125,,
3.412625,1500,,,,0,0.126953125,-0.958984375,0.12460947735498258,4.507286447735773,22.720565321300295,2.8502673892327746,3684,0,64.75968640023531,48.07139561301629,74.23043298251923,0.09376233808604748,0.06960018953580657,0.3671875,,
3.4210499999998136,1500,,,,0.0625,0.037109375,-1.111328125,0.12460947735498258,4.507286447735773,22.720932634106568,2.845892802267511,3684,0,64.66133864420888,48.07555487294874,74.34976738956583,0.09375422623092682,0.0697060491205814,0.37109375,,
3.433479999999981,1500,,,,-0.125,-0.0390625,-0.890625,0.12460947735498258,5.118941749000239,22.721101647939058,2.839764649402594,3684,0,64.52258125530037,48.07727606382918,74.51232596166439,0.10647320663933085,0.0793356627929347,0.37109375,,
3.4537949999999253,1500,,,,-0.25,-0.009765625,-0.91796875,0.12460947735498258,5.118941749000239,22.72156881734597,2.828382956093461,3685,0,64.265297978686,48.08574268372226,74.82380724301662,0.10645445954052152,0.07965327960819492,0.375,,
3.469839999999851,1500,,,,-0.375,0.1875,-1.15625,0.12460947735498258,5.118941749000239,22.721886847592053,2.822893631199121,3685,0,64.14146967089468,48.090441127082784,74.97558346235503,0.10644405892374811,0.07980705423909315,0.376953125,,
3.479094999999972,1500,,,,0.0625,0.275390625,-1.11328125,0.12460947735498258,5.118941749000239,22.72193014728997,2.820159282067579,3684,0,64.07946221137097,48.07190576924553,75.01920913548979,0.1064851011643298,0.07988428074060644,0.37890625,,
3.488155000000028,1500,,,,-0.09375,0.076171875,-0.93359375,0.12460947735498258,5.118941749000239,22.722042739461582,2.822234080393009,3685,0,64.12692339545501,48.086504219995234,74.98645135906109,0.10645277364270725,0.07982515732796007,0.3828125,,
3.496965000000084,1500,,,,-0.125,0.021484375,-0.853515625,0.12460947735498258,5.118941749000239,22.722040419748353,2.8251459071164526,3687,0,64.19307949318666,48.10587705883465,74.93935084379387,0.10640990377827746,0.0797428911249468,0.384765625,,
3.504999999999767,1500,,,,0.375,0.068359375,-1.01171875,0.12460947735498258,5.118941749000239,22.72200569194846,2.8236838094646806,3688,0,64.15975959091918,48.11922496302664,74.99907304801867,0.1063803864865546,0.07978430376981567,0.384765625,,
3.5132449999998787,1500,,,,-0.5,-0.18359375,-0.515625,0.12460947735498258,5.118941749000239,22.721906549264784,2.8212654420805845,3691,0,64.10452972562524,48.16485463300566,75.13486931291249,0.10627960549251635,0.0798530426930811,0.388671875,,
3.521019999999786,1500,,,,0.03125,0.04296875,-1.14453125,0.12460947735498258,5.118941749000239,22.722073625980954,2.816193676174069,3691,0,63.98976005504916,48.16923454598311,75.27647314905391,0.10626994174286944,0.07999626416158635,0.388671875,,
3.5301749999998138,1500,,,,-0.40625,0.021484375,-0.880859375,0.12621112154758765,5.118941749000239,22.72218110385087,2.814792354908734,3694,0,63.95822165797112,48.821087096198255,76.33277760172632,0.10485103985730085,0.0800357110673709,0.388671875,,
3.539089999999851,1500,,,,0.21875,0.265625,-1.150390625,0.12621112154758765,5.118941749000239,22.722171236690784,2.808174513074626,3698,0,63.807822148592415,48.870234879758065,76.58972400899617,0.10474559333702922,0.08022436084841618,0.388671875,,
3.548469999999972,1500,,,,-0.0625,0.013671875,-0.927734375,0.12621112154758765,5.118941749000239,22.72219841976976,2.804609887268656,3679,0,63.726902348566504,48.63024543014461,76.31038641130267,0.10526251109206086,0.08032622896059198,0.388671875,,
3.557534999999916,1500,,,,0.5,0.08984375,-1.07421875,0.12621112154758765,5.118941749000239,22.722223845214433,2.800921579563989,3680,0,63.643167103744545,48.6368947338989,76.42123569151742,0.10524812032114468,0.08043191409151382,0.390625,,
3.565124999999767,1500,,,,-0.34375,-0.009765625,-0.9375,0.12621112154758765,5.118941749000239,22.722248005526527,2.7993149906196986,3684,0,63.60672946244895,48.689139274900946,76.54715104263488,0.10513518672200134,0.08047799017904657,0.392578125,,
3.572120000000112,1500,,,,0,0.12890625,-0.947265625,0.12621112154758765,5.118941749000239,22.72240814601548,2.795768981767537,3686,0,63.526603885692076,48.711869171245375,76.6794794491078,0.10508612861897634,0.08057949639825096,0.392578125,,
3.590749999999767,1500,,,,0.1875,0.0703125,-1.03125,0.12621112154758765,5.3608071204352195,22.722397427062774,2.791320103567479,3688,0,63.42548473941027,48.746052722725,76.85562502675835,0.10997417885153307,0.08452134252439084,0.39453125,,
3.598159999999916,1500,,,,-0.125,0.001953125,-0.9453125,0.12621112154758765,5.3608071204352195,22.722219984791977,2.7898624563000256,3689,0,63.39186845936128,48.75631161965007,76.9125643471234,0.10995103900096238,0.08456616362194594,0.396484375,,
3.6055849999999627,1500,,,,0.4375,0.2109375,-1.05078125,0.12621112154758765,5.3608071204352195,22.722239713110874,2.7880909967721808,3685,0,63.35167197062373,48.70276555835133,76.8768432519585,0.11007192423215426,0.08461982065636775,0.396484375,,
3.613334999999963,1500,,,,-0.25,-0.140625,-0.93359375,0.12621112154758765,5.3608071204352195,22.7223252993414,2.7904501473956222,3684,0,63.405515980718484,48.69377182693148,76.79737491883068,0.1100922544979412,0.08454796144337715,0.3984375,,
3.6218599999998697,1500,,,,0.03125,0.076171875,-0.92578125,0.12621112154758765,5.3608071204352195,22.722621227171253,2.7899732874576326,3685,0,63.39550624482557,48.70925326055097,76.83392111807088,0.11005726348871935,0.08456131101363003,0.40234375,,
3.629489999999991,1500,,,,-0.4375,-0.0234375,-1.12109375,0.12621112154758765,5.3608071204352195,22.722748763634552,2.79114758572516,3686,0,63.42254535265794,48.721362790633854,76.82025771706435,0.11002990912778358,0.08452525975781508,0.40234375,,
3.637424999999814,1500,,,,0.125,0.197265625,-1.08203125,0.12621112154758765,5.3608071204352195,22.722615411155466,2.7879857033732107,3685,0,63.35032690954923,48.699507758400266,76.87333299468649,0.11007928759835411,0.08462161731366138,0.404296875,,
3.6464799999997486,1500,,,,-0.625,-0.2578125,-0.6015625,0.12621112154758765,5.3608071204352195,22.722472109248418,2.784940925839703,3684,0,63.28074251329711,48.69202956849934,76.94604651370477,0.11009619372907228,0.08471466843659048,0.40625,,
3.666534999999916,1500,,,,-0.28125,0.01953125,-0.89453125,0.12621112154758765,5.3608071204352195,22.722526401568857,2.782291753290985,3686,0,63.22069782102171,48.72168822899629,77.06603993351635,0.11002917417883688,0.0847951273111807,0.408203125,,
3.6734199999999255,1500,,,,0,0.123046875,-0.900390625,0.12621112154758765,5.3608071204352195,22.72247190242798,2.7799130474971046,3689,0,63.1664961129459,48.75573865101705,77.18607434523285,0.10995233112571033,0.08486788804700739,0.412109375,,
3.6823199999998324,1500,,,,0.125,0.060546875,-1.078125,0.12633703178915984,5.3608071204352195,22.722548943184556,2.7821138129061995,3687,0,63.21671727927092,48.77817796990098,77.16025138479564,0.10990174999449867,0.08480046657204479,0.4140625,,
3.6892350000001026,1500,,,,-0.125,-0.12109375,-1.05078125,0.12633703178915984,5.3608071204352195,22.722554533897675,2.7785941306171718,3682,0,63.13675666051668,48.7181685581438,77.16292558406043,0.11003712329697375,0.08490786356448468,0.412109375,,
3.6971049999999814,1500,,,,-0.03125,-0.0546875,-1.005859375,0.12633703178915984,5.3608071204352195,22.722442843716447,2.777288538154358,3684,0,63.1067800687212,48.73328800808087,77.22353755810695,0.1100029843983911,0.08494819597193008,0.416015625,,
3.7046699999999255,1500,,,,0.125,-0.05078125,-0.90625,0.12633703178915984,5.3608071204352195,22.722421091723234,2.7762061308737604,3686,0,63.082124743137285,48.76401556214755,77.30243038056925,0.10993366847738599,0.08498139753953711,0.4140625,,
3.7131999999999534,1500,,,,-0.25,-0.013671875,-0.978515625,0.12633703178915984,5.3608071204352195,22.722433099575344,2.776083424377395,3690,0,63.07936988925538,48.82360621274024,77.40027571368718,0.10979949119441218,0.0849851089167007,0.416015625,,
3.72083499999973,1500,,,,-0.125,-0.0390625,-0.849609375,0.12633703178915984,5.3608071204352195,22.722411826335527,2.774260530068911,3682,0,63.03789027777369,48.71499759094801,77.27891491337593,0.11004428585728472,0.08504103003468325,0.41796875,,
3.7293199999998325,1500,,,,-0.0625,-0.16796875,-1.08984375,0.12633703178915984,5.457972815162951,22.722391586011227,2.7741264071934366,3682,0,63.0347865333437,48.71279813748476,77.27923074938472,0.11204391913103862,0.08658667880592934,0.41796875,,
3.7395449999999255,1500,,,,0.03125,0.12890625,-0.998046875,0.12633703178915984,5.457972815162951,22.722275140812897,2.775691586189739,3686,0,63.07002792744263,48.75910697130542,77.3094742044496,0.1119375057130343,0.08653829710432255,0.419921875,,
3.7474299999999348,1500,,,,-0.03125,0.05078125,-1.0703125,0.12633703178915984,5.457972815162951,22.72225674971856,2.7750870366302323,3688,0,63.056240149127774,48.796059713636936,77.38498140427407,0.11185273661835492,0.08655721943228561,0.421875,,
3.7566299999998884,1500,,,,-0.25,-0.009765625,-0.78515625,0.12633703178915984,5.457972815162951,22.722342862088993,2.773304487233492,3686,0,63.015975419889315,48.764901179520564,77.38498191068105,0.11192420538432457,0.08661252609033308,0.421875,,
3.7640649999997113,1500,,,,0.3125,0.265625,-1.1953125,0.12633703178915984,5.457972815162951,22.722228021270276,2.777049121110335,3684,0,63.100743356137244,48.74258230879944,77.24565467271741,0.11197545465656689,0.0864961730222169,0.421875,,
3.7727299999999815,1500,,,,-0.125,-0.18359375,-0.9140625,0.12633703178915984,5.457972815162951,22.72211861313258,2.7774178921120245,3684,0,63.10881878280609,48.74394120255986,77.23792354649503,0.11197233298148483,0.0864851049414661,0.421875,,
3.781125,1500,,,,0.21875,0.212890625,-1.185546875,0.12633703178915984,5.457972815162951,22.721932430657265,2.7808473710009283,3688,0,63.18622606385399,48.78717430246969,77.21172372783734,0.11187310790587557,0.08637915500202999,0.421875,,
3.7891599999999164,1500,,,,-0.5625,-0.1015625,-0.65234375,0.12633703178915984,5.457972815162951,22.721902800908538,2.7782352649368316,3690,0,63.126791647951066,48.82270997693715,77.34071176817334,0.11179168091531966,0.08646048171751342,0.423828125,,
3.797284999999916,1500,,,,0.0625,0.169921875,-1.138671875,0.12633703178915984,5.457972815162951,22.722104803536812,2.7764612166801736,3689,0,63.08704274836224,48.80940333214767,77.36834888082431,0.11182215807928407,0.08651495738884737,0.42578125,,
3.8054499999997207,1500,,,,-0.34375,-0.095703125,-0.75390625,0.12633703178915984,5.457972815162951,22.72209963840805,2.775255133004503,3685,0,63.059623654131705,48.74981436515865,77.30749335349788,0.11195884304871832,0.08655257514854105,0.42578125,,
3.814114999999991,1500,,,,0.34375,-0.03125,-1.123046875,0.12633703178915984,5.457972815162951,22.722130555326842,2.773866078453095,3686,0,63.028147177603714,48.7680500624111,77.3750336099682,0.11191697859926918,0.08659579980644545,0.427734375,,
3.8226350000000093,1500,,,,-0.5625,-0.140625,-0.7890625,0.12633703178915984,5.457972815162951,22.72202644453748,2.7731154245144243,3685,0,63.01080200957153,48.759057640726006,77.38206162384564,0.11193761896259823,0.08661963728590329,0.427734375,,
3.831040000000037,1500,,,,0.28125,0.0546875,-1.099609375,0.12638820264922493,5.457972815162951,22.722136260884348,2.7688053328030624,3684,0,62.91317205181442,48.75877378683761,77.5016935192531,0.1119382706182067,0.08675405542527469,0.42578125,,
3.846564999999944,1500,,,,-0.6875,-0.14453125,-0.60546875,0.12638820264922493,5.457972815162951,22.72230502609235,2.7672845874823477,3686,0,62.87908449077805,48.78918371073042,77.59207072724782,0.11186850035292874,0.08680108591535594,0.4296875,,
3.854184999999823,1500,,,,-0.1875,0.09765625,-0.984375,0.12638820264922493,5.457972815162951,22.722225586118334,2.7679217817395965,3693,0,62.89334312941771,48.87956212490891,77.71818080067364,0.11166165525819187,0.08678140711858646,0.4296875,,
3.8624450000000654,1500,,,,0.5625,0.25,-1.36328125,0.12638820264922493,5.457972815162951,22.722185589094806,2.7687651667763205,3682,0,62.912395972112584,48.726483252706174,77.45132338355918,0.11201245094698735,0.08675512561280177,0.43359375,,
3.870464999999851,1500,,,,-0.21875,0.12109375,-0.888671875,0.12638820264922493,5.497578431634159,22.722077874525702,2.7669743878956807,3682,0,62.871407518583744,48.72592068274051,77.5009222886221,0.11282656858203786,0.08744163123768409,0.43359375,,
3.8795949999997394,1500,,,,0.40625,0.169921875,-1.05859375,0.12638820264922493,5.497578431634159,22.72203743155018,2.768520247681472,3683,0,62.90642069782298,48.7505675284486,77.49696610879614,0.11276952680450385,0.08739296196873614,0.435546875,,
3.8914749999998604,1500,,,,-0.5625,-0.02734375,-0.640625,0.12638820264922493,5.497578431634159,22.72199931394451,2.768448299420936,3684,0,62.904680360133355,48.75679630517885,77.509012089471,0.11275512027541107,0.08739537980576592,0.4375,,
3.8999299999999346,1500,,,,-0.01953125,0.046875,-1.0078125,0.12638820264922493,5.497578431634159,22.721999514147573,2.768315857914122,3686,0,62.9016715785317,48.7867703998431,77.56037188762723,0.11268584467833188,0.0873995601972282,0.435546875,,
3.9086599999999163,1500,,,,0,0.0859375,-1.091796875,0.12638820264922493,5.497578431634159,22.722096892391008,2.7668886182483363,3686,0,62.86951127429257,48.783470979991016,77.59479911837433,0.11269346606946114,0.08744426861613169,0.4375,,
3.9161950000000654,1500,,,,0,0.046875,-0.89453125,0.12638820264922493,5.497578431634159,22.722124724659167,2.762122953005314,3684,0,62.761302243030634,48.761861152898966,77.69415134835536,0.11274340850928165,0.08759503444249583,0.435546875,,
3.924904999999795,1500,,,,-0.15625,-0.02734375,-0.9609375,0.12638820264922493,5.497578431634159,22.72202007479177,2.7629075828159775,3685,0,62.778841561539046,48.76857568784113,77.68314048935684,0.11272788581776856,0.08757056191049895,0.4375,,
3.933274999999907,1500,,,,-0.0625,0.103515625,-0.923828125,0.12638820264922493,5.497578431634159,22.722128365359474,2.761244576908426,3686,0,62.74135372466596,48.78745311008346,77.7596437019549,0.11268426780199994,0.08762288515099183,0.4375,,
3.9415099999997767,1500,,,,0,-0.15234375,-0.9921875,0.12638820264922493,5.497578431634159,22.72202448868739,2.7605808992903706,3694,0,62.725986796678455,48.895672742447786,77.95122123935558,0.11243486638566173,0.087644351446461,0.435546875,,
3.9511599999999163,1500,,,,0.09375,0.197265625,-0.98046875,0.12638820264922493,5.497578431634159,22.722135292456727,2.7600999901486847,3690,0,62.71536539686689,48.84035356612189,77.87621623035594,0.11256221608206281,0.08765919478974772,0.439453125,,
3.9590249999999068,1500,,,,0,0.068359375,-1.0859375,0.12638820264922493,5.497578431634159,22.721871534017115,2.76287553262009,3679,0,62.7777029166728,48.69913318746619,77.57393298080112,0.11288863008036217,0.08757215024148465,0.44140625,,
3.968034999999916,1500,,,,-0.375,-0.1640625,-0.8203125,0.12638820264922493,5.497578431634159,22.721842555459613,2.7617040662663612,3687,0,62.751004978476864,48.80478337453392,77.77530159281689,0.11264425434378153,0.08760940854285582,0.44140625,,
3.976589999999851,1500,,,,0.3125,0.27734375,-1.28515625,0.12638820264922493,5.497578431634159,22.72188287992718,2.7588902592337012,3689,0,62.687181348880095,48.821073870355605,77.88047383825752,0.11260666748611434,0.08769860621165691,0.443359375,,
3.985219999999972,1500,,,,-0.28125,0.01953125,-0.923828125,0.12624418438358967,5.497578431634159,22.721778672706492,2.759049651812295,3687,0,62.690515535486874,48.7470599851364,77.75826944275553,0.11277764101692371,0.08769394197312311,0.443359375,,
3.9933850000000093,1500,,,,0.28125,0.25390625,-1.123046875,0.12624418438358967,5.497578431634159,22.721822046886192,2.759766598097598,3686,0,62.706925532914106,48.734153672801,77.71733864901577,0.11280750802701249,0.08767099303486896,0.44140625,,
4.001689999999944,1500,,,,-0.375,-0.103515625,-0.8515625,0.12624418438358967,5.497578431634159,22.721940581346704,2.7594622903610295,3684,0,62.7003381980502,48.7073790316097,77.68280113220244,0.11286951876565536,0.08768020380159797,0.443359375,,
4.009129999999888,1500,,,,0.5,0.296875,-1.1640625,0.12624418438358967,5.497578431634159,22.722031759123453,2.7605727218263185,3685,0,62.72582105870748,48.71148085755879,77.65778117430757,0.11286001441241494,0.08764458302568517,0.443359375,,
4.0172599999997765,1500,,,,-0.3125,-0.185546875,-0.814453125,0.12624418438358967,5.497578431634159,22.722127744940508,2.7596795152994544,3685,0,62.70579048172971,48.72006918819977,77.6962842090239,0.11284011954904404,0.08767257998662759,0.443359375,,
4.025419999999926,1500,,,,0.4375,0.33984375,-1.2421875,0.12624418438358967,5.515691078797396,22.722154758156517,2.7592938516060324,3684,0,62.69710191942203,48.70299178485799,77.67981341059561,0.11325158633298277,0.08797362094800061,0.4453125,,
4.033539999999804,1500,,,,-0.1875,-0.25390625,-0.890625,0.12624418438358967,5.515691078797396,22.72205087926,2.7605115927137494,3686,0,62.72448486242887,48.73006783804938,77.68906822419844,0.1131886599692077,0.08793521526553374,0.4453125,,
4.044469999999972,1500,,,,0.0625,0.08984375,-1.015625,0.12624418438358967,5.515691078797396,22.721822777729237,2.7590498500001837,3688,0,62.690641726624605,48.75770933613633,77.77510006797237,0.11312449157059747,0.08798268652041714,0.4453125,,
4.061214999999851,1500,,,,0.375,0.35546875,-1.234375,0.12624418438358967,5.515691078797396,22.722068749810454,2.759413353142835,3678,0,62.699579919256486,48.625360748182466,77.55292907990999,0.1134323940003584,0.08797014407274202,0.447265625,,
4.0695549999999345,1500,,,,-0.4375,0.00390625,-0.892578125,0.12624418438358967,5.515691078797396,22.72217523923828,2.7618741124332282,3685,0,62.7557875714235,48.72243088475171,77.63814744464777,0.11320640162319158,0.08789135300899359,0.447265625,,
4.077044999999925,1500,,,,0.28125,0.291015625,-1.107421875,0.12624418438358967,5.515691078797396,22.722069852758153,2.7613952999750073,3688,0,62.74461689711017,48.761496530401274,77.71423102377263,0.11311570544924793,0.08790700065699869,0.447265625,,
4.0855549999999345,1500,,,,-0.125,0.03125,-0.966796875,0.12624418438358967,5.515691078797396,22.722066428801288,2.7634915364754686,3688,0,62.792238267225734,48.74997391064882,77.6369424883103,0.1131424416535444,0.08784033235643231,0.447265625,,
4.093594999999972,1500,,,,0.375,0.12109375,-1.03515625,0.12624418438358967,5.515691078797396,22.722030246779273,2.76421090368469,3686,0,62.80848376200059,48.72504337782592,77.57716865520766,0.11320033182992524,0.08781761234195583,0.447265625,,
4.10275,1500,,,,-0.3125,-0.041015625,-0.96484375,0.12624418438358967,5.515691078797396,22.722138461127106,2.766044799369071,3686,0,62.850452920944576,48.72547592034068,77.52605376070913,0.11319932693555988,0.08775897105682305,0.44921875,,
4.1127600000000095,1500,,,,-0.0625,0.10546875,-0.998046875,0.12624418438358967,5.515691078797396,22.722094101903156,2.7664673855783906,3684,0,62.859932264958196,48.697024797764676,77.46910160912033,0.11326546337694496,0.08774573691152647,0.44921875,,
4.120549999999814,1500,,,,0.0625,0.0859375,-1.134765625,0.12624418438358967,5.515691078797396,22.722048975734666,2.7692164067544494,3677,0,62.92227081868257,48.60495665585964,77.2460307351592,0.11348001229278833,0.0876588051739497,0.451171875,,
4.129439999999944,1500,,,,-0.34375,-0.01953125,-0.720703125,0.12624418438358967,5.515691078797396,22.72225225966967,2.768833146343905,3686,0,62.914125216161075,48.731939886205325,77.45786771853152,0.11318431180201666,0.08767015451373632,0.451171875,,
4.136964999999851,1500,,,,0.3125,0.25,-1.171875,0.12652896138976327,5.515691078797396,22.722208289930602,2.76729908550613,3690,0,62.87914622140477,48.888464487758405,77.74988597271415,0.11282193328404731,0.08771892448055843,0.451171875,,
4.145459999999963,1500,,,,-0.0625,-0.009765625,-0.94140625,0.12652896138976327,5.515691078797396,22.721905188974482,2.7649624676465727,3689,0,62.825215040938346,48.88029087670324,77.80361888909052,0.11284079901877629,0.08779422521997331,0.451171875,,
4.154504999999888,1500,,,,0.28125,0.173828125,-1.1015625,0.12652896138976327,5.515691078797396,22.72179946400797,2.76279792275968,3684,0,62.77574036052323,48.81903218713583,77.7673539280723,0.11298239296621738,0.08786341741444374,0.451171875,,
4.16273499999987,1500,,,,-0.5625,-0.20703125,-0.71875,0.12652896138976327,5.515691078797396,22.721580195310757,2.763120722903839,3686,0,62.78246909478461,48.83927488861846,77.7912617850125,0.11293556448936501,0.08785400062030355,0.453125,,
4.170659999999916,1500,,,,0.03125,0.099609375,-1.126953125,0.12652896138976327,5.519049407313841,22.721502899295125,2.7587546507317393,3686,0,62.683051795045124,48.84215090043712,77.91922936384205,0.11299767323032547,0.08804691618014204,0.453125,,
4.178529999999795,1500,,,,-0.375,0.22265625,-1.0546875,0.12652896138976327,5.519049407313841,22.721494608249287,2.758956401199697,3686,0,62.687612994253776,48.838191347727104,77.90724357650024,0.11300683450822946,0.08804050981841885,0.453125,,
4.186479999999748,1500,,,,-0.09375,0.046875,-0.94140625,0.12652896138976327,5.519049407313841,22.721322919330515,2.7595747457308373,3684,0,62.70118891777975,48.81627898446825,77.85542798635154,0.11305756034928068,0.08802144748086015,0.45703125,,
4.198344999999972,1500,,,,-0.125,0.083984375,-0.869140625,0.12652896138976327,5.519049407313841,22.72132354667568,2.760579515188904,3686,0,62.72402034093218,48.83401608767134,77.85536676736812,0.11301649648076319,0.08798940784272789,0.45703125,,
4.214484999999869,1500,,,,-0.40625,-0.072265625,-0.810546875,0.12652896138976327,5.519049407313841,22.721467051113358,2.7579333813638143,3685,0,62.664292453823556,48.83045983114546,77.9238987931252,0.1130247273197627,0.08807327412785759,0.458984375,,
4.221885000000009,1500,,,,0.5,0.19140625,-1.11328125,0.12652896138976327,5.519049407313841,22.721460675082284,2.759213535132825,3685,0,62.69336183267526,48.82349472938706,77.87665759525541,0.11304085129309481,0.0880324367042853,0.4609375,,
4.230564999999712,1500,,,,-0.4375,-0.091796875,-0.88671875,0.12652896138976327,5.519049407313841,22.72138705282191,2.7596708255062667,3685,0,62.703548964708446,48.83095308932663,77.87590000178497,0.11302358561828243,0.08801813451452545,0.458984375,,
4.239584999999963,1500,,,,0.25,0.021484375,-1.078125,0.12652896138976327,5.519049407313841,22.721384229037998,2.7597251567298575,3686,0,62.7047756526012,48.84102286229206,77.89043554335079,0.11300028303819265,0.08801641262366741,0.4609375,,
4.248495000000112,1500,,,,-0.15625,-0.03125,-0.955078125,0.12652896138976327,5.519049407313841,22.721418154845267,2.7653993551588196,3686,0,62.833795113703,48.837555651867746,77.72498153818675,0.11300830546589344,0.08783568455998338,0.4609375,,
4.2576199999998785,1500,,,,-0.03125,0.134765625,-0.828125,0.12652896138976327,5.519049407313841,22.721486731273988,2.765974809767537,3684,0,62.84705993917118,48.81478170130071,77.67233940386053,0.11306102813457386,0.08781714550618046,0.4609375,,
4.265245000000112,1500,,,,-0.0625,-0.19921875,-1.08203125,0.12652896138976327,5.519049407313841,22.721285306576252,2.7688796091192525,3684,0,62.91250357835987,48.81722212659052,77.59542118012655,0.11305537609252123,0.08772579524576794,0.4609375,,
4.2736699999999255,1500,,,,0.0625,0.220703125,-1,0.12652896138976327,5.519049407313841,22.72141897501095,2.7682091331272245,3685,0,62.89763952423553,48.82839479510462,77.63152188929159,0.11302950732812464,0.08774652672279153,0.462890625,,
4.282409999999916,1500,,,,-0.03125,0.068359375,-1.107421875,0.12646073505637398,5.519049407313841,22.72141432947719,2.7682725728131765,3687,0,62.899068103816,48.828255052110364,77.6295365322718,0.11302983081053819,0.08774453380143175,0.462890625,,
4.291354999999749,1500,,,,-0.125,-0.03515625,-0.79296875,0.12646073505637398,5.519049407313841,22.72154334519859,2.7654044415114427,3685,0,62.83425688480695,48.7961689997673,77.65854395194735,0.11310415388019826,0.08783503905253191,0.4609375,,
4.299689999999944,1500,,,,-0.21875,-0.01171875,-0.97265625,0.12646073505637398,5.519049407313841,22.721531894609655,2.7638370876837777,3685,0,62.79861253931202,48.79741227116445,77.70460253499581,0.11310127218723806,0.08788489401511711,0.46484375,,
4.316174999999814,1500,,,,0.3125,0.23046875,-1.1640625,0.12646073505637398,5.519049407313841,22.721601702765795,2.758667724874268,3686,0,62.68134927486821,48.8189009525822,77.88425347786172,0.11305148824785084,0.08804930766745121,0.46484375,,
4.324449999999721,1500,,,,-0.4375,-0.28515625,-0.6328125,0.12646073505637398,5.520528407324716,22.721523449470588,2.7570685772178893,3686,0,62.64479832905479,48.813091697328446,77.92042276347921,0.11309524177561685,0.08812429051693958,0.466796875,,
4.332124999999767,1500,,,,0.09375,0.15234375,-1.09375,0.12646073505637398,5.520528407324716,22.72177627821168,2.755325897603869,3685,0,62.6058986189179,48.80061615671547,77.94891093851207,0.11312415379339495,0.08817904589035887,0.466796875,,
4.34047499999986,1500,,,,-0.1875,-0.02734375,-1.015625,0.12646073505637398,5.520528407324716,22.72169039063324,2.7592602616379818,3684,0,62.69505737211588,48.78565830924468,77.81420155609027,0.11315883804069932,0.08805364631151952,0.466796875,,
4.350239999999991,1500,,,,-0.09375,-0.068359375,-0.904296875,0.12646073505637398,5.520528407324716,22.7218689831232,2.759542736490622,3686,0,62.70196851186918,48.810131409035314,77.84465554665287,0.11310210089503678,0.08804394085776919,0.46875,,
4.358279999999795,1500,,,,-0.15625,-0.181640625,-0.921875,0.12646073505637398,5.520528407324716,22.721754449622285,2.759080583932663,3683,0,62.69115153483844,48.77565104197167,77.80308679585553,0.11318205476282163,0.08805913230445087,0.46875,,
4.365994999999879,1500,,,,0.21875,0.23046875,-1.115234375,0.12646073505637398,5.520528407324716,22.7216687803409,2.7601669533307054,3685,0,62.715599292022944,48.79956862270549,77.8108942170509,0.11312658212220592,0.08802480514647486,0.46875,,
4.373300000000047,1500,,,,-0.6875,-0.0234375,-0.625,0.12646073505637398,5.520528407324716,22.7216544572767,2.759352329243636,3693,0,62.697050150955505,48.90914292326114,78.00868271394387,0.11287313735974625,0.08805084759223848,0.470703125,,
4.382689999999944,1500,,,,0.09375,0.2890625,-1.1328125,0.12646073505637398,5.520528407324716,22.721375364328406,2.7605958528127554,3686,0,62.724534600966905,48.818294601024064,77.82966412041186,0.11308318843257814,0.08801226573372799,0.470703125,,
4.392449999999953,1500,,,,-0.46875,-0.04296875,-0.908203125,0.12646073505637398,5.520528407324716,22.721533426237656,2.763214007622488,3680,0,62.784459438042475,48.730059179805195,77.61484229691176,0.11328794793691825,0.0879282621326466,0.470703125,,
4.401469999999972,1500,,,,0.375,0.25390625,-1.154296875,0.12646073505637398,5.520528407324716,22.721685245457582,2.7670639853246723,3683,0,62.872356928588665,48.76864952925842,77.56771323946158,0.11319830384092781,0.08780533571526532,0.47265625,,
4.409469999999972,1500,,,,-0.625,-0.0859375,-0.75,0.12646073505637398,5.520528407324716,22.7211433112962,2.779560554011902,3691,0,63.15479369013029,48.874990233635515,77.38920100577195,0.11295201044409656,0.08741265840264242,0.47265625,,
4.417549999999814,1500,,,,0.4375,0.1328125,-1.021484375,0.12646073505637398,5.520528407324716,22.72060318258484,2.786430150947557,3686,0,63.30937375566941,48.815261805595334,77.10589903161676,0.11309021406686257,0.0871992262730343,0.47265625,,
4.425224999999861,1500,,,,-0.40625,-0.162109375,-0.83984375,0.12646073505637398,5.520528407324716,22.720639330173707,2.7836556566670247,3686,0,63.24643619452932,48.818451758779084,77.18767205890688,0.11308282439194628,0.08728599964660505,0.474609375,,
