Time (s),ESC signal (µs),Servo 1 (µs),Servo 2 (µs),Servo 3 (µs),AccX (g),AccY (g),AccZ (g),Torque (N·m),Thrust (N),Voltage (V),Current (A),Motor Electrical Speed (RPM),Motor Optical Speed (RPM),Electrical Power (W),Mechanical Power (W),Motor Efficiency (%),Propeller Mech. Efficiency (N/W),Overall Efficiency (N/W),Vibration (g),App message,90% settling time (s),Max acceleration (RPM/s),
0,1000,,,,-0.0625,0.046875,-0.95703125,0.0007760064033843223,0.06803008626196201,22.7264873091993,0.05733483512886109,0,0,1.3030194029310957,0,0,0,0,0.05859375,,
0,1200,,,,-0.0625,0.05078125,-0.9609375,0.0008361256548382578,0.06803008626196201,22.726532074544213,0.05699314657260632,0,0,1.2952565736115371,0,0,0,0,0.05859375,,
0.00796500000031665,1200,,,,-0.0625,0.05078125,-0.95703125,0.0008361256548382578,0.06803008626196201,22.72647343304189,0.05665960584945305,0,0,1.2876730270642196,0,0,0,0,0.05859375,,
0.015930000000167636,1200,,,,-0.0625,0.0546875,-0.955078125,0.0008361256548382578,0.06803008626196201,22.726547647582773,0.0566610883619412,0,0,1.2877109244215543,0,0,0,0,0.05859375,,
0.02393500000005588,1200,,,,-0.0625,0.052734375,-0.95703125,0.0008361256548382578,0.06803008626196201,22.726553617964218,0.05634302891709164,0,0,1.2804828676827915,0,0,0,0,0.05859375,,
0.03133999999985099,1200,,,,-0.0625,0.05078125,-0.953125,0.0008361256548382578,0.06803008626196201,22.726431172141567,0.05542281377927359,0,0,1.2595627627210806,0,0,0,0,0.05859375,,
0.03884000000031665,1200,,,,-0.0625,0.046875,-0.955078125,0.0008361256548382578,0.06803008626196201,22.72623894057685,0.055760233143194726,0,0,1.2672203817945158,0,0,0,0,0.05859375,,
0.047875,1200,,,,-0.0625,-0.0390625,-1.0078125,0.0008361256548382578,0.06803008626196201,22.725480904150157,0.0710194189780804,0,0,1.6139504498102053,0,0,0,0,0.05859375,,
0.05476500000013038,1200,,,,0,0.052734375,-0.986328125,0.0008361256548382578,0.06803008626196201,22.72396743922071,0.11674285279806451,0,0,2.6528607857449544,0,0,0,0,0.05859375,,
0.06228000000026077,1200,,,,-0.09375,0.078125,-0.966796875,0.0008361256548382578,0.06803008626196201,22.722856582764,0.15119367499369193,0,0,3.4355521931026933,0,0,0,0,0.060546875,,
0.07068000000016764,1200,,,,0,0.05859375,-0.96875,0.0008361256548382578,0.06803008626196201,22.7219130959727,0.19167128172168701,0,0,4.355138206273873,0,0,0,0,0.060546875,,
0.07921000000042841,1200,,,,-0.03125,0.02734375,-0.96875,0.0008361256548382578,0.06803008626196201,22.720624507867882,0.21183072135163916,0,0,4.812926279061385,0,0,0,0,0.0625,,
0.08701500000013039,1200,,,,-0.15625,0.09375,-0.958984375,0.0008361256548382578,0.06803008626196201,22.71987241458742,0.2396412788738033,0,0,5.4446192812813745,0,0,0,0,0.064453125,,
0.09521500000031664,1200,,,,0.3125,-0.125,-1.03515625,0.0008361256548382578,0.06803008626196201,22.71929300231244,0.26048639596684287,0,0,5.91806675308708,0,0,0,0,0.06640625,,
0.10543000000016764,1200,,,,-0.09375,-0.01953125,-0.896484375,0.0008361256548382578,0.06803008626196201,22.71889343281816,0.27677709825296476,0,0,6.288069399853748,0,0,0,0,0.068359375,,
0.11383499999996274,1200,,,,-0.125,0.052734375,-0.99609375,0.0008361256548382578,0.06803008626196201,22.718157385258138,0.2916235054017995,0,0,6.625148692958757,0,0,0,0,0.0703125,,
0.12061500000022352,1200,,,,0,0.017578125,-0.921875,0.0008361256548382578,0.06803008626196201,22.71789200283812,0.300861876628319,0,0,6.834947621013357,0,0,0,0,0.0703125,,
0.12913500000024214,1200,,,,-0.125,0,-0.9453125,0.0008361256548382578,0.06803008626196201,22.717666789597033,0.3095924496214057,0,0,7.0332181110742,0,0,0,0,0.072265625,,
0.1382650000001304,1200,,,,-0.0625,0.09375,-0.982421875,0.0008361256548382578,0.0729625495872349,22.71735070852877,0.3129195013155993,0,0,7.108702054924399,0,0,0,0,0.072265625,,
0.14615499999979512,1200,,,,0.125,0.01171875,-0.9921875,0.0008907167079049234,0.0729625495872349,22.71728409696404,0.3176233696691848,0,0,7.215540324609902,0,0,0,0,0.07421875,,
0.15425499999988823,1200,,,,-0.03125,0.05078125,-0.98828125,0.0008907167079049234,0.0729625495872349,22.7171228737866,0.31823736069736547,1,0,7.229437225991598,0.00011342861921748153,0.0015689826977081682,0,0.010092424528553435,0.07421875,,
0.16256000000005588,1200,,,,-0.03125,0.072265625,-1.001953125,0.0008907167079049234,0.0729625495872349,22.717065938901484,0.31906191688707686,1,0,7.24815060451603,0.00011342861921748153,0.0015649318758195884,0,0.010066367763078059,0.07421875,,
0.17024500000011175,1200,,,,0,0.03125,-0.9296875,0.0008907167079049234,0.0729625495872349,22.717078794934203,0.31896907060642216,1,0,7.2460455101130234,0.00011342861921748153,0.0015653865140534053,0,0.010069292207094741,0.07421875,,
0.17827000000001864,1200,,,,-0.0625,0.068359375,-0.9765625,0.0008907167079049234,0.0729625495872349,22.717123976923965,0.315374330098208,1,0,7.164397755980334,0.00011342861921748153,0.0015832261563478846,0,0.010184045061754273,0.07421875,,
0.186,1200,,,,0,0.046875,-0.88671875,0.0008907167079049234,0.0729625495872349,22.71726267882919,0.3121101717473641,1,0,7.090288756319364,0.00011342861921748153,0.0015997743267703443,0,0.010290490570247305,0.07421875,,
0.193125,1200,,,,-0.0625,0.126953125,-0.951171875,0.0008907167079049234,0.0729625495872349,22.71737950954697,0.3087126490148622,1,0,7.013142407068195,0.00011342861921748153,0.0016173722510348925,0,0.01040368858241059,0.07421875,,
0.20302000000001863,1200,,,,-0.09375,0.056640625,-0.91796875,0.0008907167079049234,0.0729625495872349,22.71731159942862,0.30463697605222717,1,0,6.920533109686119,0.00011342861921748153,0.0016390156281273262,0,0.010542908823760272,0.076171875,,
0.2108350000004284,1200,,,,-0.03125,-0.009765625,-1.03125,0.0008907167079049234,0.0729625495872349,22.717633453424572,0.300296785890569,1,0,6.8220323091034665,0.00011342861921748153,0.001662680768399762,0,0.010695133983735625,0.076171875,,
0.21879000000003726,1200,,,,0,0.078125,-0.8828125,0.0008907167079049234,0.0729625495872349,22.71768514680338,0.29625706360580806,195,0,6.73027469351325,0.018200879739376424,0.2704329402322721,0,0.010840946753266611,0.076171875,,
0.22655500000016765,1200,,,,-0.03125,0.037109375,-0.998046875,0.0008907167079049234,0.0729625495872349,22.717869101056255,0.2924302807755546,442,0,6.643392839844177,0.04120925758704977,0.6203043923564867,0,0.010982723940339235,0.076171875,,
0.24410999999986963,1200,,,,-0.0625,0.0859375,-0.98046875,0.0008907167079049234,0.0729625495872349,22.7183009840657,0.2809285458334653,610,0,6.3822192592605616,0.05693846477072858,0.892142097564436,0,0.011432159664738357,0.076171875,,
0.2510150000001304,1200,,,,0,0.02734375,-0.962890625,0.0008907167079049234,0.0729625495872349,22.71828820662443,0.2763454874265786,625,0,6.27809642795712,0.05825761932354334,0.9279503746408726,0,0.011621763129079043,0.076171875,,
0.2591650000000372,1200,,,,-0.0625,0.0078125,-0.890625,0.0008907167079049234,0.0729625495872349,22.718504202499567,0.2705400370362586,631,0,6.14626496835263,0.058884572022153255,0.9580545636309584,0,0.011871038746770935,0.076171875,,
0.2669550000000745,1200,,,,-0.03125,0.015625,-0.986328125,0.0008907167079049234,0.0729625495872349,22.718674921726308,0.2651870562608313,634,0,6.024698524639371,0.059129052391246516,0.9814441693542814,0,0.012110572718093363,0.076171875,,
0.27511499999975786,1200,,,,-0.03125,0.03125,-0.947265625,0.0008907167079049234,0.0729625495872349,22.718740125620645,0.2597345655757211,635,0,5.900842096955782,0.05922625826086881,1.0036916305796995,0,0.012364769025911734,0.07421875,,
0.28214999999990686,1200,,,,-0.0625,0.0390625,-0.9609375,0.0008907167079049234,0.13597702899273445,22.718795441456457,0.2553022668921013,688,0,5.80015997726177,0.06417247557118522,1.1063914757999616,0,0.023443668713587554,0.07421875,,
0.2900600000000559,1200,,,,0,0.03515625,-0.96484375,0.0008907167079049234,0.13597702899273445,22.71904637997369,0.24981125115806438,712,0,5.675473401299321,0.06641488232321485,1.1702086791211124,0,0.023958711349365922,0.07421875,,
0.2967949999999255,1200,,,,-0.03125,0.005859375,-0.966796875,0.008974570554311122,0.13597702899273445,22.719173368045123,0.24542403727399467,721,0,5.575831251513454,0.6776588159699871,12.15350295592338,0.20065706486545104,0.024386862309691684,0.07421875,,
0.3149250000002794,1200,,,,-0.0625,0.029296875,-0.95703125,0.008974570554311122,0.13597702899273445,22.71965371328958,0.23475434614623703,727,0,5.333537452132222,0.6834190828731629,12.81361739758569,0.19896580648739465,0.025494717195315476,0.07421875,,
0.32243500000005587,1200,,,,-0.15625,0.046875,-0.943359375,0.008974570554311122,0.13597702899273445,22.71966996656424,0.2306916859052008,728,0,5.241238967796462,0.6839101735191812,13.04863559401324,0.19882293648746374,0.025943680459565528,0.07421875,,
0.3300649999999441,1200,,,,0.125,-0.015625,-1.04296875,0.008974570554311122,0.13597702899273445,22.717540417109014,0.29698262420974864,728,0,6.746714768664062,0.6841065780923186,10.13984734125318,0.19876585512730544,0.020154554276445226,0.076171875,,
0.33809000000031664,1200,,,,0,0.033203125,-0.951171875,0.008974570554311122,0.13597702899273445,22.714732042174116,0.37020750451838524,756,0,8.409164265137084,0.7100691214643107,8.443991567724897,0.19149829908435034,0.016170100227019146,0.078125,,
0.346160000000149,1200,,,,-0.0625,0.046875,-0.9921875,0.008974570554311122,0.13597702899273445,22.712793245420027,0.4364218465816754,766,0,9.912359169194012,0.7201649597337637,7.265323496064574,0.18881372545951627,0.013717927959605093,0.078125,,
0.35640499999979514,1200,,,,-0.0625,-0.0078125,-1.08984375,0.008974570554311122,0.13597702899273445,22.710946013837024,0.4935164915827871,770,0,11.208226397274931,0.7240874803146988,6.460321683819191,0.1877908853411426,0.01213189528592987,0.080078125,,
0.3720800000000745,1200,,,,0.0625,0.015625,-1.03125,0.008974570554311122,0.13597702899273445,22.708118268081403,0.5939250005431643,773,0,13.486919154704488,0.7262362396313803,5.384745257986184,0.18723525703117358,0.010082141624264363,0.080078125,,
0.3879599999999627,1200,,,,-0.15625,0.107421875,-0.978515625,0.008974570554311122,0.13597702899273445,22.706365955731872,0.6476770511928467,946,0,14.706392145514062,0.8894256712658747,6.047884909264976,0.15288183530750266,0.009246117446569788,0.08203125,,
0.40493000000016766,1200,,,,0.09375,-0.048828125,-1.009765625,0.008974570554311122,0.13597702899273445,22.704975065497063,0.6862988810704777,992,0,15.58239898218373,0.9326926774119673,5.985552535770452,0.1457897464897474,0.008726321867910388,0.087890625,,
0.41220000000018625,1200,,,,-0.125,0.052734375,-1.021484375,0.008974570554311122,0.13597702899273445,22.704586556014412,0.691450999972404,1113,0,15.699109078116166,1.0464291694811627,6.665532192140996,0.12994384422612587,0.008661448768597969,0.08984375,,
0.420339999999851,1200,,,,0,0.01953125,-1.0546875,0.008974570554311122,0.13597702899273445,22.704557882818886,0.6975066528778442,1170,0,15.836580173916273,1.0994475702826068,6.942455746180971,0.12367759288219841,0.008586262153788491,0.08984375,,
0.4283149999999441,1200,,,,-0.03125,0.150390625,-0.921875,0.008974570554311122,0.13597702899273445,22.704268475247932,0.705046240025964,1192,0,16.007559121013582,1.1204346030043382,6.999409432344445,0.12136096888486403,0.00849455110331178,0.091796875,,
0.4362949999999255,1200,,,,-0.125,0.07421875,-1.0625,0.008974570554311122,0.2225963849949271,22.704157748219828,0.7067649261339565,1201,0,16.04650237385428,1.1286693842980244,7.033740799098043,0.19722018519477327,0.013871956630101483,0.091796875,,
0.4562799999997951,1200,,,,-0.1875,0.076171875,-1.0234375,0.04457172634032273,0.2225963849949271,22.70466732108681,0.7041958585764089,1279,0,15.988532697864459,5.971602259156769,37.3492825889794,0.037275822356320036,0.01392225222922793,0.09375,,
0.46337000000011175,1200,,,,-0.03125,0.091796875,-0.984375,0.04457172634032273,0.2225963849949271,22.70463817101821,0.7012219668579335,1292,0,15.920991035079103,6.031185581371082,37.8819733525534,0.03690756684431584,0.013981314637039562,0.09375,,
0.471464999999851,1200,,,,-0.09375,0.09375,-0.994140625,0.04457172634032273,0.2225963849949271,22.70460689647704,0.6993062019032074,1298,0,15.877472414480726,6.058606448521642,38.158507162613695,0.036740525545976455,0.014019636072043342,0.09375,,
0.4794850000003353,1200,,,,0,-0.03515625,-0.95703125,0.04457172634032273,0.2225963849949271,22.70470743513489,0.6951606772999448,1356,0,15.783419798505461,6.331185027392134,40.112884965472674,0.035158723687880644,0.014103178388247954,0.09375,,
0.4883199999998324,1200,,,,-0.0625,0.05078125,-0.947265625,0.04457172634032273,0.2225963849949271,22.70496057271113,0.6895570468768464,1381,0,15.656365561973917,6.445630410969963,41.1693913600553,0.034534463008627565,0.01421762823011541,0.09375,,
0.4963000000002794,1200,,,,0,0.076171875,-0.998046875,0.04457172634032273,0.2225963849949271,22.705309047361595,0.6843377912104717,1389,0,15.538101042222573,6.484745893897454,41.73448142907606,0.03432615381342915,0.014325842288581673,0.09375,,
0.5039599999999628,1200,,,,-0.125,0.08984375,-0.96875,0.04457172634032273,0.2225963849949271,22.705635587339188,0.6762602772851197,1408,0,15.354919418228882,6.570472048252575,42.79066447234048,0.033878294186507785,0.014496747194300974,0.09375,,
0.5164250000002794,1200,,,,0,0.046875,-0.9765625,0.04457172634032273,0.2225963849949271,22.705849939973756,0.6675759054795232,1430,0,15.157878333360157,6.6753079008543414,44.03853728105876,0.033346234855539475,0.014685194068686165,0.09375,,
0.5334799999999814,1200,,,,-0.03125,0.04296875,-0.97265625,0.04457172634032273,0.2225963849949271,22.706402051848134,0.6452664493609426,1450,0,14.651679429758067,6.767450064459342,46.188903442116114,0.03289220945477498,0.015192550865044601,0.091796875,,
0.5414500000001863,1200,,,,-0.0625,0.041015625,-0.9765625,0.04457172634032273,0.2225963849949271,22.706576512005594,0.6362963402098246,1466,0,14.448111533283525,6.840769439666467,47.34715276738877,0.03253967071367635,0.015406607602809604,0.091796875,,
0.549464999999851,1200,,,,-0.0625,0.109375,-0.978515625,0.04457172634032273,0.2225963849949271,22.70690827939363,0.6276562327561306,1472,0,14.252132508183196,6.870168409043351,48.20449434566148,0.03240042626930639,0.015618461648958018,0.091796875,,
0.5577999999998138,1200,,,,0,0.03515625,-1.04296875,0.04457172634032273,0.2225963849949271,22.70709628527631,0.6190787069384247,1474,0,14.057479806615165,6.881861624385157,48.955159239472586,0.03234537355505378,0.01583472913047883,0.091796875,,
0.5662200000002049,1200,,,,-0.125,0.048828125,-0.974609375,0.04457172634032273,0.2225963849949271,22.707252839367257,0.6105182827278304,1490,0,13.863193008957149,6.953341549791933,50.15685452333607,0.03201286509528472,0.016056646174593785,0.091796875,,
0.574785000000149,1200,,,,-0.0625,0.12109375,-0.91796875,0.04457172634032273,0.2225963849949271,22.707225682109833,0.6077835984816982,1495,0,13.801079336608748,6.977404948439339,50.55695122287336,0.03190246039033696,0.01612891133843915,0.091796875,,
0.5815649999999442,1200,,,,0,0.1171875,-1.029296875,0.04457172634032273,0.5396962866029852,22.707536867010564,0.604913250057798,1497,0,13.736089927030626,6.987854638702864,50.87222547190655,0.07723347357768842,0.03929038681822703,0.09375,,
0.5885000000004657,1200,,,,0.0625,0.0234375,-0.9921875,0.04457172634032273,0.5396962866029852,22.707896201270284,0.5965706841114652,1504,0,13.546865171523955,7.02198685632652,51.83477333993856,0.07685805992597965,0.0398392011561057,0.09375,,
0.5961850000000559,1200,,,,-0.03125,0.001953125,-0.97265625,0.05022558343777446,0.5396962866029852,22.70807714927995,0.589413728815949,1514,0,13.384452426797342,7.9651953405494496,59.51080467514783,0.06775681744495123,0.04032262728376142,0.09375,,
0.6038849999997765,1200,,,,-0.0625,-0.0546875,-0.99609375,0.05022558343777446,0.5396962866029852,22.708304695015244,0.5810128960803225,1519,0,13.193817875925191,7.987506704723588,60.53976779002248,0.06756755349999567,0.04090523999029659,0.091796875,,
0.6124150000000372,1200,,,,-0.09375,0.017578125,-0.974609375,0.05022558343777446,0.5396962866029852,22.708617101651335,0.5701092851790717,1521,0,12.946393463227684,7.998515707371154,61.78180610754458,0.06747455482341803,0.041686998632933,0.09375,,
0.6204350000000559,1200,,,,-0.03125,0.0546875,-0.994140625,0.05022558343777446,0.5396962866029852,22.708914229838328,0.5623701219540899,1530,0,12.770814864879148,8.045346453418503,62.99790998884423,0.06708179563524773,0.0422601292331938,0.09375,,
0.6283600000003353,1200,,,,-0.1875,0.09375,-0.95703125,0.05022558343777446,0.5396962866029852,22.709066112336835,0.5547841514597539,1533,0,12.598629973576243,8.063831686419435,64.00562365377922,0.0669280197789725,0.04283769645865607,0.09375,,
0.636160000000149,1200,,,,-0.03125,0.103515625,-0.982421875,0.05022558343777446,0.5396962866029852,22.70940458745026,0.5466845858904025,1535,0,12.41488144270785,8.07106158956151,65.01118538109135,0.06686806693446459,0.04347172295551703,0.095703125,,
0.6434350000000559,1200,,,,0,0.021484375,-0.95703125,0.05022558343777446,0.5396962866029852,22.70960259916443,0.5390376968215499,1537,0,12.241331880786278,8.084544577575972,66.04301440650664,0.06675654780851056,0.044088036486461125,0.09375,,
0.6514399999999442,1200,,,,-0.125,0.1171875,-0.87890625,0.05022558343777446,0.5396962866029852,22.709785666482997,0.5317633367455462,1541,0,12.076231402785176,8.10249413072318,67.09455839720394,0.06660866122155587,0.04469078710089255,0.09375,,
0.6605449999999254,1200,,,,0,0.044921875,-0.916015625,0.05022558343777446,0.5396962866029852,22.710342013974344,0.5214912155322285,1542,0,11.84324386202012,8.10995919073999,68.47751583286797,0.06654734924180805,0.04556997161341304,0.09375,,
0.6700100000002421,1200,,,,-0.0625,0.037109375,-0.953125,0.05022558343777446,0.5396962866029852,22.71042396447393,0.5150355518744111,1542,0,11.69667573984468,8.112524827452406,69.35752523101176,0.0665263032264232,0.04614099754552585,0.09375,,
0.6854499999997206,1200,,,,-0.03125,0.01171875,-0.955078125,0.05022558343777446,0.5396962866029852,22.711109421151356,0.4988105164475847,1547,0,11.328540219462115,8.134111000762603,71.80193425794108,0.06634975678994134,0.047640408750617494,0.09375,,
0.6925500000002794,1200,,,,-0.0625,0.04296875,-1.03515625,0.05022558343777446,0.5396962866029852,22.711373025659388,0.4935110634203117,1547,0,11.208313853628546,8.136064171048153,72.58954627162058,0.06633382864941897,0.04815142524120749,0.09375,,
0.7001399999996647,1200,,,,-0.03125,0.0390625,-0.986328125,0.05022558343777446,0.5396962866029852,22.711501423687256,0.48711425058691693,1548,0,11.063095995703115,8.141266615580484,73.58940588369238,0.06629143990569385,0.04878347677834506,0.091796875,,
0.707375,1200,,,,-0.09375,0.013671875,-0.99609375,0.05022558343777446,0.5396962866029852,22.711610074701177,0.4831198491049132,1549,0,10.972429632219258,8.145195188431499,74.23328707904477,0.06625946636239091,0.049186579881836744,0.09375,,
0.7154350000000559,1200,,,,-0.0625,-0.0078125,-0.95703125,0.05022558343777446,0.5396962866029852,22.711825836648067,0.4783751973203311,1549,0,10.864774166111514,8.147018830978709,74.98562516274109,0.06624463473078175,0.04967395348965101,0.09375,,
0.725125,1200,,,,-0.09375,0.01171875,-0.97265625,0.05022558343777446,0.5396962866029852,22.71183624810018,0.47076309556236423,1549,0,10.691894338061154,8.147805110712653,76.20543986960274,0.0662382419890478,0.050477143669645785,0.09375,,
0.7324849999998696,1200,,,,0,0.0234375,-0.98046875,0.05022558343777446,0.8628295016730879,22.711902804850446,0.4662437481190066,1550,0,10.589282690648051,8.15141574750051,76.97797844890334,0.10585026311995677,0.0814813927325878,0.09375,,
0.7403950000000187,1200,,,,-0.125,-0.0078125,-1.02734375,0.05022558343777446,0.8628295016730879,22.712005879644448,0.4617978421462151,1550,0,10.488355306031956,8.153041679796189,77.73422468923508,0.10582915377597543,0.08226547218293284,0.09375,,
0.748535000000149,1200,,,,0,0.05859375,-1.021484375,0.052603873344245794,0.8628295016730879,22.71210365189817,0.4566175154384346,1550,0,10.370744339909939,8.539775743986036,82.34486806431289,0.10103655266131761,0.083198415985692,0.09375,,
0.7566099999998697,1200,,,,0,-0.056640625,-1.013671875,0.052603873344245794,0.8628295016730879,22.712229658027354,0.45146900115127747,1551,0,10.25386763762803,8.545040454957922,83.3348035779268,0.10097430272228439,0.0841467368377969,0.09375,,
0.7642200000002048,1200,,,,-0.0625,0.015625,-0.94921875,0.052603873344245794,0.8628295016730879,22.71234910913382,0.44807859031769876,1552,0,10.176917371624125,8.549607283135135,84.00979364314826,0.10092036664363477,0.0847829917612262,0.09375,,
0.7733450000002049,1200,,,,0.03125,0.091796875,-0.962890625,0.052603873344245794,0.8628295016730879,22.7125279062348,0.44485218601437426,1552,0,10.10371768900103,8.551410055958078,84.63627269858496,0.1008990910302475,0.08539722983475376,0.091796875,,
0.7818500000000931,1200,,,,-0.0625,0.134765625,-0.962890625,0.052603873344245794,0.8628295016730879,22.71264923138951,0.4405633379819035,1553,0,10.006360559793077,8.554062102894378,85.48624699039696,0.10086780891865849,0.08622810426600604,0.09375,,
0.7903799999998883,1200,,,,-0.0625,0.06640625,-1,0.052603873344245794,0.8628295016730879,22.71261471653124,0.4346932504233554,1554,0,9.873020316742302,8.55861112024841,86.68685818193886,0.10081419631647487,0.08739265938812397,0.09375,,
0.7987350000003353,1200,,,,-0.03125,0.015625,-0.931640625,0.052603873344245794,0.8628295016730879,22.71271591931376,0.43189293915209626,1554,0,9.809461634519025,8.560227023541904,87.26500334553403,0.10079516574737771,0.08795890476158573,0.091796875,,
0.8064450000002981,1200,,,,-0.09375,0.04296875,-0.947265625,0.052603873344245794,0.8628295016730879,22.712972811495394,0.4269476617381763,1554,0,9.69725063299073,8.560856521364908,88.28127523321167,0.10078775406640292,0.08897671456873366,0.09375,,
0.8145150000001304,1200,,,,-0.0625,0.15625,-0.9921875,0.052603873344245794,0.8628295016730879,22.71312252288826,0.42602354861434316,1555,0,9.67632505731322,8.564132102908289,88.50603976388379,0.10074920509225682,0.08916913152074966,0.09375,,
0.8250700000002981,1200,,,,-0.03125,0.025390625,-1,0.052603873344245794,0.8628295016730879,22.713396971134134,0.422783176965115,1555,0,9.602842131125911,8.56541536506706,89.19666957039504,0.10073411094481495,0.08985147208412175,0.09375,,
0.8402900000000373,1200,,,,-0.0625,0.01953125,-0.96484375,0.052603873344245794,0.8628295016730879,22.71390528093284,0.41793980588638774,1556,0,9.493045164034868,8.570149937735309,90.27819619150219,0.10067846046356263,0.09089069805987904,0.09375,,
0.846820000000298,1200,,,,0.03125,-0.0390625,-0.98828125,0.052603873344245794,0.8628295016730879,22.714163694278657,0.41532128774308585,1556,0,9.43367571551506,8.572136703153118,90.8674090742274,0.10065512620158173,0.09146270527977114,0.09375,,
0.8535950000002049,1200,,,,-0.0625,0.03125,-0.994140625,0.052603873344245794,0.8628295016730879,22.714241767042402,0.41225529486898377,1556,0,9.364066437397453,8.573014886437903,91.55226464647546,0.10064481551735582,0.09214260785540661,0.095703125,,
0.859660000000149,1200,,,,0,0,-0.9765625,0.052603873344245794,0.8628295016730879,22.714307291025463,0.410651765914485,1556,0,9.327670400583868,8.573372399102551,91.91332916915567,0.10064061859291307,0.09250214304517866,0.095703125,,
0.8674300000001677,1200,,,,0,0.0625,-0.95703125,0.052603873344245794,0.8628295016730879,22.714293925858176,0.4085619566172705,1557,0,9.280196369528399,8.577803896681269,92.43127575238125,0.10058862525487608,0.09297534958486393,0.09375,,
0.8754200000003911,1200,,,,0,0.171875,-0.98828125,0.052603873344245794,0.8628295016730879,22.71444333170093,0.40705493679408816,1558,0,9.246026294698419,8.579854011192191,92.79504229954219,0.10056459009064138,0.09331895391297189,0.09375,,
0.8825249999999069,1200,,,,-0.09375,0.046875,-0.97265625,0.052603873344245794,1.0117667104209571,22.714685450344547,0.4051204836988728,1558,0,9.202184356711332,8.580610146155525,93.24536233505819,0.11791314291027093,0.1099485373473371,0.09375,,
0.8920499999998137,1200,,,,-0.03125,0.103515625,-0.955078125,0.052603873344245794,1.0117667104209571,22.714866778834388,0.40315728996552336,1558,0,9.157664132482768,8.580979579120298,93.7027112479815,0.11790806644999395,0.11048305504371597,0.09375,,
0.8997700000000186,1200,,,,-0.0625,0.04296875,-0.9765625,0.04133080578925079,1.0117667104209571,22.71500136361395,0.40130539363556206,1558,0,9.115652563657425,6.742170662405771,73.96256730193592,0.1500654256740416,0.11099224146109966,0.09375,,
0.907660000000149,1200,,,,-0.0625,-0.0234375,-0.9765625,0.04133080578925079,1.0117667104209571,22.714957651527797,0.3999034620689158,1558,0,9.083790205594775,6.742204134895444,74.22236734114433,0.1500646806560459,0.11138155852584555,0.09375,,
0.9159749999996275,1200,,,,-0.0625,-0.025390625,-0.958984375,0.04133080578925079,1.0117667104209571,22.715009001192023,0.39583051731258195,1558,0,8.991293763701794,6.742219592410233,74.98608953951475,0.1500643366110339,0.11252737781802871,0.095703125,,
0.9246049999999814,1200,,,,0,-0.01171875,-1.00390625,0.04133080578925079,1.0117667104209571,22.71511925786395,0.39399460939733777,1558,0,8.949634539416053,6.744119892526533,75.35637195936913,0.15002205277254071,0.11305117610835683,0.09375,,
0.9323349999999627,1200,,,,0,-0.017578125,-0.9921875,0.04133080578925079,1.0117667104209571,22.71496757904175,0.39215536205371415,1558,0,8.907796334997498,6.744753978833438,75.71742466017362,0.150007948932772,0.11358215571744337,0.09375,,
0.9406800000001676,1200,,,,-0.0625,0.10546875,-0.984375,0.04133080578925079,1.0117667104209571,22.71501834775258,0.38974753374813204,1558,0,8.853122380080137,6.745007052417826,76.18788900506277,0.15000232061407223,0.11428360153446775,0.09375,,
0.9486500000003726,1200,,,,0,0.18359375,-0.9921875,0.04133080578925079,1.0117667104209571,22.715115733606538,0.3890582103009801,1559,0,8.837502274096595,6.74550303962158,76.32816185397964,0.14999129115768908,0.11448559548171477,0.095703125,,
0.9565900000003167,1200,,,,-0.0625,0.0234375,-0.939453125,0.04133080578925079,1.0117667104209571,22.715256179449966,0.38840829680806693,1559,0,8.822793964219079,6.745894998378391,76.45984963194687,0.14998257616879157,0.1146764522127782,0.095703125,,
0.9645200000000186,1200,,,,-0.0625,0.07421875,-0.98828125,0.04133080578925079,1.0117667104209571,22.715293244257083,0.38810010771095854,1559,0,8.815807754782183,6.746052385238886,76.52222658303151,0.14997907704286664,0.11476732916188181,0.09375,,
0.9717349999998696,1200,,,,-0.0625,0.107421875,-0.9765625,0.04133080578925079,1.0117667104209571,22.715409143605967,0.38589846399489713,1559,0,8.765841497533184,6.7461089240361485,76.95905665114509,0.14997782007581703,0.11542151551630048,0.09375,,
0.9825,1200,,,,-0.0625,-0.025390625,-0.95703125,0.04133080578925079,1.0117667104209571,22.71534011163145,0.38380443402109665,1559,0,8.718248255141422,6.747323257275401,77.39310764976548,0.1499508281791605,0.11605160587441254,0.09375,,
1.0005750000001863,1200,,,,-0.03125,0.03515625,-1.009765625,0.04133080578925079,1.0117667104209571,22.71534862526715,0.38690852655941244,1559,0,8.788762066885488,6.748029969151039,76.78020997492277,0.14993512403565187,0.1151205030607344,0.09375,,
1.0084850000003354,1200,,,,-0.03125,0.111328125,-1.013671875,0.04133080578925079,1.0117667104209571,22.71523903920824,0.38570915771381126,1561,0,8.761475717080893,6.755620657114617,77.10596793579224,0.14976665531914152,0.11547902922888574,0.09375,,
1.0173900000001304,1200,,,,0,0.03125,-0.94140625,0.04133080578925079,1.0117667104209571,22.71521060436027,0.38337400703172264,1561,0,8.708421309963075,6.758244359651489,77.60584977577463,0.14970851253344325,0.11618256333825071,0.09375,,
1.033560000000056,1200,,,,-0.09375,0.025390625,-1.0078125,0.04133080578925079,1.0784668739095231,22.715383175520206,0.37883185836123645,1562,0,8.605310821769883,6.76170736876704,78.57598067999055,0.1594962359493791,0.1253257315448963,0.09375,,
1.040464999999851,1200,,,,0,-0.04296875,-0.99609375,0.04133080578925079,1.0784668739095231,22.715581438195198,0.3772988206486541,1563,0,8.570562086979507,6.764586422835209,78.92815376849138,0.15942835326472338,0.12583385581535453,0.09375,,
1.0475400000000372,1200,,,,-0.0625,0.04296875,-0.9609375,0.03526614623917826,1.0784668739095231,22.715599434938852,0.3772303465744806,1563,0,8.56901344748906,5.773060060028047,67.37135021908153,0.18681026400135595,0.12585659720554432,0.09375,,
1.054779999999795,1200,,,,0.03125,-0.013671875,-1,0.03526614623917826,1.0784668739095231,22.715705626876332,0.37515012465403685,1563,0,8.521799797527063,5.772576278091589,67.73893326814284,0.18682591999738182,0.12655388527462041,0.09375,,
1.0627299999999813,1200,,,,-0.0625,0.1015625,-0.958984375,0.03526614623917826,1.0784668739095231,22.715525529100628,0.3742266180187471,1563,0,8.50075429527384,5.77134253700081,67.89212270503454,0.1868658578130366,0.1268671974802422,0.09375,,
1.0696800000001676,1200,,,,-0.0625,0.1015625,-0.984375,0.03526614623917826,1.0784668739095231,22.7155462325692,0.37400842431192405,1563,0,8.495805653827869,5.770883512417069,67.92626558985539,0.1868807213989006,0.12694109515365495,0.09375,,
1.0776400000001305,1200,,,,-0.03125,0.044921875,-0.978515625,0.03526614623917826,1.0784668739095231,22.715176152631354,0.37345283182866096,1563,0,8.483046859687047,5.77066945843373,68.0259057138654,0.18688765344779246,0.12713201892525083,0.09375,,
1.084630000000354,1200,,,,-0.125,0.1640625,-0.890625,0.03526614623917826,1.0784668739095231,22.715211289328067,0.3769643209428645,1562,0,8.562824198755244,5.768241587838691,67.36377454388477,0.18696631503494554,0.12594756693315007,0.09375,,
1.092560000000056,1200,,,,-0.03125,-0.00390625,-0.970703125,0.03526614623917826,1.0784668739095231,22.714860866204226,0.3813348181397577,1561,0,8.661967337483889,5.7645566814170195,66.5502010896695,0.18708583044835617,0.12450599637365917,0.09375,,
1.1003500000000932,1200,,,,-0.125,-0.01953125,-0.9453125,0.03526614623917826,1.0784668739095231,22.714655639174428,0.38562712650508435,1561,0,8.759387383687345,5.763086215968994,65.79325657752757,0.18713356585247473,0.12312126712399522,0.09375,,
1.1086749999998138,1200,,,,0,-0.03125,-0.974609375,0.03526614623917826,1.0784668739095231,22.714919238031268,0.38385455148628284,1560,0,8.71922513616163,5.762503683205006,66.08963059464904,0.18715248322578049,0.12368838481263085,0.095703125,,
1.1195249999999068,1200,,,,0.03125,0.072265625,-0.994140625,0.03526614623917826,1.0784668739095231,22.714987579129957,0.382516824345329,1567,0,8.688864913812385,5.78763833695807,66.60983217448418,0.18633971425318116,0.12412057093845735,0.095703125,,
1.1267949999999254,1200,,,,-0.125,0.087890625,-0.931640625,0.03526614623917826,1.0784668739095231,22.715039905055125,0.38339699370999153,1569,0,8.708878011600627,5.794882428373463,66.53994258105824,0.186106773906064,0.12383534049655485,0.095703125,,
1.1364050000002608,1200,,,,0,-0.02734375,-1.03125,0.03526614623917826,1.0784668739095231,22.714787628430752,0.38602994976138416,1570,0,8.768588327043634,5.7973997866116855,66.11554300857802,0.1860259622598561,0.12299207508503626,0.095703125,,
1.1518650000002235,1200,,,,-0.0625,0.037109375,-0.93359375,0.03526614623917826,1.0784668739095231,22.714593237935688,0.38456916873897024,1571,0,8.735332239756762,5.803035018885092,66.43176080325802,0.18584531549436067,0.12346031545327386,0.095703125,,
1.1595449999999254,1200,,,,-0.0625,0.087890625,-1.009765625,0.03526614623917826,1.0784668739095231,22.714532020609866,0.3825550942515557,1572,0,8.689559938024388,5.803851655299559,66.79108834847501,0.1858191659541752,0.12411064330085256,0.09765625,,
1.1668050000001677,1200,,,,0,-0.05859375,-0.94140625,0.03526614623917826,1.0784668739095231,22.714595594694405,0.38028694094518883,1573,0,8.638064073513398,5.8080116341480625,67.23742246780701,0.1856860732800023,0.12485052955515688,0.09765625,,
1.1745300000002608,1200,,,,0,-0.00390625,-0.95703125,0.03526614623917826,1.0784668739095231,22.7147283868617,0.37827624134386195,1574,0,8.59244207732877,5.814049189607177,67.66468877279482,0.18549324897995734,0.1255134296168335,0.09765625,,
1.1818799999998881,1200,,,,-0.0625,0.1015625,-0.990234375,0.03526614623917826,1.1060200395229591,22.714957612539433,0.37618307844630466,1575,0,8.544982681462407,5.816312120062372,68.06698546833047,0.19015830249341886,0.12943502412501934,0.09765625,,
1.1897549999998882,1200,,,,-0.0625,0.0625,-0.9296875,0.03526614623917826,1.1060200395229591,22.71500874596346,0.3748838390104766,1575,0,8.515489681843334,5.8173605397486545,68.31504419707522,0.19012403167480935,0.12988331626790728,0.09765625,,
1.1978300000000746,1200,,,,-0.0625,0.09375,-1.001953125,0.03268390806930173,1.1060200395229591,22.71515627432365,0.37299902072131313,1574,0,8.472731045854314,5.386985656136138,63.58027449451469,0.2053133440708401,0.13053878773410751,0.095703125,,
1.2056900000004098,1200,,,,0.03125,-0.052734375,-0.982421875,0.03268390806930173,1.1060200395229591,22.715263206437506,0.3711093444833898,1573,0,8.429846438308685,5.385251383402926,63.88314926983879,0.20537946342331526,0.13120286918831045,0.09765625,,
1.213839999999851,1200,,,,-0.1875,0.12109375,-0.98046875,0.03268390806930173,1.1060200395229591,22.715398276312495,0.36941054113875244,1573,0,8.391307569434883,5.384566300175695,64.16838205035931,0.20540559403769812,0.1318054463349202,0.09765625,,
1.2217150000003167,1200,,,,-0.03125,0.10546875,-0.9765625,0.03268390806930173,1.1060200395229591,22.715233233673175,0.36813433907809884,1572,0,8.36225737348314,5.378841316490685,64.32283863382492,0.20562421801365935,0.13226333394499043,0.09765625,,
1.2295699999998324,1200,,,,-0.0625,0.0703125,-0.91796875,0.03268390806930173,1.1060200395229591,22.715402196397854,0.3671187371253007,1569,0,8.339249767634861,5.371052019547169,64.40689713351134,0.20592242180819673,0.1326282423888406,0.09765625,,
1.236885000000242,1200,,,,-0.0625,0.095703125,-0.96484375,0.03268390806930173,1.1060200395229591,22.715342111445946,0.3660918026426721,1568,0,8.315900541224249,5.368216078640072,64.55363495544854,0.2060312072615279,0.1330006334299103,0.09765625,,
1.2446899999999441,1200,,,,-0.03125,-0.0390625,-0.96484375,0.03268390806930173,1.1060200395229591,22.715275844367774,0.36495769224596475,1568,0,8.29011465089097,5.36687032971701,64.7381918794116,0.20608286982429824,0.13341432369745224,0.09765625,,
1.2527600000002421,1200,,,,-0.0625,0.0390625,-0.9609375,0.03268390806930173,1.1060200395229591,22.715506743818786,0.36484638176838863,1567,0,8.287670445517715,5.363027341625698,64.71091456738878,0.206230542764246,0.13345367034003341,0.09765625,,
1.2598250000001863,1200,,,,0.0625,-0.08203125,-1.0078125,0.03268390806930173,1.1060200395229591,22.715643412587937,0.36447150831066705,1567,0,8.279204816833193,5.361606886707239,64.75992568520682,0.20628517959141288,0.1335901290029944,0.09765625,,
1.266785000000149,1200,,,,-0.09375,0.12109375,-0.98046875,0.03268390806930173,1.1060200395229591,22.71557264064315,0.3629918906699002,1566,0,8.245568660476513,5.360989603306041,65.01661466968159,0.20630893200033315,0.13413508334779203,0.09765625,,
1.274850000000093,1200,,,,-0.09375,0.107421875,-1.0078125,0.03268390806930173,1.1060200395229591,22.715692234269724,0.3652210650313166,1566,0,8.296249310723598,5.360699411342301,64.61593921018198,0.20632010016879782,0.13331567050345697,0.09765625,,
1.281785000000149,1200,,,,0,0.02734375,-0.9453125,0.03268390806930173,1.1060200395229591,22.715878393685486,0.36539253984886144,1564,0,8.300212501166614,5.353972413233885,64.50404025778101,0.20657933103822348,0.13325201485715038,0.09765625,,
1.292125,1200,,,,-0.0625,0.05859375,-0.97265625,0.03268390806930173,1.1060200395229591,22.715687023091153,0.36408162525703036,1563,0,8.27036425019706,5.350821290423145,64.69873790982845,0.20670098653874022,0.13373292953772933,0.09765625,,
1.2992349999998696,1200,,,,-0.03125,-0.015625,-0.984375,0.03268390806930173,1.1060200395229591,22.7157867705334,0.3638656355054904,1563,0,8.265494189267347,5.349454650127392,64.72032437060568,0.20675379302385902,0.1338117254935723,0.09765625,,
1.3076749999998136,1200,,,,0,-0.046875,-1.046875,0.03268390806930173,1.1060200395229591,22.715667242915085,0.3630673580314367,1562,0,8.24731729180643,5.34763756189568,64.84093399933172,0.20682404645442853,0.13410664345626316,0.09765625,,
1.3155500000002793,1200,,,,-0.03125,0.0625,-0.984375,0.03268390806930173,1.1060200395229591,22.71577309962517,0.3639352007892039,1562,0,8.267069444094084,5.346945733182883,64.67764386571943,0.20685080693059082,0.13378622823993444,0.09765625,,
1.3227799999997951,1200,,,,0,0.09765625,-0.98828125,0.03268390806930173,1.1060200395229591,22.71584566701881,0.3641789337149869,1562,0,8.272632453449116,5.346650741034728,64.63058489689753,0.2068622195638148,0.1336962624347979,0.09765625,,
1.3323349999999627,1200,,,,-0.09375,0.115234375,-0.96484375,0.03268390806930173,1.1181344767372512,22.715974736290313,0.3636995812363101,1562,0,8.261790498963386,5.345992464683538,64.70743194655329,0.2091537696926852,0.13533803318754506,0.09765625,,
1.3397050000000745,1200,,,,-0.03125,0.044921875,-0.958984375,0.03268390806930173,1.1181344767372512,22.715975903466095,0.3633713133277038,1562,0,8.254333997562947,5.345806408132577,64.76363095691187,0.20916104912370803,0.1354602899600834,0.09765625,,
1.3487099999999628,1200,,,,0,0.06640625,-0.96484375,0.03157541817267204,1.1181344767372512,22.715977199037045,0.3627873411834788,1562,0,8.241068970423177,5.164416667809386,62.66682982928845,0.21650740996689088,0.1356783301717514,0.09765625,,
1.3568149999999441,1200,,,,-0.0625,0.015625,-0.95703125,0.03157541817267204,1.1181344767372512,22.716123581662107,0.3631358517864825,1562,0,8.24903888611387,5.164062464150899,62.6019895826154,0.21652226023588586,0.1355472427969127,0.095703125,,
1.3641049999999815,1200,,,,0,-0.0234375,-0.970703125,0.03157541817267204,1.1181344767372512,22.716118326214747,0.36171576117383675,1562,0,8.21677803128171,5.163384928632045,62.839532831175006,0.21655067212536538,0.13607943070634915,0.095703125,,
1.3719399999999442,1200,,,,0,0.0234375,-1.046875,0.03157541817267204,1.1181344767372512,22.7162430642424,0.36314313945474147,1561,0,8.24924782296598,5.1630665860569565,62.58833164986185,0.21656402413186243,0.1355438096579369,0.095703125,,
1.3799549999996088,1200,,,,-0.0625,0.025390625,-0.9921875,0.03157541817267204,1.1181344767372512,22.716133226254968,0.3624822362540834,1561,0,8.234194770898586,5.16294089297065,62.7012238187223,0.21656929643715125,0.13579159928169038,0.095703125,,
1.387475000000093,1200,,,,0,0.115234375,-1.013671875,0.03157541817267204,1.1181344767372512,22.716224780335608,0.3634486116375321,1560,0,8.25618035805908,5.15970754873743,62.49509246368268,0.21670501015330926,0.13542999646874357,0.095703125,,
1.3951099999998695,1200,,,,-0.0625,0.11328125,-0.984375,0.03157541817267204,1.1181344767372512,22.716215060729382,0.3638872001094846,1560,0,8.26613989553372,5.158512047263854,62.40533202264156,0.2167552322244406,0.1352668223461099,0.09765625,,
1.4019399999999442,1200,,,,-0.09375,0.068359375,-0.947265625,0.03157541817267204,1.1181344767372512,22.716299561737756,0.3638300744442046,1560,0,8.2648729606439,5.1579689336220245,62.408326881532325,0.2167780556894661,0.13528755760211217,0.09765625,,
1.4090650000004097,1200,,,,0,0.05859375,-0.90625,0.03157541817267204,1.1181344767372512,22.716199071198105,0.36377978850367926,1560,0,8.263694093727922,5.157757934401706,62.41467648610569,0.2167869238840022,0.13530685720638017,0.09765625,,
1.4156350000002422,1200,,,,-0.125,0.0234375,-0.984375,0.03157541817267204,1.1181344767372512,22.716191697118706,0.3639815691719251,1560,0,8.268275099527523,5.158062680975656,62.38378160966613,0.21677411576661068,0.13523189096612728,0.09765625,,
1.4238300000000745,1200,,,,0,-0.017578125,-0.962890625,0.03157541817267204,1.1181344767372512,22.716084048185234,0.36359773371553084,1560,0,8.259516678811673,5.158235809479603,62.452029701836466,0.21676684006620783,0.13537529134188045,0.09765625,,
1.4320600000000558,1200,,,,-0.03125,0.044921875,-1.00390625,0.03157541817267204,1.1181344767372512,22.716079973203847,0.3638738367661142,1560,0,8.265787176135571,5.158304180619823,62.40548021261102,0.2167639669134238,0.1352725944802274,0.09765625,,
1.4400949999997392,1200,,,,-0.0625,-0.05078125,-1.015625,0.03157541817267204,1.1181344767372512,22.716076113461323,0.364349152634902,1560,0,8.276583083129571,5.158786804007566,62.329910208028835,0.21674368785091808,0.13509614601904754,0.09765625,,
1.4500149999996648,1200,,,,0,0.056640625,-0.96484375,0.03157541817267204,1.1181344767372512,22.716008120212553,0.3641638301863121,1560,0,8.272348523599971,5.159877159439666,62.37499719359242,0.21669788682695584,0.1351653008268878,0.09765625,,
1.4575699999998324,1200,,,,-0.03125,0.052734375,-0.955078125,0.03157541817267204,1.1181344767372512,22.7158431012247,0.36313392889606644,1561,0,8.248893353534331,5.160367912490889,62.55830559719712,0.2166772787712983,0.13554963421343952,0.09765625,,
1.4660750000001863,1200,,,,-0.125,0.109375,-0.9765625,0.03157541817267204,1.1181344767372512,22.71565255447068,0.3623587045155602,1561,0,8.23121443186357,5.160510676815201,62.694402138747904,0.21667128444491576,0.13584076638908585,0.09765625,,
1.474964999999851,1200,,,,-0.0625,0.068359375,-0.962890625,0.03157541817267204,1.1181344767372512,22.715671527835465,0.36296646168242414,1559,0,8.245026919198624,5.155298945859779,62.52616269639601,0.21689032750180762,0.13561319904652638,0.09765625,,
1.4827800000002607,1200,,,,-0.0625,0.07421875,-0.943359375,0.03157541817267204,1.136160265939093,22.715687661874615,0.36358907718953837,1559,0,8.259175914706773,5.153514730592682,62.397444779158064,0.2204631839304801,0.13756339345139498,0.09765625,,
1.4910200000000187,1200,,,,-0.09375,-0.005859375,-0.986328125,0.03157541817267204,1.136160265939093,22.715899983835254,0.36322386133586176,1558,0,8.25095690584788,5.152806033806924,62.45101135063332,0.2204935055744163,0.13770042419368805,0.09765625,,
1.4990049999998882,1200,,,,0,-0.02734375,-1.0390625,0.033067836292951756,1.136160265939093,22.716100140561263,0.3631973047806344,1559,0,8.250426346178841,5.397960702036007,65.42644556224728,0.2104795363757567,0.13770927928655494,0.09765625,,
1.5069799999999813,1200,,,,0,-0.0078125,-0.98046875,0.033067836292951756,1.136160265939093,22.716226151643845,0.3628526301430157,1559,0,8.242642406047525,5.398598759012354,65.49597195981072,0.2104546599323391,0.13783932505739982,0.09765625,,
1.5149300000001675,1200,,,,0,0.05859375,-0.96484375,0.033067836292951756,1.136160265939093,22.71614928379633,0.36337980539663217,1559,0,8.254589906106755,5.398850875001391,65.40422887643776,0.21044483210305384,0.1376398196473165,0.095703125,,
1.5229599999999628,1200,,,,-0.03125,0.05078125,-0.9609375,0.033067836292951756,1.136160265939093,22.7162400513279,0.36334553361968164,1559,0,8.25384436328252,5.398000032280986,65.39982818544719,0.21047800280560497,0.13765225220302638,0.095703125,,
1.5417299999999814,1200,,,,-0.03125,0.0703125,-0.931640625,0.033067836292951756,1.136160265939093,22.716261889805402,0.3635704234632626,1558,0,8.258960954778924,5.394748776307991,65.31994527939257,0.21060485168998877,0.13756697387964653,0.095703125,,
1.5502650000001303,1200,,,,-0.0625,0.0625,-1,0.033067836292951756,1.136160265939093,22.71624915893529,0.3619342865490848,1558,0,8.221789432410493,5.3954290795217785,65.62353759940466,0.21057829677557288,0.138188927760704,0.095703125,,
1.559314999999944,1200,,,,-0.125,0,-0.98046875,0.033067836292951756,1.136160265939093,22.71609060926357,0.36256444421989353,1559,0,8.23604676659639,5.397717053836194,65.53771738800899,0.21048903723688445,0.13794971035705034,0.095703125,,
1.5670800000000744,1200,,,,-0.03125,-0.01171875,-0.982421875,0.033067836292951756,1.136160265939093,22.71608621035366,0.3609620301603591,1559,0,8.199644595786994,5.398504940249096,65.83827966181445,0.21045831735159415,0.1385621355494915,0.095703125,,
1.5749150000000371,1200,,,,0,0.041015625,-1.03125,0.033067836292951756,1.136160265939093,22.716082086787193,0.3607288404200928,1559,0,8.194345950054386,5.398812048751566,65.884599962682,0.210446345544076,0.13865173289779795,0.095703125,,
1.583070000000298,1200,,,,-0.125,0.04296875,-1.01953125,0.033067836292951756,1.136160265939093,22.71594580574517,0.3615792476787354,1558,0,8.213614594752263,5.396065959970565,65.6966052853046,0.210553442891067,0.1383264642907635,0.095703125,,
1.5910299999997952,1200,,,,0,0.03515625,-1.017578125,0.033067836292951756,1.136160265939093,22.716078902781515,0.36195137050339526,1558,0,8.222115891325032,5.395001013199295,65.61572573905748,0.21059500510924603,0.13818344097263696,0.095703125,,
1.6006899999999442,1200,,,,0,0.107421875,-0.95703125,0.033067836292951756,1.136160265939093,22.716173232653368,0.36102866059667155,1558,0,8.201189596066808,5.394579039496728,65.77800666971415,0.21061147823039178,0.13853603219757069,0.095703125,,
1.6170449999999255,1200,,,,-0.0625,0.05859375,-0.98046875,0.033067836292951756,1.136160265939093,22.716264375069,0.36016863352647444,1558,0,8.181685898794733,5.396818343790677,65.96217956235276,0.21052408911378406,0.13886627768324178,0.095703125,,
1.6243750000004658,1200,,,,-0.03125,0.103515625,-0.9375,0.033067836292951756,1.136160265939093,22.716251491289775,0.36039807453311024,1559,0,8.186893298070729,5.397196843810276,65.92484654810568,0.21050932526985516,0.13877794965360465,0.095703125,,
1.6321049999999813,1200,,,,-0.125,0.10546875,-0.99609375,0.033067836292951756,1.1436182397672539,22.716239530252075,0.35926120878649187,1559,0,8.16106367272185,5.397344198458038,66.13530312842093,0.2118853639339831,0.1401310277224976,0.095703125,,
1.6395249999999069,1200,,,,-0.0625,-0.021484375,-0.9609375,0.033067836292951756,1.1436182397672539,22.716228611648752,0.3600153261039834,1558,0,8.178190451475364,5.395110665502616,65.96949163160325,0.21197308279138194,0.13983756511331213,0.095703125,,
1.647410000000149,1200,,,,-0.125,-0.0078125,-0.94140625,0.03372728664519771,1.1436182397672539,22.71621764354028,0.35920072137572606,1558,0,8.159681764487665,5.501728038812585,67.42576729838962,0.2078652800900853,0.14015476004768673,0.095703125,,
1.655475000000093,1200,,,,-0.03125,0.005859375,-0.994140625,0.03372728664519771,1.1436182397672539,22.716140964295096,0.35990947884810387,1558,0,8.175754455899511,5.501333780889758,67.28839290079304,0.20788017693816258,0.13987923022101462,0.095703125,,
1.6625849999999627,1200,,,,0,-0.01953125,-1.005859375,0.03372728664519771,1.1436182397672539,22.716048306498916,0.35974744297685374,1557,0,8.172040292801674,5.50073827304399,67.31168809690409,0.20790268196752434,0.13994280483107846,0.095703125,,
1.6751149999997579,1200,,,,0,0.0859375,-0.98046875,0.03372728664519771,1.1436182397672539,22.71574548033665,0.35980442876834284,1557,0,8.173225826599595,5.500404081574181,67.29783561923898,0.20791531364000398,0.13992250600067502,0.095703125,,
1.6884350000000559,1200,,,,-0.09375,0.017578125,-0.951171875,0.03372728664519771,1.1436182397672539,22.715766313780392,0.3586566258127576,1558,0,8.147160098851577,5.501673720251705,67.52872968615432,0.207867332364256,0.14037016897807839,0.095703125,,
1.7071100000003352,1200,,,,-0.0625,0.103515625,-0.978515625,0.03372728664519771,1.1436182397672539,22.715569920210314,0.3616815324147123,1558,0,8.21580213841521,5.502548210421175,66.97517926694606,0.2078342971355301,0.13919739308471862,0.095703125,,
1.7148150000004099,1200,,,,-0.125,0.0078125,-1.0546875,0.03372728664519771,1.1436182397672539,22.71559072568135,0.36267179831852636,1558,0,8.238304138350493,5.502867114851565,66.79611510377391,0.20782225263640625,0.13881719108226973,0.095703125,,
1.732054999999702,1200,,,,-0.03125,0.025390625,-0.974609375,0.03372728664519771,1.1436182397672539,22.715721837135494,0.36226795236320236,1558,0,8.229178036391156,5.503392779366954,66.87657935008568,0.20780240219357962,0.13897113839437344,0.095703125,,
1.7388549999999814,1200,,,,-0.03125,0.025390625,-1.013671875,0.03372728664519771,1.1436182397672539,22.715734842403382,0.36137886533851915,1558,0,8.2089864826784,5.503443859687937,67.04169718515959,0.2078004734715511,0.13931296417412517,0.095703125,,
1.7479200000003912,1200,,,,-0.0625,0.05859375,-1.03125,0.03372728664519771,1.1436182397672539,22.71567719951229,0.3620359587600339,1558,0,8.223891973808874,5.5029573677816535,66.91427106906627,0.20781884418418964,0.1390604647300091,0.095703125,,
1.7587999999998138,1200,,,,-0.0625,0.072265625,-0.93359375,0.03372728664519771,1.1436182397672539,22.71563046409517,0.36116105148786737,1558,0,8.204000983622445,5.502794257678692,67.07451972109534,0.20782500420971212,0.13939762343401058,0.095703125,,
1.7743500000000931,1200,,,,-0.0625,0.06640625,-0.953125,0.03372728664519771,1.1436182397672539,22.71586843369409,0.3599285866656693,1558,0,8.176090420222804,5.504153188991879,67.32011152149032,0.20777369388164046,0.13987348243344028,0.095703125,,
1.783220000000205,1200,,,,-0.03125,0.087890625,-0.98046875,0.03372728664519771,1.1643570906436667,22.715782196342587,0.360356212400962,1559,0,8.185773233999221,5.504696980247361,67.24712281771822,0.21152065133135536,0.14224155218563406,0.095703125,,
1.7930100000002422,1200,,,,-0.09375,-0.060546875,-0.951171875,0.03372728664519771,1.1643570906436667,22.71552915485843,0.3586242481142095,1559,0,8.14633956367751,5.504965819627925,67.57594348476695,0.2115103215522534,0.14293009535659965,0.095703125,,
1.8009950000001118,1200,,,,-0.0625,0.03515625,-0.96875,0.0342016626180269,1.1643570906436667,22.71548680628174,0.3580764679022134,1558,0,8.133881282272695,5.580495272269429,68.60802461466685,0.20864762603233164,0.1431490146261801,0.095703125,,
1.809105000000447,1200,,,,0,0.044921875,-1.017578125,0.0342016626180269,1.1643570906436667,22.715315163327183,0.3595857873085567,1558,0,8.168104486967001,5.579747837568365,68.31141602646478,0.20867557540935208,0.14254924046350173,0.095703125,,
1.8173900000001304,1200,,,,0,-0.013671875,-0.99609375,0.0342016626180269,1.1643570906436667,22.71528339938686,0.3602705043898884,1558,0,8.183646607656362,5.579454474628017,68.1780964174095,0.208686547392484,0.14227851549141074,0.095703125,,
1.825255000000354,1200,,,,-0.0625,0.08984375,-0.99609375,0.0342016626180269,1.1643570906436667,22.715057350170866,0.36028222164850426,1558,0,8.183831326992745,5.579666189379117,68.17914454047573,0.20867862899397419,0.14227530408688477,0.095703125,,
1.8329400000004097,1200,,,,-0.03125,0.126953125,-0.966796875,0.0342016626180269,1.1643570906436667,22.715297597159637,0.35881776346325717,1558,0,8.150652280215121,5.580401147035013,68.46570010820936,0.20865114531458273,0.14285446742342633,0.09375,,
1.8411500000003724,1200,,,,-0.09375,0.048828125,-0.931640625,0.0342016626180269,1.1643570906436667,22.715134879615633,0.3590084327306228,1558,0,8.154924972395511,5.580695963066234,68.43344337264826,0.20864012272833568,0.14277962023991944,0.09375,,
1.850125,1200,,,,0,0.00390625,-0.9765625,0.0342016626180269,1.1643570906436667,22.715182668464887,0.3610069800107375,1558,0,8.200339495534754,5.5808183143427685,68.05594228606796,0.20863554859889547,0.14198888854268557,0.09375,,
1.857214999999851,1200,,,,-0.0625,0.1171875,-0.978515625,0.0342016626180269,1.1643570906436667,22.71504677615093,0.3594107468964784,1558,0,8.16403192760485,5.581766604580895,68.3702201813714,0.20860010335940804,0.14262034996539558,0.09375,,
1.8652649999996647,1200,,,,0,-0.01953125,-0.98046875,0.0342016626180269,1.1643570906436667,22.715290495888635,0.3616012049487628,1559,0,8.21387641407451,5.58221812453688,67.96082437972558,0.20858323065623052,0.14175488307183878,0.09375,,
1.8738400000003166,1200,,,,-0.0625,-0.033203125,-0.935546875,0.0342016626180269,1.1643570906436667,22.71532957700794,0.36559679958128366,1559,0,8.304651794788176,5.582405631260471,67.22022511243483,0.2085762245802196,0.14020540769384124,0.09375,,
1.882730000000447,1200,,,,-0.0625,0.04296875,-1.052734375,0.0342016626180269,1.1643570906436667,22.71529509485651,0.3689525608876187,1559,0,8.380866296565273,5.584757761321817,66.63699865502706,0.2084883786200394,0.13893039805692337,0.095703125,,
1.891024999999907,1200,,,,-0.03125,0.05859375,-0.978515625,0.0342016626180269,1.1643570906436667,22.715331803171715,0.36919044670502343,1560,0,8.386283495465792,5.58792189852116,66.63168376721798,0.20837032295526767,0.13884065465628478,0.095703125,,
1.8992700000000187,1200,,,,0,0.0625,-0.98828125,0.0342016626180269,1.1643570906436667,22.71549502061152,0.3670670184209413,1561,0,8.33810902917161,5.589075014554414,67.03048610902714,0.2083273328075906,0.13964282387889876,0.095703125,,
1.9092700000000187,1200,,,,-0.0625,0.04296875,-0.974609375,0.0342016626180269,1.1643570906436667,22.71571601760573,0.36685185241821566,1562,0,8.333302500064795,5.593654987254958,67.12410820573794,0.20815675855887308,0.13972336785261463,0.095703125,,
1.9168400000003167,1200,,,,-0.0625,0.001953125,-0.95703125,0.0342016626180269,1.1643570906436667,22.715733280368184,0.36581225305306697,1565,0,8.309693571044022,5.604790059350322,67.44881759395783,0.20774321220135633,0.14012034026152156,0.095703125,,
1.9249700000002048,1200,,,,-0.03125,0.01171875,-1.00390625,0.0342016626180269,1.1643570906436667,22.71594335689567,0.36501715139474517,1566,0,8.291708935378443,5.608109341613659,67.6351447611167,0.207620254834161,0.14042425991048418,0.095703125,,
1.9334200000003912,1200,,,,0,0,-1.0234375,0.0342016626180269,1.1730747657143499,22.716155065758976,0.3631979158466326,1566,0,8.250460175932584,5.609453322077033,67.98958121681949,0.20912461488849526,0.14218294988397448,0.095703125,,
1.9437650000001303,1200,,,,-0.03125,0.08203125,-0.970703125,0.03422040669362771,1.1730747657143499,22.71626174390545,0.36222755897203646,1565,0,8.228456040464726,5.609288346084263,68.16939069127557,0.20913076549777496,0.14256316858783355,0.09375,,
1.9503700000001118,1200,,,,-0.0625,0.0703125,-0.947265625,0.03422040669362771,1.1730747657143499,22.71605575041391,0.3619346066281325,1565,0,8.221726702168786,5.608270684091367,68.21280841908765,0.20916871381439173,0.14267985402688074,0.09375,,
1.9572099999999628,1200,,,,-0.0625,0.09375,-0.9140625,0.03422040669362771,1.1730747657143499,22.716053691453514,0.3609743413071807,1565,0,8.199912518370983,5.607918292927235,68.38997709260097,0.20918185758766208,0.1430594244860793,0.09375,,
1.965160000000149,1200,,,,-0.0625,0.0390625,-0.9921875,0.03422040669362771,1.1730747657143499,22.716149199581505,0.36073883210714863,1564,0,8.194597132228772,5.6057416639951825,68.4077761669112,0.20926307989696152,0.143152219295898,0.09375,,
1.9721499999999068,1200,,,,0,-0.0390625,-0.9921875,0.03422040669362771,1.1730747657143499,22.716084997296335,0.3599762389748335,1564,0,8.177250841559376,5.604938480706192,68.54306648170949,0.2092930671322103,0.1434558861460398,0.09375,,
1.979149999999907,1200,,,,-0.03125,0.03125,-1.041015625,0.03422040669362771,1.1730747657143499,22.715908101910365,0.3586840108884554,1564,0,8.14783302896677,5.604589607096638,68.78625994385844,0.20930609517403032,0.14397383470474823,0.09375,,
1.9871000000000931,1200,,,,0,-0.05859375,-0.984375,0.03422040669362771,1.1730747657143499,22.715912643889205,0.35919518208329904,1564,0,8.159446378310097,5.604428090238304,68.68637687400351,0.20931212727264556,0.14376891658148325,0.09375,,
1.9953900000001303,1200,,,,-0.03125,0.12890625,-0.96484375,0.03422040669362771,1.1730747657143499,22.716047115482812,0.3586238602776107,1562,0,8.146516506802529,5.596480071294162,68.6978301292457,0.2096093885389431,0.14399710167343374,0.09375,,
2.002600000000093,1200,,,,-0.09375,0.076171875,-0.978515625,0.03422040669362771,1.1730747657143499,22.71565271106398,0.3572280244961328,1561,0,8.114667743113609,5.593321112903498,68.92852905345615,0.2097277703238114,0.1445622671008141,0.09375,,
2.010095000000205,1200,,,,0,0.0625,-0.97265625,0.03422040669362771,1.1730747657143499,22.71566816761702,0.35746960831840263,1561,0,8.120161002568864,5.592143334454709,68.86739478054191,0.2097719417323799,0.1444644712516464,0.09375,,
2.0171049999999813,1200,,,,-0.0625,0.064453125,-0.927734375,0.03422040669362771,1.1730747657143499,22.715766202146128,0.35714155682014326,1561,0,8.11274410579686,5.592559288075318,68.93548243533559,0.20975633968076612,0.14459654469763739,0.09375,,
2.025470000000205,1200,,,,-0.0625,-0.00390625,-0.98046875,0.03422040669362771,1.1730747657143499,22.715777953011074,0.35644235057896273,1561,0,8.096865288801046,5.593759316568361,69.08549317604695,0.20971134067920597,0.1448801139543294,0.09375,,
2.033174999999814,1200,,,,-0.03125,-0.029296875,-0.962890625,0.03422040669362771,1.1730747657143499,22.71591908436355,0.35664096996715383,1561,0,8.101427415942798,5.594220280699579,69.05227922786439,0.20969406045048558,0.14479852814651606,0.09375,,
2.0413849999997766,1200,,,,0,-0.0546875,-1.01171875,0.03422040669362771,1.1730747657143499,22.71585833869468,0.35598610737835623,1561,0,8.086529985750094,5.594402222900829,69.18174090443196,0.2096872407408138,0.14506528359896229,0.09375,,
2.0490800000000746,1200,,,,-0.03125,0.037109375,-1.046875,0.03422040669362771,1.1730747657143499,22.71586535170764,0.3559950865636271,1560,0,8.086736452248859,5.589056148504055,69.11386542033011,0.2098878119212187,0.14506157986490667,0.09375,,
2.056445000000298,1200,,,,-0.0625,0.10546875,-0.9453125,0.03422040669362771,1.1730747657143499,22.715871205488078,0.3558159777580316,1559,0,8.082669923606256,5.587094307765072,69.12436559418809,0.2099615114933685,0.14513456281175932,0.09375,,
2.0680550000001676,1200,,,,-0.03125,0.06640625,-0.927734375,0.03422040669362771,1.1730747657143499,22.71587766992158,0.35583350495178534,1559,0,8.08307036934419,5.586165904950683,69.10945531461344,0.2099964064215716,0.14512737265821007,0.09375,,
2.082685000000056,1200,,,,-0.03125,0.08203125,-0.953125,0.03422040669362771,1.171419843443606,22.715825864152226,0.35586936613200665,1560,0,8.083866551440895,5.590853416304608,69.16063471270533,0.20952433487656713,0.14490835987820808,0.09375,,
2.090985000000335,1200,,,,0,0.04296875,-0.96875,0.03422040669362771,1.171419843443606,22.71568981185681,0.3577798196616226,1561,0,8.127215404375487,5.592157007184471,68.80778629509186,0.2094754925404697,0.14413544924783747,0.09375,,
2.098510000000242,1200,,,,-0.09375,-0.041015625,-1,0.03320524961575398,1.171419843443606,22.715616584197853,0.35714506981165384,1560,0,8.112770470778104,5.4255507510819045,66.87667019083722,0.21590800587571948,0.14439208500511835,0.09375,,
2.1064950000001117,1200,,,,0.0625,-0.0546875,-1.0390625,0.03320524961575398,1.171419843443606,22.7156354735874,0.35731007449586294,1560,0,8.116525403288382,5.424023365722359,66.826912948795,0.21596880478917313,0.14432528517301374,0.09375,,
2.1159950000001118,1200,,,,-0.0625,0.01953125,-0.97265625,0.03320524961575398,1.171419843443606,22.715437261072914,0.35701124619518654,1560,0,8.109666564444217,5.423387450600486,66.87559109247015,0.21599412804517673,0.14444734985523877,0.09375,,
2.124160000000149,1200,,,,0,0.078125,-0.986328125,0.03320524961575398,1.171419843443606,22.71554284463302,0.3572058147766774,1560,0,8.114123989911663,5.423155696346335,66.83599736815675,0.2160033583827973,0.1443679989238566,0.09375,,
2.1312450000001117,1200,,,,-0.0625,0.08203125,-0.9765625,0.03320524961575398,1.171419843443606,22.715390819945753,0.35716134514319314,1560,0,8.113059540705166,5.4230840789869,66.84388363943327,0.21600621092757277,0.14438694028637553,0.09375,,
2.138470000000205,1200,,,,-0.0625,-0.00390625,-0.94921875,0.03320524961575398,1.171419843443606,22.715243794637246,0.3574009134567801,1560,0,8.118448881596807,5.423052497480583,66.79912107069805,0.2160074688540852,0.14429109064159076,0.09375,,
2.146029999999795,1200,,,,-0.0625,0.06640625,-0.95703125,0.03320524961575398,1.171419843443606,22.715087126641617,0.3575510495755285,1560,0,8.121803243330287,5.423037948891878,66.7713534349079,0.21600804834547938,0.14423149740860672,0.09375,,
2.153070000000298,1200,,,,-0.03125,0.083984375,-0.984375,0.03320524961575398,1.171419843443606,22.715126905080194,0.35777400778803653,1560,0,8.1268819902444,5.423032468726735,66.72955846087841,0.2160082666292134,0.14414136256067106,0.09375,,
2.1603950000000185,1200,,,,-0.0625,0,-0.96875,0.03320524961575398,1.171419843443606,22.715078385526642,0.35658293464982116,1560,0,8.099809311511812,5.424364828454146,66.9690435890237,0.21595520959408646,0.14462313844583125,0.091796875,,
2.168350000000093,1200,,,,-0.03125,-0.025390625,-1.01953125,0.03320524961575398,1.171419843443606,22.715123437715132,0.35751652039697407,1560,0,8.121031891839666,5.424988559280599,66.80171475169112,0.215930380431797,0.1442451967982905,0.09375,,
2.176475000000093,1200,,,,0,-0.001953125,-1.005859375,0.03320524961575398,1.171419843443606,22.715166658213143,0.35680972493931495,1560,0,8.10499236726773,5.425236155778275,66.93696810484688,0.2159205258182094,0.1445306534987525,0.09375,,
2.1842350000003354,1200,,,,-0.0625,0.11328125,-0.99609375,0.03320524961575398,1.171419843443606,22.71501163461893,0.3563531529489736,1560,0,8.094566015269073,5.423422377746326,67.0007801223182,0.21599273703081615,0.14471681881819412,0.09375,,
2.191479999999981,1200,,,,0,0.048828125,-0.998046875,0.03320524961575398,1.171419843443606,22.715054429574884,0.3560639438475953,1559,0,8.088011864907223,5.422754431695441,67.0468159823557,0.21601934186744245,0.14483409062816,0.09375,,
2.1994600000004283,1200,,,,-0.0625,0.140625,-0.96875,0.03320524961575398,1.171419843443606,22.714904717536584,0.35649456807180574,1559,0,8.097740146070427,5.4224422892786395,66.96241409907401,0.21603177700199053,0.144660093101661,0.091796875,,
2.2084750000000932,1200,,,,0,0.03125,-0.98046875,0.03320524961575398,1.171419843443606,22.714891868696927,0.3548249626843471,1559,0,8.059810659689367,5.42248045011525,67.27801283515807,0.216030256673163,0.14534086381239553,0.091796875,,
2.217959999999963,1200,,,,-0.0625,0.08984375,-0.955078125,0.03320524961575398,1.171419843443606,22.71474840627382,0.35424569195843325,1560,0,8.046601766842189,5.422814183471255,67.39260051140056,0.21601696163849674,0.1455794479938975,0.091796875,,
2.2379650000003166,1200,,,,-0.0625,0.0390625,-0.9609375,0.03320524961575398,1.1600744573916868,22.71476256254683,0.35496971195153637,1559,0,8.06305272387479,5.42185558456501,67.24321135233103,0.213962625764913,0.14387534065809754,0.091796875,,
2.24631500000041,1200,,,,-0.03125,0.005859375,-0.96875,0.0315738842148974,1.1600744573916868,22.71482402672176,0.3556747616738313,1559,0,8.07908962216728,5.153876164982196,63.79278366761859,0.22508776312356238,0.14358974979169592,0.091796875,,
2.2543650000002233,1200,,,,0,0.005859375,-1.01171875,0.0315738842148974,1.1600744573916868,22.71468679656791,0.35664910847957715,1559,0,8.101172795388768,5.153254840414201,63.6112198884026,0.2251149018080472,0.14319833519067848,0.091796875,,
2.262575000000186,1200,,,,0,0,-0.953125,0.0315738842148974,1.1600744573916868,22.71475241171269,0.3568417774865315,1558,0,8.105572625762035,5.1530048831517,63.57360696237359,0.22512582147645038,0.1431206049162534,0.091796875,,
2.270504999999888,1200,,,,0,0.080078125,-0.9609375,0.0315738842148974,1.1600744573916868,22.71471585998157,0.3568090988568779,1558,0,8.104817296790056,5.151554291631269,63.56163381587345,0.22518921314218404,0.1431339430502818,0.091796875,,
2.2786150000002237,1200,,,,-0.0625,0.044921875,-0.96875,0.0315738842148974,1.1600744573916868,22.714845642913637,0.35720752088948743,1558,0,8.113913699492556,5.15097244662279,63.483204744276875,0.2252146501292749,0.1429734774556744,0.08984375,,
2.2864550000000743,1200,,,,-0.0625,0.12109375,-0.98046875,0.0315738842148974,1.1600744573916868,22.714997626624285,0.3571575653116219,1558,0,8.1128332483844,5.150748109974606,63.48889410490883,0.225224459170341,0.14299251838101143,0.08984375,,
2.294595000000205,1200,,,,-0.0625,0.0703125,-0.919921875,0.0315738842148974,1.1600744573916868,22.714981464388956,0.3573220572574882,1558,0,8.116563907421174,5.149750546009989,63.44742189858748,0.225268087653393,0.1429267939763281,0.08984375,,
2.302364999999758,1200,,,,-0.125,0.05859375,-0.98828125,0.0315738842148974,1.1600744573916868,22.714900379284614,0.35726534955711675,1557,0,8.115246824160202,5.149356704951682,63.452866148461936,0.22528531695544524,0.1429499906198769,0.08984375,,
2.3104550000000743,1200,,,,-0.0625,-0.013671875,-1.009765625,0.0315738842148974,1.1600744573916868,22.715151300597686,0.35657048832736565,1557,0,8.099552591684112,5.149201673235687,63.573902569907645,0.2252920998261682,0.14322698004118725,0.091796875,,
2.318310000000056,1200,,,,0,0.005859375,-0.94921875,0.0315738842148974,1.1600744573916868,22.71519254029212,0.35655104090982365,1558,0,8.099125544708215,5.150042626529914,63.58763792586022,0.22525531175522367,0.14323453204767927,0.08984375,,
2.3264699999997394,1200,,,,0,-0.0390625,-0.9453125,0.0315738842148974,1.1600744573916868,22.715364023505845,0.3563179087347163,1558,0,8.093891005003414,5.152201572673351,63.65543555613,0.22516092218607678,0.1433271657197461,0.08984375,,
2.3359650000003165,1200,,,,-0.0625,0.041015625,-0.998046875,0.0315738842148974,1.1600744573916868,22.715512479424444,0.35704184196817396,1559,0,8.110388416904746,5.153106084188844,63.53710598432076,0.2251214002659709,0.14303562268037692,0.08984375,,
2.343064999999944,1200,,,,0,0.111328125,-0.978515625,0.0315738842148974,1.1600744573916868,22.715535381182,0.3563907885721006,1559,0,8.095607567336906,5.153395527218798,63.65668647293431,0.22510875621024953,0.1432967751638806,0.08984375,,
2.3503549999999813,1200,,,,0,0.16796875,-0.9921875,0.0315738842148974,1.1600744573916868,22.71555591113262,0.35580754954783567,1558,0,8.082366285356951,5.150945037295133,63.73065579355448,0.2252158485466709,0.1435315372298118,0.08984375,,
2.358355000000447,1200,,,,-0.09375,0.056640625,-0.98828125,0.0315738842148974,1.1600744573916868,22.715577551693087,0.3564574747651853,1558,0,8.097137411909248,5.149834361351593,63.60067884950589,0.2252644213370818,0.1432697011767952,0.08984375,,
2.369369999999646,1200,,,,-0.0625,0.0546875,-0.96875,0.0315738842148974,1.1600744573916868,22.715730314614554,0.35665765257198406,1557,0,8.101739050468684,5.1493886900241534,63.55905390122708,0.22528391761124666,0.14318832662532827,0.08984375,,
2.3865300000002607,1200,,,,-0.125,0.0078125,-1.02734375,0.0315738842148974,1.152090158763783,22.715675152635598,0.3630362367803045,1557,0,8.246613223336697,5.149701175154628,62.446255640821555,0.22371980811666994,0.13970464329569116,0.08984375,,
2.3946400000001304,1200,,,,0.03125,-0.052734375,-0.994140625,0.030821504770463658,1.152090158763783,22.715789839347583,0.3697604681950067,1558,0,8.399401086416537,5.027076103151355,59.85041137374799,0.22917698780043633,0.13716336997252537,0.091796875,,
2.4032350000003353,1200,,,,0,0.03515625,-0.9921875,0.030821504770463658,1.152090158763783,22.715728158926048,0.3721147651848776,1559,0,8.452857849862278,5.031580462927257,59.52519907819385,0.22897182450969364,0.1362959343723678,0.091796875,,
2.411779999999795,1200,,,,0,0.0625,-0.921875,0.030821504770463658,1.152090158763783,22.71574157303933,0.3700530879587331,1561,0,8.406030314375773,5.037322001765666,59.92509916542854,0.22871084245953627,0.13705519914596412,0.091796875,,
2.419595000000205,1200,,,,-0.0625,0.0546875,-0.970703125,0.030821504770463658,1.152090158763783,22.71585217652295,0.3687368212350184,1561,0,8.376171123215647,5.039579617719351,60.16567168442275,0.2286083852536015,0.13754377051474218,0.08984375,,
2.427480000000447,1200,,,,-0.03125,0.0859375,-0.982421875,0.030821504770463658,1.152090158763783,22.71598976734249,0.36727529145021187,1562,0,8.343021762380744,5.040472147392245,60.415426100409796,0.22856790496498072,0.13809027371337285,0.08984375,,
2.4356299999998883,1200,,,,-0.125,0.05078125,-1.04296875,0.030821504770463658,1.152090158763783,22.715891683462765,0.366084840324147,1564,0,8.315943579761084,5.0479859325983005,60.70250338017959,0.2282276880614798,0.13853992006002552,0.08984375,,
2.443635000000242,1200,,,,-0.03125,-0.048828125,-0.955078125,0.030821504770463658,1.152090158763783,22.716026597563324,0.3656032905448612,1565,0,8.30505407217374,5.050910650577581,60.8173120449723,0.2280955333533844,0.13872157228017162,0.091796875,,
2.4527400000002233,1200,,,,0,0.029296875,-0.974609375,0.030821504770463658,1.152090158763783,22.716104149860964,0.365558666960765,1565,0,8.304068751565076,5.052193439228551,60.839976045193026,0.2280376182388817,0.13873803231056434,0.091796875,,
2.460475000000093,1200,,,,0,0.115234375,-0.98046875,0.030821504770463658,1.152090158763783,22.71609950303944,0.36454475398221886,1564,0,8.281034904771117,5.048724176490785,60.96730945527066,0.22819431572999221,0.13912393463044173,0.08984375,,
2.4683800000003537,1200,,,,-0.0625,0.015625,-0.9609375,0.030821504770463658,1.152090158763783,22.716160250379346,0.36413349646031096,1564,0,8.271714858123364,5.047198263144495,61.017556210703006,0.2282633054414649,0.1392806907061545,0.08984375,,
2.4766850000000558,1200,,,,-0.0625,0.048828125,-0.974609375,0.030821504770463658,1.152090158763783,22.716152489024484,0.3643807329219156,1564,0,8.277328293116739,5.046598262620007,60.96892721793646,0.22829044413883273,0.13918623473250885,0.08984375,,
2.4853900000001303,1200,,,,-0.0625,0.0390625,-0.94140625,0.030821504770463658,1.152090158763783,22.716071833676036,0.36322629518778665,1563,0,8.251074613365779,5.045408600838807,61.1485029194359,0.22834427296378854,0.13962910441962692,0.08984375,,
2.493790000000037,1200,,,,-0.0625,-0.03125,-0.947265625,0.030821504770463658,1.152090158763783,22.716067951662872,0.36379511051929725,1562,0,8.26399445103906,5.043083072068146,61.0247635322899,0.22844956989600332,0.13941080981956935,0.08984375,,
2.5008250000001864,1200,,,,-0.03125,-0.021484375,-0.9765625,0.030821504770463658,1.152090158763783,22.716235869651715,0.36458076123962185,1562,0,8.281902565856425,5.042359500076524,60.884071745356216,0.22848235211041554,0.1391093591843828,0.08984375,,
2.508464999999851,1200,,,,0,0.015625,-1.04296875,0.030821504770463658,1.152090158763783,22.716138834573197,0.3642155957682339,1562,0,8.273572039187991,5.042038029254981,60.941489424075066,0.22849691971363761,0.13924942616162375,0.08984375,,
2.5184750000000933,1200,,,,-0.03125,0.068359375,-0.98046875,0.030821504770463658,1.152090158763783,22.716065441389617,0.3642472697193644,1561,0,8.274264815792575,5.037849729705353,60.88576860738034,0.22868688440041365,0.13923776727146323,0.08984375,,
2.5263050000001677,1200,,,,-0.03125,0.072265625,-0.9375,0.030821504770463658,1.1484631385188564,22.71598009467972,0.36613997469096876,1560,0,8.317228376946582,5.036054012846661,60.54966612201521,0.22804821703444766,0.1380824340115667,0.08984375,,
2.5339899999997577,1200,,,,-0.0625,0.03515625,-0.8828125,0.030821504770463658,1.1484631385188564,22.715980999303973,0.3684688517228107,1560,0,8.370131434570721,5.035569758447179,60.16117904253002,0.228070147691293,0.13720968989512142,0.08984375,,
2.5415900000003164,1200,,,,-0.09375,0.095703125,-0.966796875,0.030821504770463658,1.1484631385188564,22.715786917361026,0.370726809700456,1562,0,8.42135121370861,5.042880386641392,59.88208137468951,0.22773951600381784,0.13637516229573024,0.08984375,,
2.549780000000261,1200,,,,-0.0625,-0.015625,-1.015625,0.030045713095830758,1.1484631385188564,22.715864308342457,0.3682658716291369,1563,0,8.365477569320936,4.918807206345768,58.79888106310529,0.2334840725282383,0.1372860221071733,0.08984375,,
2.5568300000000743,1200,,,,-0.03125,-0.03515625,-0.96875,0.030045713095830758,1.1484631385188564,22.71606175598647,0.3664455991398176,1564,0,8.32420086026956,4.919893293459311,59.103490846086956,0.23343252993833544,0.1379667739638933,0.08984375,,
2.5645699999998324,1200,,,,-0.03125,0.060546875,-0.990234375,0.030045713095830758,1.1484631385188564,22.716059126086368,0.36713333357146616,1565,0,8.339822512566615,4.922554608361074,59.02469268313166,0.23330632768769388,0.13770834292796144,0.08984375,,
2.5728549999999815,1200,,,,-0.0625,0.1796875,-1,0.030045713095830758,1.1484631385188564,22.715858232179762,0.370244242055217,1566,0,8.410415713807158,4.926196028806414,58.57256283680732,0.23313386877077275,0.13655248177964077,0.08984375,,
2.581410000000149,1200,,,,-0.0625,0.078125,-0.95703125,0.030045713095830758,1.1484631385188564,22.715645241965323,0.3737799683962878,1566,0,8.490653160643083,4.9277031273367715,58.03679686479558,0.23306256664442268,0.1352620483713024,0.08984375,,
2.5886749999998138,1200,,,,-0.03125,-0.015625,-0.9921875,0.030045713095830758,1.1484631385188564,22.715660451684105,0.3730281378575259,1566,0,8.473580518495568,4.928171710496956,58.159259828121904,0.2330404064599944,0.1355345754975795,0.08984375,,
2.5967050000000746,1200,,,,0,0,-1,0.030045713095830758,1.1484631385188564,22.7153513825901,0.3717801872376499,1568,0,8.445117590188357,4.934504943593687,58.43026921646013,0.23274130873247378,0.13599137327029706,0.08984375,,
2.6047800000002606,1200,,,,-0.03125,0.0390625,-0.986328125,0.030045713095830758,1.1484631385188564,22.715383208501756,0.36974115671366153,1569,0,8.398812062705524,4.93701117457603,58.78225560610606,0.23262315962197141,0.13674114028798734,0.08984375,,
2.612575000000186,1200,,,,-0.0625,0.09765625,-0.98046875,0.030045713095830758,1.1484631385188564,22.71534776195254,0.3684226860808134,1569,0,8.368849437718348,4.938008016035931,59.00462247271844,0.23257619971236998,0.13723070860167955,0.08984375,,
2.6205300000002607,1200,,,,-0.0625,0.087890625,-0.98828125,0.030045713095830758,1.1484631385188564,22.715379374572464,0.3675153459267235,1569,0,8.34825050870276,4.936438407554571,59.13141205344169,0.23265015051363433,0.13756931914316942,0.08984375,,
2.6285099999997765,1200,,,,-0.09375,0.02734375,-0.9921875,0.030045713095830758,1.1484631385188564,22.715607698756337,0.3669548379134787,1568,0,8.335602141203301,4.9338285860041005,59.18982819028679,0.23277321424921954,0.13777806558712122,0.08984375,,
2.6370649999999443,1200,,,,-0.0625,0.03125,-0.984375,0.030045713095830758,1.1484631385188564,22.715561346232132,0.36706506462737315,1568,0,8.338088993601756,4.932806115392148,59.15991205151856,0.23282146341313398,0.1377369729922685,0.08984375,,
2.6455,1200,,,,0,-0.015625,-1.01171875,0.030045713095830758,1.1484631385188564,22.71565918985102,0.3664642371736107,1568,0,8.324476716904474,4.93238131018484,59.25154791013683,0.23284151534420156,0.1379622020188582,0.08984375,,
2.652785000000149,1200,,,,0,0.1015625,-1.009765625,0.030045713095830758,1.1484631385188564,22.715502170211717,0.3651837334404822,1566,0,8.29533188949329,4.925771961884365,59.38004684445784,0.23315393960696248,0.13844691855831326,0.08984375,,
2.661310000000056,1200,,,,-0.0625,0.1484375,-0.99609375,0.030045713095830758,1.1484631385188564,22.71552648036332,0.3634770431806152,1565,0,8.256572399373425,4.922667255310173,59.62119651108182,0.23330098886533268,0.1390968410336971,0.091796875,,
2.6725200000000187,1200,,,,-0.0625,0,-0.962890625,0.030045713095830758,1.1484631385188564,22.715315018702686,0.3671380107560834,1564,0,8.33965556966429,4.921303536129343,59.01087275151639,0.23336563780053585,0.13771109956823882,0.08984375,,
2.6913549999999815,1200,,,,-0.0625,-0.025390625,-0.974609375,0.030045713095830758,1.147436363110682,22.71513126905623,0.3751522882980989,1565,0,8.521633474578143,4.924113711430648,57.78368344661071,0.23302393696698503,0.13464981409183233,0.091796875,,
2.698625,1200,,,,0,0.111328125,-0.9765625,0.03040491242021214,1.147436363110682,22.715343711548396,0.3729041674984794,1565,0,8.470646336196774,4.983456278149699,58.83206641333128,0.2302491080621484,0.13546030817122606,0.091796875,,
2.7057549999998884,1200,,,,-0.125,0.09765625,-0.98046875,0.03040491242021214,1.147436363110682,22.71537175456818,0.37071046959891135,1568,0,8.420826130249818,4.993888784980857,59.30402442393981,0.2297681050810747,0.13626173315570422,0.091796875,,
2.712745000000112,1200,,,,-0.0625,0.1171875,-0.98046875,0.03040491242021214,1.147436363110682,22.715569116066554,0.37009055547518777,1570,0,8.40681759210009,4.998479388331348,59.457450260707844,0.22955708605887298,0.1364887902633847,0.091796875,,
2.7206699999999255,1200,,,,-0.0625,-0.08203125,-0.95703125,0.03040491242021214,1.147436363110682,22.71568873791023,0.36940615504621443,1571,0,8.391315235898015,5.00066672942796,59.59336038330591,0.2294566755185344,0.13674094356531305,0.091796875,,
2.728665000000037,1200,,,,-0.03125,-0.00390625,-0.984375,0.03040491242021214,1.147436363110682,22.715769704075623,0.36790188966332593,1571,0,8.35717459928635,5.0015276525262085,59.847112120324816,0.22941717867562453,0.1372995561452869,0.091796875,,
2.736754999999888,1200,,,,0.0625,-0.04296875,-0.96875,0.03040491242021214,1.147436363110682,22.71578115556894,0.3673226376068617,1569,0,8.344020649363827,4.9943096153219875,59.85495272836805,0.2297487443690865,0.13751600233613587,0.091796875,,
2.7447799999997953,1200,,,,-0.03125,0.078125,-0.970703125,0.03040491242021214,1.147436363110682,22.71605433437853,0.36634696498772895,1568,0,8.32195756189592,4.991483073524363,59.97967469071299,0.22987884486614227,0.13788058333348094,0.091796875,,
2.752290000000037,1200,,,,-0.09375,0.03515625,-0.95703125,0.03040491242021214,1.147436363110682,22.715954660965444,0.3658526865589708,1567,0,8.310693040465983,4.99037835662244,60.04767992661449,0.2299297330007025,0.13806747012838114,0.091796875,,
2.760279999999795,1200,,,,0,0.0625,-0.90234375,0.03040491242021214,1.147436363110682,22.716021653702168,0.3647520882024438,1566,0,8.285716333839797,4.984678764924435,60.15990125761904,0.23019263973133414,0.13848366476467736,0.091796875,,
2.766860000000335,1200,,,,-0.0625,0.03125,-0.919921875,0.03040491242021214,1.147436363110682,22.716106033081353,0.3652185097012765,1565,0,8.296342391618147,4.982567503182953,60.057399610422,0.2302901791852653,0.13830629317685167,0.091796875,,
2.777170000000391,1200,,,,-0.03125,-0.005859375,-0.953125,0.03040491242021214,1.147436363110682,22.71593264817875,0.364924069518746,1565,0,8.289590584887135,4.981437206842431,60.092680764284744,0.2303424324077758,0.1384189425714931,0.091796875,,
2.784629999999888,1200,,,,0,-0.01953125,-1.013671875,0.03040491242021214,1.147436363110682,22.71593558182386,0.3651058098174279,1564,0,8.293720056362325,4.978430651108699,60.02650942250718,0.2304815399718679,0.13835002330835294,0.091796875,,
2.791610000000335,1200,,,,-0.0625,0.0390625,-0.98046875,0.03040491242021214,1.147436363110682,22.71593840436392,0.36305087912322526,1563,0,8.247041407813356,4.975745386656837,60.333701998182654,0.23060592412700506,0.13913309105294241,0.091796875,,
2.798870000000112,1200,,,,0,0.08984375,-0.98828125,0.03040491242021214,1.147436363110682,22.715882806611454,0.36180056764649304,1562,0,8.218619294023236,4.974551146403243,60.52782065256201,0.23066128568007882,0.13961424931133182,0.091796875,,
2.806790000000037,1200,,,,0,0.10546875,-0.982421875,0.03040491242021214,1.147436363110682,22.715888617564246,0.36056877976577434,1562,0,8.190640240130383,4.974003081455727,60.72789105161025,0.23068670129871835,0.14009116863523924,0.08984375,,0.29302000000001865,2790,
2.81575,1200,,,,-0.0625,0.0859375,-1,0.03040491242021214,1.147436363110682,22.715894446316284,0.3614472489681966,1561,0,8.210597555472956,4.96931782874192,60.523217648507334,0.230904201070427,0.13975065217340155,0.08984375,,
2.827354999999981,1500,,,,-0.09375,0.078125,-0.96484375,0.03040491242021214,1.147436363110682,22.71581392250753,0.36509105988609053,1560,0,8.293340581143486,4.967294342859758,59.894975905775084,0.23099826261756876,0.13835635373755187,0.08984375,,
2.835970000000205,1500,,,,-0.041015625,0.017578125,-1.00390625,0.03040491242021214,1.1528737397347741,22.715496584121997,0.37123294747937874,1560,0,8.432740750381368,4.966692475747747,58.8977252208676,0.2321210232693552,0.13671400246505094,0.08984375,,
2.843415000000037,1500,,,,0,-0.03125,-0.97265625,0.032072860623815716,1.1528737397347741,22.715208600281667,0.3729643952004197,1562,0,8.471964037455423,5.245739703040363,61.91881457296571,0.2197733408439201,0.13608104739795882,0.08984375,,
2.8522099999999626,1500,,,,-0.03125,0.095703125,-1.013671875,0.032072860623815716,1.1528737397347741,22.715148027924936,0.37081754129297656,1563,0,8.42317534182113,5.2485433854118515,62.310745917312126,0.2196559416731026,0.13686925570820627,0.091796875,,
2.8597950000003913,1500,,,,0,0.05078125,-0.95703125,0.032072860623815716,1.1528737397347741,22.715253599402274,0.3701105240525943,1563,0,8.407154413662354,5.24960764920198,62.44214618766741,0.21961141037083567,0.13713007790855541,0.08984375,,
2.867040000000037,1500,,,,-0.125,0.185546875,-0.9375,0.032072860623815716,1.1528737397347741,22.695160052338828,0.862423759057684,1578,0,19.572845244753836,5.298341118970177,27.069856491050047,0.21759145246557,0.05890169391922117,0.091796875,,
2.8746500000003725,1500,,,,0.125,0.279296875,-0.95703125,0.032072860623815716,1.1528737397347741,22.674198219731664,1.4736203313971363,1592,0,33.413159494725335,5.346723799533934,16.0018504098003,0.21562246021297535,0.034503583533211486,0.09765625,,
2.8819799999999813,1500,,,,0.125,-0.6015625,-0.75,0.032072860623815716,1.1528737397347741,22.65712049145295,1.9215503225896218,1597,0,43.53679718930335,5.3645333450546175,12.321837368350655,0.21490662198932353,0.026480444455340552,0.103515625,,
2.8896400000001305,1500,,,,0.25,0.22265625,-0.818359375,0.032072860623815716,1.1528737397347741,22.642595566055483,2.405816647569375,1709,0,54.4739333569968,5.740687586561207,10.538412104261708,0.20082502702875174,0.02116376895678482,0.109375,,
2.8977650000001303,1500,,,,0.6875,-0.3203125,-1.02734375,0.032072860623815716,1.1528737397347741,22.629141160149377,2.833550471785657,1811,0,64.1208136104455,6.081260365454774,9.484066129292092,0.18957809244343363,0.017979711653985736,0.115234375,,
2.906310000000056,1500,,,,-0.875,0.443359375,-0.83203125,0.032072860623815716,1.1528737397347741,22.616922614509903,3.1395812808119277,1850,0,71.00766687008725,6.212381132125907,8.748887839804437,0.18557678854778425,0.01623590508675669,0.126953125,,
2.913975000000093,1500,,,,-0.15625,0.203125,-0.875,0.032072860623815716,1.1528737397347741,22.607217640854913,3.432269068660025,2067,0,77.59405383717157,6.942883015891448,8.947699820479604,0.1660511544117884,0.0148577588452079,0.1328125,,
2.9221949999998325,1500,,,,0.1875,0.04296875,-1.25390625,0.032072860623815716,1.1528737397347741,22.59939052276392,3.6585803073478256,2155,0,82.68168512464716,7.23746467080269,8.753407311294897,0.15929248599798854,0.013943520115691327,0.13671875,,
2.9297350000003353,1500,,,,-0.03125,-0.16796875,-0.876953125,0.032072860623815716,1.1528737397347741,22.591936573875902,3.8390392087238894,2351,0,86.73133030811285,7.896735571515237,9.104824684992266,0.14599371212243326,0.013292471539859851,0.138671875,,
2.9382599999997763,1500,,,,-0.125,0.28125,-1.19921875,0.032072860623815716,1.1528737397347741,22.586131577510525,3.9901761274746304,2431,0,90.12264303258341,8.164842621661926,9.059701698617479,0.1411997503388633,0.012792276179893638,0.140625,,
2.9461100000003353,1500,,,,-0.09375,-0.013671875,-0.8671875,0.032072860623815716,1.1528737397347741,22.581712238383542,4.112535725860957,2580,0,92.86809833146393,8.663775993570216,9.329119632284867,0.13306827653327769,0.012414098710409126,0.14453125,,
2.95401500000013,1500,,,,-0.375,-0.3828125,-0.953125,0.032072860623815716,1.1528737397347741,22.577926519631596,4.222949281493836,2668,0,95.34543857369887,8.960509461517445,9.397942466425667,0.1286616285252532,0.01209154582516961,0.1484375,,
2.9620300000002606,1500,,,,0.125,0.103515625,-1.0078125,0.032072860623815716,1.1528737397347741,22.575014470888522,4.302853317263093,2759,0,97.13697590332501,9.267453961264716,9.540603745465674,0.12440026619538158,0.011868536456005845,0.150390625,,
2.970160000000149,1500,,,,-0.03125,0.150390625,-1.044921875,0.032072860623815716,1.1528737397347741,22.57276024109009,4.365368052865994,2796,0,98.53840642145839,9.392403731404436,9.53171872014269,0.12274533470915716,0.011699740046574536,0.150390625,,
2.9830150000001305,1500,,,,0.03125,0.125,-0.892578125,0.032072860623815716,1.1631078500541152,22.57107982887404,4.419428793219733,2910,0,99.75128008978707,9.772612004977447,9.79697904245542,0.11901709076976698,0.011660079439654216,0.150390625,,
2.9985800000000746,1500,,,,0.125,-0.109375,-1.009765625,0.03568315835382095,1.1631078500541152,22.568481240090428,4.473056326031398,5087,0,100.95008777990742,19.00888174390162,18.82998040115132,0.06118759986642877,0.01152161306278343,0.15234375,,
3.006410000000149,1500,,,,-0.5625,0.49609375,-1.1015625,0.03568315835382095,1.1631078500541152,22.56834142085314,4.47825747848376,5835,0,101.06684374491039,21.802876606058064,21.572729292989358,0.05334653179346704,0.011508302891003144,0.158203125,,
3.0142450000001118,1500,,,,0.1875,-0.083984375,-0.955078125,0.03568315835382095,1.1631078500541152,22.568324024712076,4.484188098253687,6165,0,101.20060998914663,23.036297111587228,22.763002232948775,0.05049022611663893,0.011493091298351403,0.16015625,,
3.0232250000000933,1500,,,,-0.0625,0.1484375,-1.03125,0.03568315835382095,1.1631078500541152,22.568588672353737,4.470630869778854,5931,0,100.89582920596598,22.163901623918015,21.967113802765063,0.05247757681792612,0.011527809020527288,0.16015625,,
3.031785000000149,1500,,,,0.03125,-0.134765625,-0.939453125,0.03568315835382095,1.1631078500541152,22.568774686019854,4.4504164265820165,5082,0,100.44044559049115,18.990510403253186,18.90723432339198,0.06124679249562813,0.011580074572710064,0.16015625,,
3.0392649999996646,1500,,,,0.125,0.13671875,-0.921875,0.03568315835382095,1.1631078500541152,22.56950908270813,4.428249456247563,4504,0,99.94341632327672,16.830485528440246,16.840014227650972,0.0691072071621873,0.011637663518444571,0.16015625,,
3.046095000000205,1500,,,,-0.09375,-0.046875,-1.0234375,0.03568315835382095,1.1631078500541152,22.570309103583426,4.40248576205418,3840,0,99.36546447368788,14.347245057844658,14.43886478449847,0.08106837552190284,0.011705353124597006,0.162109375,,
3.0527949999999255,1500,,,,-0.125,0.0234375,-0.8125,0.03568315835382095,1.1631078500541152,22.570900082357714,4.379087309318678,3574,0,98.83994211055257,13.353953452696521,13.510685222538992,0.08709839031371287,0.011767589349184137,0.162109375,,
3.060879999999888,1500,,,,-0.3125,0.5,-1.00390625,0.03568315835382095,1.1631078500541152,22.572040641169195,4.347613084610487,3449,0,98.13449923790687,12.889775218976482,13.134805108372621,0.09023492111342438,0.011852181027942069,0.166015625,,
3.069010000000242,1500,,,,0.28125,-0.076171875,-0.921875,0.03568315835382095,1.1631078500541152,22.572823395324768,4.313421727505332,3407,0,97.36610688453455,12.73087168961514,13.075260064277344,0.09136121063908675,0.011945715888932817,0.166015625,,
3.077035000000149,1500,,,,-0.1875,-0.052734375,-0.9296875,0.03568315835382095,1.1631078500541152,22.574060362266167,4.279387739665737,3402,0,96.60315714875613,12.71331623374332,13.16035273481434,0.09148736872972825,0.01204006043263247,0.169921875,,
3.084850000000093,1500,,,,-0.125,0.21875,-1.0234375,0.03568315835382095,1.1631078500541152,22.57512196168576,4.248430594624783,3415,0,95.90883881941163,12.760128143634223,13.304433982002934,0.09115173742470345,0.012127222729118332,0.171875,,
3.0920200000000184,1500,,,,-0.09375,0.001953125,-1.021484375,0.03568315835382095,1.1631078500541152,22.576110333957587,4.216711326583158,3426,0,95.19694015539004,12.80203313685743,13.447946032677796,0.0908533697437084,0.012217912132003123,0.171875,,
3.1000200000004843,1500,,,,0.25,-0.01953125,-0.94921875,0.03568315835382095,1.1631078500541152,22.577023751432154,4.181232713919734,3438,0,94.39979029243095,12.847882648836448,13.610075413341887,0.09052914646285709,0.012321085104649583,0.171875,,
3.107130000000354,1500,,,,0.28125,-0.0859375,-0.845703125,0.03568315835382095,1.1631078500541152,22.57801433055007,4.146841053265664,3453,0,93.62743672714551,12.902170975886314,13.780331307677008,0.09014822793992741,0.012422724478121849,0.173828125,,
3.1143599999998695,1500,,,,0.125,0.25,-0.796875,0.03568315835382095,1.1631078500541152,22.579134987659625,4.114766488899834,3460,0,92.90786799556759,12.927336389125552,13.914145990027759,0.08997273800599163,0.012518938117378867,0.17578125,,
3.1229550000000743,1500,,,,0.4375,0.064453125,-0.7421875,0.03568315835382095,1.1631078500541152,22.580284384160976,4.0753911497384285,3469,0,92.02349113778648,12.963434939503095,14.087093175038301,0.08972219596750632,0.012639249344633074,0.1796875,,
3.133630000000354,1500,,,,0.125,0.0390625,-0.91796875,0.03568315835382095,2.7903575673404055,22.58144685597248,4.036670128291881,3477,0,91.15385197711473,12.994325002429568,14.255376729106247,0.21473663055362155,0.03061151566080782,0.181640625,,
3.149029999999795,1500,,,,-0.625,0.58984375,-1.09765625,0.12005244875569472,2.7903575673404055,22.584371459295348,3.9582187043698274,3491,0,89.39388153661893,43.885203994831,49.09195488603328,0.06358310576997811,0.031214189599736476,0.189453125,,
3.1671949999998326,1500,,,,0.15625,-0.24609375,-0.7265625,0.12005244875569472,2.7903575673404055,22.586815605845786,3.8829008355737544,3517,0,87.70236518888892,44.21170607120028,50.41107611633887,0.06311354650839991,0.031816217970070414,0.193359375,,
3.174939999999944,1500,,,,0,0.013671875,-1.197265625,0.12005244875569472,2.7903575673404055,22.587875495892483,3.8497949008373165,3522,0,86.95868790483505,44.27999174142192,50.9207220213357,0.0630162169775238,0.03208831267548665,0.197265625,,
3.182630000000354,1500,,,,-0.5,0.7421875,-1.078125,0.12005244875569472,2.7903575673404055,22.58894007950639,3.82232004450456,3522,0,86.3421584500097,44.27975898906623,51.28405379708371,0.06301654821629481,0.03231744048830982,0.205078125,,
3.1908300000000747,1500,,,,0,-0.09375,-0.767578125,0.12005244875569472,2.7903575673404055,22.58979470471243,3.793493550864526,3526,0,85.69424052768022,44.324441220885,51.72394427904137,0.06295302299322911,0.03256178653498992,0.205078125,,
3.1982050000000743,1500,,,,-0.0625,0.04296875,-0.73828125,0.12005244875569472,2.7903575673404055,22.590746511710037,3.76618724899793,3534,0,85.0809814577468,44.426041348513685,52.21618343763076,0.06280905258811136,0.0327964901148462,0.20703125,,
3.205969999999739,1500,,,,-0.0625,0.140625,-1.361328125,0.12005244875569472,2.7903575673404055,22.59175461558854,3.7421704162008225,3539,0,84.54219577252381,44.48694057895331,52.62099023149758,0.06272307178301487,0.03300550147583547,0.2109375,,
3.2140849999999626,1500,,,,0.0625,-0.16015625,-0.625,0.12005244875569472,2.7903575673404055,22.592639668334265,3.7184289427882784,3541,0,84.0091252367207,44.518890464633884,52.992922303605305,0.06267805729698239,0.033214934204799096,0.212890625,,
3.2241000000000932,1500,,,,0.0625,-0.115234375,-0.951171875,0.12005244875569472,2.7903575673404055,22.593881627801338,3.683180755875598,3544,0,83.21735001204911,44.555860408926584,53.54155161450743,0.06262605057406476,0.0335309591922404,0.212890625,,
3.2314650000003167,1500,,,,-0.28125,0.142578125,-1.0234375,0.12005244875569472,2.7903575673404055,22.594656259200583,3.6578290917814504,3535,0,82.64739098370573,44.44276372020323,53.77394638986887,0.06278541957713438,0.03376219786406247,0.216796875,,
3.2510500000002795,1500,,,,-0.14453125,0.181640625,-1.150390625,0.12005244875569472,2.7903575673404055,22.596267991467347,3.6015435087287595,3559,0,81.38144230616467,44.746134195801034,54.983215986098955,0.062359746098518874,0.03428739388573155,0.2265625,,
3.268149999999907,1500,,,,-0.625,0.41015625,-1.17578125,0.12005244875569472,2.7903575673404055,22.597460036173437,3.553882101000631,3552,0,80.30870875063385,44.65405821054603,55.603008571836355,0.062488330941473116,0.03474539200978477,0.236328125,,
3.276189999999944,1500,,,,0.28125,-0.05859375,-0.9140625,0.12005244875569472,4.610307550649901,22.598163198158254,3.5355696121272255,3555,0,79.89737909330012,44.689931230802365,55.93416422160197,0.10316210886161006,0.05770286338512077,0.240234375,,
3.2858300000000744,1500,,,,-0.4375,0.51953125,-1.11328125,0.12005244875569472,4.610307550649901,22.59841474779991,3.5252248968762294,3563,0,79.6644942988792,44.79119871841336,56.22479513943708,0.10292887179986622,0.0578715473088086,0.244140625,,
3.294345000000205,1500,,,,0.125,-0.0703125,-1.02734375,0.12005244875569472,4.610307550649901,22.59861719339418,3.5166038885438957,3568,0,79.47038509800491,44.85743411021014,56.445472177957626,0.1027768895412708,0.05801290059138825,0.248046875,,
3.3027949999999255,1500,,,,-0.5625,0.16015625,-0.9609375,0.1554746144094276,4.610307550649901,22.59889396444717,3.5019552861491716,3562,0,79.14031617992038,57.994878578777694,73.28108021066039,0.07949508066281166,0.058254853824044196,0.251953125,,
3.3185449999999257,1500,,,,0,0.0859375,-0.765625,0.1554746144094276,4.610307550649901,22.600248802040436,3.4647720426527986,3573,0,78.3047102063071,58.17857227446544,74.29766628493238,0.07924408197746997,0.05887650357817888,0.2578125,,
3.326339999999851,1500,,,,0.125,0.09375,-1.453125,0.1554746144094276,4.610307550649901,22.600933602276132,3.44906931622975,3576,0,77.95218660575652,58.22689843153562,74.69565764205997,0.07917831234082981,0.05914276111286716,0.259765625,,
3.334314999999944,1500,,,,-0.0625,-0.12890625,-0.7890625,0.1554746144094276,4.610307550649901,22.601584275804917,3.4334970895979957,3578,0,77.60247383128001,58.24947462368682,75.06136305696948,0.07914762459977873,0.059409285851807186,0.26171875,,
3.341885000000242,1500,,,,-0.125,0.23046875,-1.138671875,0.1554746144094276,4.610307550649901,22.60222446464061,3.419479109961639,3572,0,77.28783439550246,58.15259942740305,75.24159511291349,0.0792794749683606,0.059651141563337486,0.265625,,
3.3502450000001116,1500,,,,-0.4375,-0.1796875,-0.61328125,0.1554746144094276,4.610307550649901,22.602639987368633,3.39987011293148,3577,0,76.84604016640458,58.24375108175781,75.7927811968387,0.07915540233970042,0.05999408090080648,0.267578125,,
3.3583300000000746,1500,,,,0.0625,0.18359375,-1.244140625,0.1554746144094276,4.610307550649901,22.603201294300174,3.37910898497715,3580,0,76.37868058281687,58.27967165112001,76.3035852497187,0.07910661505179054,0.0603611834542098,0.26953125,,
3.3662750000003725,1500,,,,0.0625,-0.23828125,-0.33203125,0.1554746144094276,4.610307550649901,22.603432992473603,3.36874877656254,3576,0,76.1452872395088,58.223533750758044,76.46373907241384,0.07918288797766207,0.06054619685324127,0.2734375,,
3.3744099999996835,1500,,,,0,0.056640625,-1.076171875,0.1554746144094276,4.610307550649901,22.60376116291534,3.362651334011952,3576,0,76.00856762816483,58.22444770315976,76.60247985200132,0.07918164503945489,0.06065510368783164,0.2734375,,
3.3827349999998697,1500,,,,-0.25,0.064453125,-0.9296875,0.1554746144094276,4.610307550649901,22.603773319080037,3.356146255533298,3574,0,75.86156918575394,58.185238436721676,76.69922868883695,0.0792350031471257,0.06077263626542109,0.279296875,,
3.3914250000002792,1500,,,,0.125,-0.154296875,-0.9453125,0.1554746144094276,4.610307550649901,22.604494141613255,3.3413446523904224,3565,0,75.52940562007008,58.03941983891622,76.84347488561947,0.07943407365968581,0.06103990244330514,0.28125,,
3.399220000000205,1500,,,,-0.625,0.41796875,-1.3515625,0.1554746144094276,4.610307550649901,22.604858957154146,3.3306268629405493,3581,0,75.28835047567989,58.30422804602308,77.44123450394477,0.07907329717170263,0.06123533749273934,0.28515625,,
3.408304999999702,1500,,,,0.34375,-0.1015625,-0.82421875,0.1554746144094276,4.610307550649901,22.60547436409039,3.3152090723092544,3586,0,74.94187369568674,58.3787351654771,77.89868639064609,0.0789723781712944,0.061518445206891675,0.287109375,,
3.416244999999646,1500,,,,-0.1875,0.025390625,-0.98828125,0.1554746144094276,4.610307550649901,22.605988205320866,3.3031854335936073,3583,0,74.67177095180477,58.33288766644416,78.11906283044206,0.07903444754890762,0.06174096973842392,0.291015625,,
3.4241949999998322,1500,,,,0.1875,0.015625,-1.18359375,0.1554746144094276,5.568602015766543,22.60661193202353,3.2917713065438248,3571,0,74.41579649600631,58.13834217916669,78.12634536846866,0.09578191959112996,0.07483091330031515,0.291015625,,
3.4323800000003537,1500,,,,-0.25,0.52734375,-1.20703125,0.1554746144094276,5.568602015766543,22.60697260794915,3.2832215772638933,3574,0,74.22370026303244,58.18524517710186,78.39173332898545,0.09570470999678804,0.07502458104396095,0.29296875,,
3.4433549999999813,1500,,,,-0.15625,-0.029296875,-0.87109375,0.1554746144094276,5.568602015766543,22.607325695852595,3.2710763833854877,3580,0,73.9502891752073,58.28950663902739,78.82255402805055,0.09553352458876568,0.07530196403388077,0.294921875,,
3.450595000000205,1500,,,,0,0.03125,-1.029296875,0.15132903479836898,5.568602015766543,22.607610350281256,3.25783976056268,3573,0,73.65197189045466,56.62957876179581,76.88806872139568,0.09833380606961721,0.07560696438717125,0.296875,,
3.4584199999999257,1500,,,,-0.0625,0.099609375,-1.0625,0.15132903479836898,5.568602015766543,22.607974114103964,3.249599188497009,3566,0,73.46685433475363,56.504690635340154,76.9118143780528,0.09855114598722767,0.07579747446914037,0.298828125,,
3.466299999999814,1500,,,,-0.0625,-0.205078125,-0.74609375,0.15132903479836898,5.568602015766543,22.608170662658004,3.242154412295241,3566,0,73.29918026786046,56.503710217023254,77.08641489650938,0.09855285598730211,0.0759708634587311,0.30078125,,
3.4743650000002235,1500,,,,-0.25,0.6640625,-1.24609375,0.15132903479836898,5.568602015766543,22.60822772767938,3.2325962466475846,3573,0,73.08327209585022,56.617329279713694,77.46961466840031,0.09835508114936473,0.07619530237320528,0.3046875,,
3.4823249999997206,1500,,,,-0.0625,-0.1640625,-0.794921875,0.15132903479836898,5.568602015766543,22.60841257499874,3.2247876997283087,3586,0,72.90733078223876,56.82326975489653,77.9390345870946,0.0979986199278279,0.07637917828042516,0.306640625,,
3.4902150000003167,1500,,,,0.21875,0.16796875,-1.02734375,0.15132903479836898,5.568602015766543,22.6087874577587,3.2178343161292915,3584,0,72.75133212764948,56.793769404862175,78.06560752071431,0.09804952328608443,0.07654295602444605,0.30859375,,
3.4971250000004654,1500,,,,-0.0625,-0.1171875,-0.91015625,0.15132903479836898,5.568602015766543,22.609091300410473,3.213021259345225,3570,0,72.64349100269604,56.57977179293009,77.88691183746968,0.09842036896413157,0.07665658600520553,0.30859375,,
3.505274999999907,1500,,,,-0.5625,0.171875,-1.21484375,0.15132903479836898,5.568602015766543,22.60933493136291,3.2095311409864467,3577,0,72.56536453920192,56.68238047655716,78.11216940271234,0.09824220452543662,0.07673911722386817,0.310546875,,
3.5123699999996463,1500,,,,0.1875,-0.123046875,-0.96875,0.15132903479836898,5.568602015766543,22.6096230108395,3.205328163591767,3579,0,72.47126140483633,56.71955641693644,78.2648946871391,0.09817781321900043,0.07683876212198683,0.3125,,
3.519475000000093,1500,,,,-0.5625,0.62109375,-0.96484375,0.15132903479836898,5.568602015766543,22.60963916525985,3.200971496093022,3579,0,72.3728105049452,56.71438964358324,78.36422165712077,0.09818675737783567,0.0769432881895065,0.31640625,,
3.5274199999999256,1500,,,,0.21875,-0.134765625,-1.044921875,0.15132903479836898,5.568602015766543,22.609949464489713,3.1968581886218166,3579,0,72.2808020898794,56.71194983761295,78.46059838557551,0.09819098147236142,0.07704123162388435,0.31640625,,
3.5350100000002422,1500,,,,-0.125,0.111328125,-0.947265625,0.15132903479836898,5.568602015766543,22.610049730617078,3.1919814344713022,3575,0,72.17085897260259,56.65384002902061,78.49960612291932,0.09829169590117913,0.07715859413396325,0.3203125,,
3.542345000000205,1500,,,,-0.0625,-0.09765625,-1.1796875,0.15132903479836898,5.568602015766543,22.610250218342067,3.1892716971827677,3564,0,72.11023108757885,56.483437782626595,78.3292979799589,0.09858822752958137,0.07722346651480566,0.3203125,,
3.549700000000186,1500,,,,-0.09375,-0.076171875,-0.943359375,0.15132903479836898,5.568602015766543,22.61014202712219,3.184521243321407,3566,0,72.00247759988476,56.51832482642469,78.49497227094744,0.09852737201374001,0.07733903334147847,0.3203125,,
3.5576500000003723,1500,,,,0,0.296875,-1.03515625,0.15132903479836898,5.568602015766543,22.61004692509446,3.1803455195499564,3581,0,71.90776143503842,56.7483852987155,78.91830334613054,0.09812793767530491,0.07744090352189904,0.3203125,,
3.565195000000298,1500,,,,-0.125,0.138671875,-0.8671875,0.15132903479836898,5.568602015766543,22.610333158477797,3.176241074943921,3578,0,71.8158688961237,56.697950284683245,78.94905562821025,0.09821522626137831,0.07753999361646813,0.32421875,,
3.5718500000000932,1500,,,,-0.1875,-0.078125,-1.30078125,0.15132903479836898,6.005739520542928,22.61040498104576,3.1708661532864397,3573,0,71.69456786649712,56.62024287583689,78.97424388033104,0.10607053618107883,0.08376840392881997,0.326171875,,
3.5799249999998137,1500,,,,0.125,0.009765625,-0.9921875,0.15132903479836898,6.005739520542928,22.610579574048415,3.1672837050067377,3582,0,71.61412024564173,56.76599181297632,79.266479317577,0.10579819586927497,0.08386250504708845,0.326171875,,
3.5878499999996274,1500,,,,-0.3125,-0.046875,-0.7578125,0.15132903479836898,6.005739520542928,22.61064947520494,3.165432557473289,3581,0,71.57248599443005,56.74965773344874,79.28976749230863,0.10582864743875085,0.08391128849444059,0.328125,,
3.5972099999999627,1500,,,,0.125,0.099609375,-0.970703125,0.1467679686703686,6.005739520542928,22.61053269948331,3.1638514509009443,3576,0,71.53636668690352,54.96508023902319,76.83515781503324,0.10926463664614235,0.08395365600308612,0.330078125,,
3.6053500000000933,1500,,,,-0.28125,0.279296875,-0.880859375,0.1467679686703686,6.005739520542928,22.6107040235857,3.160961446478311,3572,0,71.47156369628642,54.902879853126045,76.81779579698595,0.10938842437062023,0.08402977645856345,0.33203125,,
3.6133600000003354,1500,,,,0.03125,-0.212890625,-1.005859375,0.1467679686703686,6.005739520542928,22.61096096129416,3.156285570794219,3575,0,71.36664982392415,54.95099882532935,76.99814823997554,0.10929263614721806,0.08415330599601203,0.333984375,,
3.6199449999998325,1500,,,,-0.375,0.21875,-1.2109375,0.1467679686703686,6.005739520542928,22.610948362916606,3.154124456553177,3578,0,71.31774521733628,54.99971940127427,77.1192628618111,0.109195821104567,0.08421101231174401,0.3359375,,
3.6272450000001117,1500,,,,0.5625,-0.125,-0.703125,0.1467679686703686,6.005739520542928,22.61099360454307,3.153070396181878,3565,0,71.29405456274252,54.795116071880756,76.8579040818308,0.10960355504429521,0.08423899520622104,0.337890625,,
3.6353950000000186,1500,,,,-0.25,0.125,-1.0859375,0.1467679686703686,6.005739520542928,22.611238440340017,3.1501742069757124,3567,0,71.22934012253685,54.8259850163604,76.97106967724602,0.10954184441466541,0.08431552939015255,0.337890625,,
3.642375,1500,,,,0.25,-0.16015625,-0.859375,0.1467679686703686,6.005739520542928,22.61127165511245,3.148521931826347,3576,0,71.19208471260497,54.956510599242655,77.19469210811337,0.10928167481990189,0.08435965240781294,0.33984375,,
3.650399999999907,1500,,,,-0.21875,0.3046875,-1.06640625,0.1467679686703686,6.005739520542928,22.611307553764217,3.149833288158739,3580,0,71.22184922164168,55.01700866700809,77.2473746024141,0.10916150597886602,0.08432439744513129,0.33984375,,
3.6582600000002423,1500,,,,0.25,-0.12109375,-0.64453125,0.1467679686703686,6.005739520542928,22.61114286050655,3.1491499845004043,3579,0,71.20588018870063,55.00736152178075,77.25115029265469,0.10918065063282287,0.08434330851086022,0.34375,,
3.666230000000447,1500,,,,0.0625,-0.07421875,-1.318359375,0.1467679686703686,6.005739520542928,22.611248060787823,3.148836947171767,3574,0,71.19913331547467,54.937741977608574,77.16068920977752,0.10931900919755194,0.08435130093413115,0.345703125,,
3.67389000000013,1500,,,,-0.09375,-0.015625,-0.916015625,0.1467679686703686,6.005739520542928,22.611280969873583,3.1450133875129516,3577,0,71.11278135906926,54.9841418753549,77.31963343934456,0.10922675731045339,0.08445372837012506,0.345703125,,
3.6823700000001116,1500,,,,-0.09375,-0.017578125,-0.89453125,0.1467679686703686,6.005739520542928,22.611102962687198,3.1388726848926973,3577,0,70.9733734648752,54.97160414722179,77.45384143875773,0.10925166936112508,0.0846196147561617,0.345703125,,
3.689475000000093,1500,,,,-0.25,0.2265625,-1.05859375,0.1467679686703686,6.005739520542928,22.61114194028235,3.1379058364377865,3572,0,70.9516342629352,54.90539836742286,77.3842617408253,0.10938340671627521,0.08464554175435389,0.345703125,,
3.6972949999999254,1500,,,,0.03125,0.017578125,-0.87109375,0.1467679686703686,6.005739520542928,22.61118383494039,3.134962545240496,3570,0,70.8852144260855,54.86734210899097,77.40308406092652,0.10945927558533554,0.08472485509379848,0.34765625,,
3.705410000000149,1500,,,,-0.25,-0.0078125,-0.9453125,0.1467679686703686,6.005739520542928,22.611224078060218,3.132348925790504,3569,0,70.8262434517203,54.84847738810208,77.44089579661289,0.10949692327914491,0.08479539825709978,0.34765625,,
3.7124300000001678,1500,,,,0.09375,0.11328125,-0.951171875,0.1467679686703686,6.005739520542928,22.6111717725757,3.130562967332882,3570,0,70.7856969992281,54.8621153244426,77.50452089924447,0.10946970391182136,0.08484396954667861,0.349609375,,
3.720380000000354,1500,,,,-0.625,-0.04296875,-0.98828125,0.1467679686703686,6.005739520542928,22.611212584663356,3.127473463236749,3576,0,70.71596733013948,54.96870279367364,77.73167060990725,0.10925743587374832,0.08492763017021268,0.3515625,,
3.7271200000001117,1500,,,,0.28125,-0.005859375,-0.962890625,0.1467679686703686,6.2050149024435335,22.611334026268555,3.1281331760546225,3579,0,70.73126412242341,55.007903130566554,77.77028137848282,0.1128022438469493,0.08772662244101478,0.353515625,,
3.7344849999998697,1500,,,,-0.25,0.046875,-0.79296875,0.1467679686703686,6.2050149024435335,22.611362779162643,3.128758073697833,3579,0,70.74548385261579,55.01442132703652,77.76386326178527,0.11278887885700825,0.08770898952886454,0.353515625,,
3.742575000000186,1500,,,,-0.03125,0.13671875,-0.970703125,0.1467679686703686,6.2050149024435335,22.611393985482085,3.1291176715642424,3577,0,70.75371249867342,54.98420232442424,77.71210920622032,0.11285086697870013,0.08769878898665386,0.35546875,,
3.752670000000391,1500,,,,-0.25,-0.26171875,-1.27734375,0.14453780304822353,6.2050149024435335,22.611304782178347,3.128762804478013,3575,0,70.74540936319544,54.10708310163848,76.48140506737548,0.11468027006348884,0.08770908187961703,0.357421875,,
3.7623699999996463,1500,,,,0,0.11328125,-0.99609375,0.14453780304822353,6.2050149024435335,22.611358244568798,3.12707888458315,3569,0,70.70750091833621,54.02389232500535,76.40475426701951,0.11485686490552066,0.08775610538986563,0.357421875,,
3.7757150000003166,1500,,,,0.01953125,0.052734375,-0.8984375,0.14453780304822353,6.2050149024435335,22.61107481225187,3.126192867375402,3575,0,70.68658080175341,54.10392951566597,76.54059497856473,0.11468695449647241,0.08778207733439577,0.359375,,
3.7835200000000184,1500,,,,-0.09375,0.08203125,-1.251953125,0.14453780304822353,6.2050149024435335,22.611115984723156,3.1238856764318905,3566,0,70.63454135281683,53.97111701185981,76.40895796615447,0.11496917695959528,0.08784675009709092,0.36328125,,
3.791540000000037,1500,,,,-0.0625,-0.146484375,-0.935546875,0.14453780304822353,6.2050149024435335,22.61122426472392,3.120248407114958,3561,0,70.55263649492389,53.90420665667882,76.40282395478886,0.11511188620145886,0.08794873176553751,0.36328125,,
3.800500000000466,1500,,,,-0.125,0.33984375,-1.484375,0.14453780304822353,6.2050149024435335,22.61104732726888,3.119331908830983,3572,0,70.53136142003734,54.060061849922384,76.64684299509976,0.11478001855916194,0.0879752606147872,0.365234375,,
3.8086550000002606,1500,,,,-0.09375,0.017578125,-0.787109375,0.14453780304822353,6.2050149024435335,22.61102869626109,3.116016510883562,3572,0,70.45633874561157,54.05821728545451,76.72583936079359,0.11478393506167511,0.08806893762741848,0.365234375,,
3.8175,1500,,,,-0.03125,0.0625,-1.001953125,0.14453780304822353,6.2050149024435335,22.610860880698272,3.116409235070595,3577,0,70.46469566150454,54.13509172346955,76.82583627909432,0.11462093634457503,0.08805849289764812,0.365234375,,
3.8245500000002792,1500,,,,0,-0.2109375,-0.8203125,0.14453780304822353,6.2050149024435335,22.610909880754747,3.115670976696953,3580,0,70.44815567217792,54.1928920540248,76.925920255748,0.11449868547812073,0.08807916748477887,0.365234375,,
3.831485000000335,1500,,,,-0.09375,0.201171875,-1.01953125,0.14453780304822353,6.2050149024435335,22.610956513205526,3.1136254955529563,3577,0,70.4020506783559,54.14706529342184,76.91120467612824,0.11459559015467755,0.0881368488936811,0.3671875,,
3.83956500000041,1500,,,,-0.21875,0.14453125,-1.140625,0.14453780304822353,6.2050149024435335,22.61100785197654,3.1128108409287427,3575,0,70.38379036595751,54.110687833655874,76.87947402705888,0.11467263032247256,0.08815971504491053,0.3671875,,
3.8484550000000746,1500,,,,0.25,0.015625,-0.9375,0.14453780304822353,6.2050149024435335,22.611186022798243,3.1123612885763774,3574,0,70.37418006615651,54.08919913234654,76.85943776751505,0.1147181877709259,0.08817175413781586,0.3671875,,
3.855625,1500,,,,-0.15625,0.109375,-0.701171875,0.14453780304822353,6.2050149024435335,22.6111578403386,3.1118840649949466,3561,0,70.36330177443524,53.89722112214062,76.59848211063176,0.1151268056730026,0.08818538564797668,0.369140625,,
3.8616299999998884,1500,,,,0.1875,-0.1484375,-1.2265625,0.14453780304822353,6.2050149024435335,22.61118930196949,3.112787861811515,3563,0,70.38383560029301,53.933581133089724,76.62779482405077,0.11504919146999841,0.0881596583863597,0.369140625,,
3.869785000000149,1500,,,,0.1875,-0.23046875,-0.53125,0.14453780304822353,6.2050149024435335,22.61113555719692,3.115901107271188,3571,0,70.45406231932881,54.05729304425497,76.72700659792126,0.11478589757285271,0.08807178320420582,0.37109375,,
3.877725000000093,1500,,,,-0.15625,0.22265625,-0.994140625,0.14453780304822353,6.284241997462192,22.611075567749467,3.1159373300009547,3575,0,70.45469443302309,54.10634093733706,76.7959344267295,0.11614612795088565,0.0891955042603475,0.37109375,,
3.8865200000000186,1500,,,,-0.1875,-0.046875,-0.97265625,0.14453780304822353,6.284241997462192,22.61112199632107,3.116404897980061,3571,0,70.46541133815968,54.04871767022176,76.70247947726423,0.11626995548359709,0.08918193874303033,0.373046875,,
3.8944449999998323,1500,,,,0.21875,0.150390625,-0.962890625,0.14453780304822353,6.284241997462192,22.611262649124463,3.114506170617581,3565,0,70.42291704615297,53.95604847042884,76.61717340545229,0.11646964845667553,0.08923575252277177,0.373046875,,
3.9052900000000372,1500,,,,-0.5,-0.0703125,-1.01171875,0.14382906916826266,6.284241997462192,22.611298814350157,3.1123757391457385,3578,0,70.37485786035823,53.893872727442016,76.58114611667321,0.11660401599349794,0.08929669186588966,0.375,,
3.912610000000335,1500,,,,0.125,-0.01953125,-0.931640625,0.14382906916826266,6.284241997462192,22.61108867747232,3.118035603129344,3563,0,70.50217952187349,53.671750195793486,76.12778861558695,0.11708658604456537,0.08913542872121406,0.375,,
3.92,1500,,,,-0.40625,0.197265625,-1.078125,0.14382906916826266,6.284241997462192,22.61112558369209,3.1221920121098954,3554,0,70.59627568221714,53.53394391368543,75.83111629664958,0.11738798859270459,0.08901662214803155,0.375,,
3.927709999999963,1500,,,,0.3125,0.0546875,-0.69140625,0.14382906916826266,6.284241997462192,22.6112339229308,3.1189370453140386,3577,0,70.52301512249035,53.87579042073486,76.39462142558541,0.11664315174564219,0.08910909419495448,0.376953125,,
3.9356450000000187,1500,,,,-0.15625,0.01171875,-1.220703125,0.14382906916826266,6.284241997462192,22.61127149439844,3.1181850051953437,3579,0,70.50612772223413,53.90153004723637,76.44942615425823,0.11658745107894013,0.08913043731772628,0.37890625,,
3.9436300000003537,1500,,,,0.3125,-0.0625,-0.69140625,0.14382906916826266,6.284241997462192,22.611307089770364,3.116832725743717,3572,0,70.4756619092372,53.80276333893233,76.34233135436565,0.11680147277704672,0.0891689673742322,0.380859375,,
3.950439999999944,1500,,,,-0.03125,-0.00390625,-1.244140625,0.14382906916826266,6.284241997462192,22.61116508328502,3.116262726430597,3563,0,70.46233095021009,53.66612600102098,76.16285932825923,0.1170988566855494,0.08918583749241488,0.380859375,,
3.9586099999998696,1500,,,,0.125,-0.17578125,-0.6171875,0.14382906916826266,6.284241997462192,22.61120642413458,3.11402600384226,3568,0,70.41188478300023,53.74262886918561,76.32607625092413,0.11693216594890812,0.08924973414402076,0.380859375,,
3.965700000000186,1500,,,,-0.0625,0.328125,-1.205078125,0.14382906916826266,6.284241997462192,22.61132779803453,3.111876057422407,3570,0,70.36364960123336,53.77052631504896,76.4180462778418,0.11687149872110138,0.08931091597829853,0.380859375,,
3.9736800000001677,1500,,,,-0.15625,-0.0234375,-0.87109375,0.14382906916826266,6.284241997462192,22.61136021056643,3.1095966033688707,3585,0,70.3122089083274,53.9889355360184,76.78458175934824,0.11639870160562245,0.08937625620118898,0.3828125,,
3.9822299999999813,1500,,,,0.0625,0.15625,-1.51171875,0.14382906916826266,6.284241997462192,22.61145804489942,3.109512817629985,3590,0,70.31061861591738,54.07771252144534,76.9125824604861,0.11620761501274818,0.08937827772204417,0.384765625,,
3.990625,1500,,,,-0.09375,-0.15234375,-0.69921875,0.14382906916826266,6.284241997462192,22.61134216711578,3.109898869981446,3576,0,70.31898745427718,53.860577598998404,76.59464328040792,0.11667609739073899,0.08936764058993785,0.384765625,,
3.9985750000001863,1500,,,,0.0625,-0.00390625,-0.9921875,0.14382906916826266,6.284241997462192,22.61147333880353,3.110870709010925,3577,0,70.34137009726537,53.8734345246799,76.58854874476538,0.11664825257397177,0.0893392037825334,0.384765625,,
4.005560000000056,1500,,,,-0.25,-0.04296875,-0.75,0.14382906916826266,6.284241997462192,22.611496105644495,3.1101815122602807,3575,0,70.32585715232084,53.85282063418112,76.57613119103507,0.11669290342562852,0.08935891081783714,0.3828125,,
4.01364000000013,1500,,,,0,0.302734375,-0.962890625,0.14382906916826266,6.284241997462192,22.611520902752556,3.111773738628792,3573,0,70.3619369356414,53.81594779311825,76.48446040128569,0.11677285739945276,0.08931308987713424,0.38671875,,
4.0218900000001305,1500,,,,-0.375,-0.296875,-0.76171875,0.14382906916826266,6.318450183520348,22.611477943886975,3.1100531446175808,3574,0,70.32289808383675,53.8305876228702,76.54773777766533,0.11737657830872206,0.08984911537615656,0.388671875,,
4.030465000000317,1500,,,,0.15625,0.21875,-1.109375,0.14382906916826266,6.318450183520348,22.611405667649816,3.106232107659133,3575,0,70.23627428415955,53.850656816838224,76.67071946181406,0.117332834119577,0.08995992808441654,0.388671875,,
4.039465000000317,1500,,,,-0.25,-0.0390625,-0.95703125,0.14382906916826266,6.318450183520348,22.611203156325523,3.1083984791780015,3557,0,70.28462950350708,53.57434320694986,76.22483548024765,0.11793798682912635,0.08989803642921768,0.388671875,,
4.046655000000261,1500,,,,0.21875,-0.22265625,-0.9140625,0.14367442125508867,6.318450183520348,22.61115073363011,3.1087553995483743,3577,0,70.2925369331748,53.82404063766963,76.57148679786403,0.11739085562257616,0.0898879235149405,0.388671875,,
4.056614999999758,1500,,,,-0.6875,0.54296875,-1.12109375,0.14367442125508867,6.318450183520348,22.611187076419295,3.1063103007568893,3576,0,70.23736332782231,53.79956155180789,76.59678410863253,0.11744426908453162,0.08995853323864016,0.392578125,,
4.064395000000019,1500,,,,0.25,-0.146484375,-0.953125,0.14367442125508867,6.318450183520348,22.611038532757778,3.1066769329324,3562,0,70.24519183936425,53.59018351525788,76.29018031270692,0.11790312645078732,0.08994850776362448,0.392578125,,
4.072955000000075,1500,,,,-0.25,0.068359375,-1.10546875,0.14367442125508867,6.318450183520348,22.611085956682786,3.1062030356041643,3576,0,70.23462383695475,53.797537915973486,76.59689050355146,0.11744868684119245,0.08996204205760724,0.39453125,,
4.080400000000372,1500,,,,0.375,-0.19921875,-0.84375,0.14367442125508867,6.318450183520348,22.61119301423615,3.107523897557167,3576,0,70.2648226440165,53.80249301281635,76.57102229574613,0.11743787006329284,0.08992337766981333,0.39453125,,
4.087849999999627,1500,,,,-0.21875,0.041015625,-1.05859375,0.14367442125508867,6.318450183520348,22.611228036571116,3.107916221715104,3576,0,70.27380240775874,53.804389005530204,76.56393586522339,0.1174337317141714,0.08991188703377669,0.39453125,,
4.096385000000242,1500,,,,0.1875,-0.08984375,-0.83984375,0.14367442125508867,6.318450183520348,22.611342139404854,3.10626914342979,3573,0,70.23691437916703,53.75960660455339,76.5403877430285,0.1175315554296705,0.08995910824628228,0.392578125,,
4.103415000000037,1500,,,,-0.25,0.2734375,-1.0546875,0.14367442125508867,6.318450183520348,22.611196519719407,3.1052998456775023,3567,0,70.21454506326835,53.67438317278916,76.4433966273294,0.11771817038269305,0.08998776788807747,0.39453125,,
4.110889999999665,1500,,,,0.1875,-0.0703125,-0.84765625,0.14367442125508867,6.318450183520348,22.611319755896627,3.1069394142202267,3560,0,70.25200055713171,53.56616776944601,76.24860124215806,0.11795598689672128,0.08993979009013321,0.39453125,,
4.118339999999851,1500,,,,0.03125,0.033203125,-1.30859375,0.14367442125508867,6.318450183520348,22.61125699258917,3.1077081492499263,3575,0,70.26918762065374,53.79477669162507,76.55528477436609,0.11745471534793123,0.08991779181552981,0.39453125,,
4.125790000000038,1500,,,,-0.15625,0.107421875,-0.97265625,0.14367442125508867,6.318450183520348,22.61129307898171,3.1068761347736302,3579,0,70.25048684346044,53.84478425303797,76.64684854500811,0.11734563098679061,0.0899417280566295,0.39453125,,
4.132855000000447,1500,,,,-0.0625,0.06640625,-1.14453125,0.14367442125508867,6.318450183520348,22.61126618294353,3.105234154941092,3577,0,70.21327603774074,53.82282075051599,76.65618781494453,0.11739351627087984,0.08998939431517312,0.392578125,,
4.140439999999944,1500,,,,0.125,-0.2890625,-0.40234375,0.14367442125508867,6.318450183520348,22.61129867562133,3.1063112671085777,3573,0,70.2377318400398,53.751631942492565,76.52814311388519,0.11754899256417534,0.08995806125844236,0.39453125,,
4.147580000000074,1500,,,,-0.03125,0.314453125,-1.09375,0.14367442125508867,6.318450183520348,22.611155445760318,3.107605242172101,3571,0,70.266545194813,53.72145530680447,76.45381619070996,0.11761502266525604,0.0899211732411567,0.396484375,,
4.155850000000093,1500,,,,-0.25,-0.115234375,-0.806640625,0.14367442125508867,6.318450183520348,22.611000118412882,3.108368678544669,3570,0,70.28332455864441,53.70740347356401,76.41557056503572,0.11764579508354804,0.089899705558866,0.396484375,,
4.163634999999776,1500,,,,-0.0625,0.28515625,-1.34765625,0.14367442125508867,6.318450183520348,22.611241142169977,3.1047938869954725,3565,0,70.20324327558987,53.63068799665517,76.39346203155107,0.11781408032495155,0.09000225472086293,0.396484375,,
4.170695000000298,1500,,,,-0.125,-0.12890625,-0.80859375,0.14367442125508867,6.318450183520348,22.611360345290862,3.1038976304874364,3560,0,70.18334779784588,53.56826561553001,76.32617607502354,0.11795136749188612,0.09002776843475509,0.3984375,,
4.178785000000149,1500,,,,0.125,0.41015625,-1,0.14367442125508867,6.331377177804006,22.611491093663282,3.1045255867914663,3574,0,70.19795265578502,53.7785115213615,76.60980055225245,0.11773061393283642,0.09019318852288831,0.3984375,,
4.186830000000074,1500,,,,0.0625,-0.15625,-0.8359375,0.14367442125508867,6.331377177804006,22.611582057574402,3.104906527145466,3575,0,70.20684871964806,53.79524921464177,76.6239336983468,0.11769398358100286,0.0901817599460508,0.400390625,,
4.194645000000019,1500,,,,-0.03125,0.15625,-1,0.14367442125508867,6.331377177804006,22.611309101479254,3.1032483405863616,3572,0,70.16850744765078,53.73662653234452,76.58225675162711,0.117822379006116,0.09023103680133897,0.40234375,,
4.203260000000242,1500,,,,-0.125,-0.34375,-1.16015625,0.14400612285388548,6.331377177804006,22.61104886558867,3.1035831771375406,3575,0,70.17527087667587,53.9136036522639,76.82706882173667,0.11743561455547673,0.09022234041576552,0.40234375,,
4.213399999999907,1500,,,,-0.09375,0.07421875,-1.04296875,0.14400612285388548,6.331377177804006,22.611028336135597,3.101951060561458,3564,0,70.13830332766099,53.739148039531045,76.61883092392615,0.11781685063459849,0.09026989358761763,0.40234375,,
