Time (s),ESC signal (µs),Servo 1 (µs),Servo 2 (µs),Servo 3 (µs),AccX (g),AccY (g),AccZ (g),Torque (N·m),Thrust (N),Voltage (V),Current (A),Motor Electrical Speed (RPM),Motor Optical Speed (RPM),Electrical Power (W),Mechanical Power (W),Motor Efficiency (%),Propeller Mech. Efficiency (N/W),Overall Efficiency (N/W),Vibration (g),App message,90% settling time (s),Max acceleration (RPM/s),
0,1000,,,,-0.0625,0.05078125,-0.953125,-0.0006543811153687458,0.08185050357291984,22.71359863955438,0.0550379723593933,0,0,1.2501104141061472,0,0,0,0,0.060546875,,
0,1200,,,,-0.0625,0.048828125,-0.955078125,-0.0006543811153687458,0.08255105212081613,22.713619879084906,0.05523911130474965,0,0,1.2546801766345455,0,0,0,0,0.060546875,,
0.008104999999981374,1200,,,,-0.0625,0.05078125,-0.953125,-0.0006543811153687458,0.08255105212081613,22.713670669153235,0.05541453980530893,0,0,1.25866760742047,0,0,0,0,0.060546875,,
0.01615500000026077,1200,,,,-0.0625,0.048828125,-0.95703125,-0.0006543811153687458,0.08255105212081613,22.71358902236124,0.05515827709080519,0,0,1.2528424370220723,0,0,0,0,0.060546875,,
0.023160000000149013,1200,,,,-0.0625,0.046875,-0.95703125,-0.0006252047383590047,0.08255105212081613,22.71352027236521,0.05513066244317305,0,0,1.2522114190319342,0,0,0,0,0.060546875,,
0.031439999999944124,1200,,,,-0.1875,0.0546875,-0.9609375,-0.0006252047383590047,0.08255105212081613,22.713049415795385,0.0779095147992154,0,0,1.7695626595952214,0,0,0,0,0.060546875,,
0.04790499999979511,1200,,,,0.09375,0.0234375,-0.951171875,-0.0006252047383590047,0.08255105212081613,22.710378224170665,0.15857801594704882,0,0,3.601366720196046,0,0,0,0,0.0625,,
0.05446999999973923,1200,,,,-0.14453125,0.1015625,-0.974609375,-0.0006252047383590047,0.08255105212081613,22.709022619246955,0.1946674190262647,2,0,4.42070682189787,0.00012602142049392305,0.002850707490251985,0,0.01867372242644579,0.06640625,,
0.06235999999986962,1200,,,,0.0625,-0.05078125,-1.046875,-0.0006252047383590047,0.08255105212081613,22.70796432994139,0.22127187471184992,3,0,5.024633838175948,0.0001984898574552044,0.0039503347676228,0,0.01642926724204524,0.068359375,,
0.07061000000033528,1200,,,,-0.125,0.134765625,-0.9453125,-0.0006252047383590047,0.08255105212081613,22.707360128482886,0.24204683341373692,4,0,5.496244614284629,0.0002314204173363281,0.004210518882927282,0,0.015019537504984333,0.068359375,,
0.07831499999994412,1200,,,,-0.0625,0.041015625,-1,-0.0006252047383590047,0.08255105212081613,22.706719289275153,0.2584612934704373,4,0,5.868808037976184,0.00024376436115581927,0.004153558262230701,0,0.014066067860226563,0.072265625,,
0.08668999999994412,1200,,,,0.1875,-0.11328125,-1.01953125,-0.0006252047383590047,0.08255105212081613,22.70611269319627,0.27603693280486785,4,0,6.267725703751576,0.0002488439838399124,0.003970243683302313,0,0.013170814426579776,0.07421875,,
0.0946699999999255,1200,,,,-0.09375,0.10546875,-0.947265625,-0.0006252047383590047,0.08255105212081613,22.705713704018955,0.29183806765430165,4,0,6.626391612092688,0.0002507846692935423,0.0037846339904794987,0,0.012457919325227686,0.076171875,,
0.103375,1200,,,,0,0.072265625,-0.96875,-0.0006252047383590047,0.08255105212081613,22.705198882327526,0.30767107394204485,4,0,6.985732924193426,0.0002515773841113031,0.003601302638410704,0,0.011817092496468078,0.076171875,,
0.11420499999960884,1200,,,,-0.25,-0.13671875,-1.046875,-0.0006252047383590047,0.08255105212081613,22.704295627469353,0.3236711287469929,4,0,7.34872499314842,0.00025185830872505674,0.0034272381802268655,0,0.011233384321468358,0.078125,,
0.12307999999960885,1200,,,,-0.03125,0.044921875,-1.00390625,-0.0006252047383590047,0.08255105212081613,22.703036223500128,0.35484088510389056,4,0,8.055965468092474,0.00025199168480677955,0.0031280134678438147,0,0.010247195379346992,0.080078125,,
0.13034999999962746,1200,,,,-0.125,0.146484375,-1.0390625,-0.0006252047383590047,0.08255105212081613,22.702733554150388,0.3565798086503813,4,0,8.095336386579536,0.0002520204835931244,0.003113156409546173,0,0.01019735909401732,0.08203125,,
0.13852499999990686,1200,,,,-0.03125,0.0078125,-0.890625,-0.0006252047383590047,0.08255105212081613,22.702796027870903,0.3604120302562917,4,0,8.182360808899427,0.0002520340647834705,0.0030802120643390516,0,0.010088903929906228,0.08203125,,
0.14748999999975784,1200,,,,-0.0625,0.0625,-0.951171875,-0.0006252047383590047,0.08283112671741799,22.702642861451714,0.3599420450817389,4,0,8.17163570031127,0.0002520396836149376,0.003084323541311772,0,0.010136419409184238,0.083984375,,
0.1553599999998696,1200,,,,-0.0625,0.02734375,-1.015625,-0.0006252047383590047,0.08283112671741799,22.702644053954494,0.35912094535766864,255,0,8.152994994774792,0.016671314231729736,0.20448085939479033,0,0.010159594942779187,0.083984375,,
0.1634250000002794,1200,,,,-0.125,0.0859375,-0.990234375,-0.0006252047383590047,0.08283112671741799,22.702612355047727,0.35961657023955246,354,0,8.164235590600352,0.02318031320488598,0.2839250894667216,0,0.010145607117558334,0.0859375,,
0.17102499999990686,1200,,,,0,0.0703125,-1.0625,-0.0006252047383590047,0.08283112671741799,22.7026796031913,0.35818796320937163,393,0,8.131826566462037,0.02572091905149639,0.31629940507556775,0,0.010186041972296497,0.0859375,,
0.1792349999998696,1200,,,,-0.03125,0.03125,-0.935546875,-0.0006121581653173268,0.08283112671741799,22.702843995084194,0.35486801599551704,408,0,8.056513205991266,0.026186624658249807,0.3250366999805325,0,0.010281262451828444,0.0859375,,
0.18630500000016764,1200,,,,-0.0625,0.029296875,-0.986328125,-0.0006121581653173268,0.08283112671741799,22.702982768563928,0.3509163454858103,414,0,7.966847744771777,0.026554480554014506,0.333312263579291,0,0.010396976240919842,0.0859375,,
0.19468999999994413,1200,,,,-0.125,0.17578125,-0.9375,-0.0006121581653173268,0.08283112671741799,22.703096498626927,0.3445513388502166,417,0,7.822382294647572,0.02672118315389252,0.34159904422181414,0,0.010588989849562172,0.0859375,,
0.20279999999981374,1200,,,,-0.0625,0.123046875,-0.986328125,-0.0006121581653173268,0.08283112671741799,22.7033613735458,0.33920061171044974,418,0,7.700994065790132,0.02679155693137136,0.3478973844478935,0,0.010755900603193026,0.087890625,,
0.20965499999979512,1200,,,,0,0.09765625,-0.98828125,-0.0006121581653173268,0.08283112671741799,22.703561921544292,0.33477406677665533,418,0,7.600563754790998,0.026814263851763453,0.3527930916290406,0,0.010898024066333972,0.0859375,,
0.2165449999999255,1200,,,,-0.0625,-0.046875,-0.9453125,-0.0006121581653173268,0.08283112671741799,22.703665108541816,0.3301744529691368,418,0,7.496170207607272,0.02682402654814467,0.357836412531336,0,0.011049792683917344,0.087890625,,
0.23012000000011176,1200,,,,-0.0625,0.04296875,-0.9765625,-0.0006121581653173268,0.08283112671741799,22.70391209916074,0.3219757566649124,574,0,7.310109277380938,0.03681333424927045,0.5035948554583017,0,0.011331038097298416,0.0859375,,
0.23872999999998137,1200,,,,-0.03125,0.0625,-0.974609375,-0.0006121581653173268,0.08283112671741799,22.704221918952033,0.3158707121065457,613,0,7.171598745364423,0.039264689167248144,0.547502594071204,0,0.011549883039811502,0.0859375,,
0.2462949999999255,1200,,,,-0.03125,0.041015625,-0.974609375,-0.0006121581653173268,0.08283112671741799,22.70449653442582,0.31067019010556185,625,0,7.05361025460114,0.040038569148334716,0.5676322862071541,0,0.011743082439717509,0.0859375,,
0.2547399999997579,1200,,,,-0.0625,0.05859375,-0.9453125,-0.0006121581653173268,0.08283112671741799,22.70487670401664,0.30539002301841667,630,0,6.933842819269954,0.04036252857409039,0.5821090789932277,0,0.011945919294164078,0.0859375,,
0.2647549999998882,1200,,,,-0.03125,0.025390625,-0.9765625,-0.0006121581653173268,0.08283112671741799,22.70502493868718,0.29883957888421125,632,0,6.785160091232791,0.04048270530530045,0.5966359637941154,0,0.012207689369694512,0.0859375,,
0.2729350000000559,1200,,,,-0.0625,0.072265625,-0.962890625,-0.0006121581653173268,0.08283112671741799,22.705347779601013,0.29052098797554027,632,0,6.5963800692579255,0.040539317079146917,0.6145691523761377,0,0.012557057939012338,0.0859375,,
0.28171999999973923,1200,,,,-0.0625,0.03125,-0.970703125,-0.0006121581653173268,0.08283112671741799,22.705480393893595,0.28403806503256596,670,0,6.4492207167164,0.042981830900928615,0.6664654969788765,0,0.012843586900773833,0.0859375,,
0.28945999999996275,1200,,,,-0.03125,0.0390625,-0.921875,-0.0006121581653173268,0.08283112671741799,22.705669911238484,0.27830574111487494,704,0,6.319118292156943,0.04512584392539603,0.714116144674876,0,0.013108019645751045,0.083984375,,
0.298929999999702,1200,,,,-0.0625,0.046875,-0.9765625,-0.0006121581653173268,0.13565700035913822,22.70578342902122,0.2719460875548461,717,0,6.174748968389979,0.04596586424433201,0.7444167281883408,0,0.021969638126764172,0.083984375,,
0.30712499999953435,1200,,,,-0.03125,0.02734375,-0.96484375,-0.0006121581653173268,0.13565700035913822,22.70609965267476,0.26610327133540684,723,0,6.042167396844499,0.04633660051021552,0.766887069934783,0,0.02245171168709835,0.083984375,,
0.3138549999999814,1200,,,,-0.25,0.07421875,-0.94140625,-0.0006121581653173268,0.13565700035913822,22.70505563726951,0.31033822749712214,724,0,7.046246721693761,0.04643919455468467,0.6590628513150008,0,0.019252377289242763,0.0859375,,
0.32556000000005586,1200,,,,-0.09375,0.025390625,-0.990234375,-0.0006121581653173268,0.13565700035913822,22.70376397722416,0.3523131641222044,725,0,7.998834924299568,0.046492453149871785,0.5812403129939949,0,0.016959594946387428,0.0859375,,
0.33308499999996277,1200,,,,-0.03125,-0.009765625,-0.982421875,0.02085531505596776,0.13565700035913822,22.702098964627368,0.4155384102730642,737,0,9.433594113623034,1.6098302938308733,17.064867053227577,0.0842678889066739,0.014380203210485411,0.08984375,,
0.34050499999988826,1200,,,,-0.09375,0.150390625,-0.953125,0.02085531505596776,0.13565700035913822,22.70049542902473,0.4645563332344472,771,0,10.545658919113059,1.6829721050166702,15.95890894941078,0.08060561429079331,0.012863776592780951,0.08984375,,
0.348464999999851,1200,,,,-0.0625,-0.05859375,-0.953125,0.02085531505596776,0.13565700035913822,22.698996301433322,0.5261217801362801,787,0,11.942436341416936,1.7184151573983797,14.389150657967791,0.07894308879614294,0.0113592399809303,0.091796875,,
0.35645999999996275,1200,,,,-0.09375,-0.001953125,-1.02734375,0.02085531505596776,0.13565700035913822,22.697553112308576,0.5639712327920106,793,0,12.800767010110803,1.7322926762656277,13.532725616342836,0.07831067014124855,0.010597568118534482,0.091796875,,
0.3644499999997206,1200,,,,-0.03125,0,-0.978515625,0.02085531505596776,0.13565700035913822,22.696293092632537,0.5964419875220219,796,0,13.537022161552088,1.737843771473198,12.837710914066683,0.07806052683558523,0.01002118477314988,0.09375,,
0.37793500000005587,1200,,,,0,0.046875,-1.1171875,0.02085531505596776,0.13565700035913822,22.694738852706024,0.6450549501868396,797,0,14.639353640135617,1.740541181452086,11.889467419382333,0.07793955225234218,0.009266597671854693,0.09375,,
0.38567499999981375,1200,,,,0.01953125,0.00390625,-1.0703125,0.02085531505596776,0.13565700035913822,22.69410754382339,0.664992161200425,944,0,15.091403622081986,2.0626579728537555,13.667767588136343,0.06576805371733652,0.008989024729326217,0.09375,,
0.3934749999996275,1200,,,,0.125,0.0625,-0.77734375,0.02085531505596776,0.13565700035913822,22.693612746958284,0.6813199602783937,1008,0,15.461611335330867,2.201154896964997,14.236258105487387,0.06162992006886259,0.008773794491208848,0.095703125,,
0.402660000000149,1200,,,,-0.09375,-0.0078125,-0.970703125,0.02085531505596776,0.13565700035913822,22.693302832639812,0.691049196039524,1035,0,15.682188677977194,2.259323693211741,14.406941145814384,0.06004318936977776,0.00865038695457376,0.095703125,,
0.4104849999998696,1200,,,,0.0625,0.046875,-0.921875,0.02085531505596776,0.13565700035913822,22.69291516821304,0.6998855225271153,1093,0,15.882442790168286,2.386791592921982,15.027862051544606,0.056836550271682024,0.008541318369685174,0.095703125,,
0.42111000000033527,1200,,,,-0.0625,0.0703125,-0.98046875,0.02085531505596776,0.13565700035913822,22.692740207848694,0.704725604819171,1166,0,15.992155067980491,2.545735021117794,15.918648926903337,0.05328794993737144,0.008482721670874166,0.095703125,,
0.4318950000000186,1200,,,,-0.0625,-0.009765625,-0.95703125,0.02085531505596776,0.13565700035913822,22.692471731877912,0.7065027938698991,1201,0,16.032294678385455,2.6229724384370936,16.360555310733858,0.05171880511255768,0.00846148371649065,0.095703125,,
0.4402249999996275,1200,,,,-0.0625,0.01953125,-0.943359375,0.02085531505596776,0.13565700035913822,22.692446547137084,0.7079636820637837,1209,0,16.065428012546764,2.6399136881923777,16.43226489907807,0.05138690744545756,0.00844403275488166,0.09765625,,
0.449214999999851,1200,,,,0.03125,0.0390625,-0.96484375,0.02085531505596776,0.21059707638947617,22.692424367584852,0.7095728727683667,1286,0,16.10192874858607,2.809435252604243,17.44781818669359,0.07496064420572086,0.013078996912588438,0.09765625,,
0.457375,1200,,,,-0.09375,0.06640625,-0.951171875,0.02085531505596776,0.21059707638947617,22.692546111074545,0.7074680162138072,1318,0,16.054250580042254,2.8784656694584845,17.92961717588258,0.07316296269362665,0.013117839125501048,0.09765625,,
0.4655649999999441,1200,,,,0,-0.02734375,-0.94140625,0.02085531505596776,0.21059707638947617,22.692718232167643,0.703697175920142,1329,0,15.968801733927888,2.902393746435501,18.175400977450746,0.07255978850151379,0.01318803250854033,0.09765625,,
0.4728450000002049,1200,,,,-0.125,0.05078125,-1,0.02085531505596776,0.21059707638947617,22.692780569729834,0.6988282772802842,1361,0,15.858356752243806,2.971866790803568,18.740067695747083,0.07086356529881088,0.0132798801086171,0.09765625,,
0.48060999999986964,1200,,,,0,0.109375,-0.9765625,0.0757629961341229,0.21059707638947617,22.692746624220362,0.6955314395607941,1386,0,15.78351872713234,10.993285823611162,69.6504120130917,0.019156881733863405,0.013342847056496568,0.09765625,,
0.4885749999997206,1200,,,,-0.03125,0.025390625,-0.951171875,0.0757629961341229,0.21059707638947617,22.692840178329085,0.6894618845206594,1397,0,15.645848354476907,11.084205164952934,70.84438576819835,0.01899974542652472,0.013460252944942797,0.09765625,,
0.49641500000003724,1200,,,,0,-0.046875,-0.94921875,0.0757629961341229,0.21059707638947617,22.693060045705458,0.6834509536004907,1402,0,15.50959352835059,11.120332703379091,71.6997043349447,0.01893801939266465,0.013578503911435048,0.09765625,,
0.5045649999999441,1200,,,,-0.0625,0.060546875,-0.962890625,0.0757629961341229,0.21059707638947617,22.693304324224478,0.6746801846925206,1417,0,15.310722752751346,11.242333377602689,73.42784242881308,0.018732505905672034,0.013754874919384963,0.09765625,,
0.5126549999997951,1200,,,,-0.03125,-0.00390625,-0.966796875,0.0757629961341229,0.21059707638947617,22.69363093717165,0.6661309719275271,1436,0,15.11693043274275,11.396785734744588,75.39087240925276,0.018478637862554836,0.013931206293926588,0.09765625,,
0.5203799999998883,1200,,,,-0.0625,0.12109375,-0.99609375,0.0757629961341229,0.21059707638947617,22.693943995945055,0.6590009103907957,1444,0,14.955329753685524,11.458246865754786,76.6164775666753,0.018379519908834113,0.01408174074781451,0.09765625,,
0.5276099999998696,1200,,,,-0.03125,0.060546875,-0.9609375,0.0757629961341229,0.21059707638947617,22.694291295651183,0.6504359751976276,1456,0,14.76118349030591,11.549184064141524,78.24023102027154,0.018234801282919055,0.014266950649843305,0.09765625,,
0.5354099999996833,1200,,,,0,-0.03515625,-0.9453125,0.0757629961341229,0.21059707638947617,22.694572156574175,0.6410845485454243,1470,0,14.549139545428911,11.665605040393725,80.18072136821903,0.018052820720421744,0.014474881880945471,0.09765625,,
0.5427099999999627,1200,,,,-0.0625,0.07421875,-0.99609375,0.0757629961341229,0.21059707638947617,22.694917749387148,0.6339290049111884,1476,0,14.386966625410263,11.70793949361029,81.37879094632586,0.01798754396573465,0.014638045800253654,0.09765625,,
0.5505049999998882,1200,,,,-0.03125,-0.015625,-0.95703125,0.0757629961341229,0.21059707638947617,22.694970521859585,0.6257846868774755,1478,0,14.202165021715436,11.727979886298707,82.57881716179439,0.017956807432412777,0.014828519177707654,0.09765625,,
0.5585649999999441,1200,,,,0,0.07421875,-0.90234375,0.0757629961341229,0.21059707638947617,22.695318608156892,0.6172743234291009,1486,0,14.00923743885793,11.787536774641739,84.14117346563218,0.01786608011629104,0.015032729462157265,0.09765625,,
0.5662050000000745,1200,,,,-0.03125,0.021484375,-0.9921875,0.0757629961341229,0.21059707638947617,22.695676811604887,0.6087730193800462,1495,0,13.816515699474408,11.861829391168566,85.85253800000966,0.01775418187571228,0.015242415741436713,0.09765625,,
0.5776650000000373,1200,,,,-0.0625,0.109375,-1,0.0757629961341229,0.21059707638947617,22.695825900475402,0.6009456084063156,1499,0,13.638956904045006,11.891600035320774,87.18848603293111,0.017709734246354962,0.015440849169852413,0.09765625,,
0.5939249999998137,1200,,,,-0.0625,0.01953125,-0.953125,0.0757629961341229,0.5843245561781628,22.696142629555432,0.5810415031177961,1510,0,13.187400828452779,11.980559249649808,90.84852584294609,0.04877272788373737,0.04430930429576691,0.09765625,,
0.6014300000001677,1200,,,,-0.0625,0.03125,-0.98828125,0.0757629961341229,0.5843245561781628,22.696332304226,0.5725416479644367,1515,0,12.994595500210036,12.016896476247979,92.47611036491091,0.04862524673763402,0.044966736838304676,0.09765625,,
0.6084550000000745,1200,,,,-0.125,0.12109375,-0.9453125,0.0757629961341229,0.5843245561781628,22.696668195226415,0.564774894087115,1516,0,12.81850837608939,12.030324396790377,93.85120361765938,0.048570972561143684,0.045584442357436424,0.09765625,,
0.6167599999997765,1200,,,,0.03125,0.078125,-0.953125,0.0757629961341229,0.5843245561781628,22.69708868492178,0.5557090497317362,1521,0,12.612977584774825,12.067508150610704,95.67533177239164,0.048421310256052466,0.0463272492360173,0.09765625,,
0.6246599999996834,1200,,,,0,-0.009765625,-0.978515625,0.0757629961341229,0.5843245561781628,22.697428690580356,0.548130495292592,1527,0,12.441152830036097,12.113730714942028,97.36823331754603,0.048236548254899786,0.046967074849161496,0.09765625,,
0.6317400000002236,1200,,,,0,0.00390625,-1.0546875,0.05830047983728283,0.5843245561781628,22.69754112411614,0.5420201848458279,1529,0,12.302525435639211,9.33474902415853,75.87668948943342,0.06259670770643307,0.04749630953701846,0.09765625,,
0.6396599999996834,1200,,,,-0.0625,0.04296875,-0.96875,0.05830047983728283,0.5843245561781628,22.697726005029498,0.535072403897316,1530,0,12.144926816513758,9.340764154413419,76.91083112754991,0.06255639758360404,0.04811264530500441,0.09765625,,
0.6476899999999441,1200,,,,-0.03125,-0.037109375,-0.982421875,0.05830047983728283,0.5843245561781628,22.698034097612975,0.5294879794999204,1535,0,12.018336212965394,9.372415584678343,77.98430180849302,0.06234513940391138,0.048619421675671945,0.09765625,,
0.6554150000000373,1200,,,,-0.03125,-0.033203125,-0.96484375,0.05830047983728283,0.5843245561781628,22.69806506820546,0.5222826799594154,1537,0,11.854806253715537,9.384874913012249,79.16514797591768,0.06226237020676635,0.04929009750750027,0.09765625,,
0.6642900000000372,1200,,,,-0.125,0.05859375,-0.94921875,0.05830047983728283,0.5843245561781628,22.69815913313455,0.5154759062539837,1538,0,11.700354149449668,9.389780973938015,80.25210907295201,0.06222983877898707,0.049940758092834894,0.09765625,,
0.6715849999999628,1200,,,,-0.09375,0.015625,-0.978515625,0.05830047983728283,0.5843245561781628,22.698321276362346,0.5084482873485007,1541,0,11.540922578652468,9.405181682838949,81.49419267603395,0.06212793924484665,0.05063066251384464,0.09765625,,
0.6798250000001863,1200,,,,-0.03125,0.03125,-0.96484375,0.05830047983728283,0.5843245561781628,22.698401786801227,0.5027124535674196,1543,0,11.410769254301945,9.417332858387336,82.5302190282827,0.06204777562446965,0.051208165125052205,0.09765625,,
0.6877749999999069,1200,,,,0,-0.04296875,-1.0234375,0.05830047983728283,0.5843245561781628,22.698544540196078,0.49620799399374005,1543,0,11.263199252868256,9.422260421649902,83.6552760020689,0.062015326474689346,0.05187909252598548,0.099609375,,
0.6959350000000559,1200,,,,-0.03125,0.037109375,-0.962890625,0.05830047983728283,0.5843245561781628,22.6990091189719,0.4896514105895595,1544,0,11.114601834089866,9.42422546562122,84.79139069755921,0.06200239566739246,0.052572693552185266,0.09765625,,
0.7040049999998882,1200,,,,-0.0625,-0.0078125,-0.96484375,0.05830047983728283,0.5843245561781628,22.69919092549639,0.48366095339796794,1546,0,10.978712324388086,9.441620485930672,85.99934315572764,0.061888163906703056,0.05322341445090474,0.09765625,,
0.7118199999998324,1200,,,,0,-0.005859375,-0.970703125,0.05830047983728283,0.5843245561781628,22.69923054552916,0.4787007003942445,1548,0,10.866137560555238,9.448344091581973,86.95218552984323,0.0618441232150688,0.05377481675727148,0.09765625,,
0.7198549999995157,1200,,,,0,-0.072265625,-0.982421875,0.05830047983728283,0.5843245561781628,22.699333202483754,0.4739887332227441,1548,0,10.75922818964625,9.451001830697326,87.84089029538524,0.06182673187939161,0.054309151723398355,0.09765625,,
0.730339999999851,1200,,,,-0.125,0.0390625,-1.0078125,0.05830047983728283,0.5843245561781628,22.699365762161687,0.4695150937117138,1549,0,10.657694843017811,9.45976330848977,88.75993775227253,0.06176946897326219,0.05482654221057681,0.09765625,,
0.7384700000002049,1200,,,,0,0.03515625,-0.98046875,0.05830047983728283,0.5843245561781628,22.69940906209365,0.4631152495340394,1551,0,10.512442492066736,9.468325476020668,90.0677980703912,0.06171361109818351,0.05558409062585846,0.09765625,,
0.7467050000000746,1200,,,,0.0625,0.1328125,-0.984375,0.05830047983728283,0.8720781724487646,22.699534178242388,0.4604672343752697,1551,0,10.452391724662183,9.470476129454989,90.60582858858622,0.09208387841625354,0.08343336103555284,0.09765625,,
0.7547250000000931,1200,,,,-0.0625,0.150390625,-0.962890625,0.05830047983728283,0.8720781724487646,22.699750016598827,0.45605344534494685,1552,0,10.352299203538909,9.475463124596608,91.53003538921521,0.09203541409865294,0.0842400470951078,0.09765625,,
0.7650499999998137,1200,,,,-0.125,0.064453125,-0.9765625,0.05830047983728283,0.8720781724487646,22.69988418664431,0.4543682707983456,1553,0,10.314107125208285,9.482244930867228,91.93471442323946,0.09196958935430136,0.08455197932910298,0.09765625,,
0.772785000000149,1200,,,,0,0.01953125,-0.953125,0.05830047983728283,0.8720781724487646,22.699940251772922,0.4513957070742513,1553,0,10.246655580492297,9.484327241700685,92.56022286683529,0.09194939717119964,0.08510856694637392,0.09765625,,
0.7804599999999627,1200,,,,-0.0625,0.0703125,-0.923828125,0.05114997546023989,0.8720781724487646,22.70004063631453,0.4480233479217407,1554,0,10.170148203841197,8.321778460179695,81.82553777374272,0.10479468741227864,0.08574881653340967,0.09765625,,
0.7887299999999814,1200,,,,-0.09375,0.01171875,-0.9609375,0.05114997546023989,0.8720781724487646,22.70023542916236,0.4431845901092328,1556,0,10.060394534056403,8.334533475316366,82.84499625837078,0.10463431157023001,0.0866842915053291,0.09765625,,
0.7966999999997206,1200,,,,-0.03125,-0.01953125,-0.95703125,0.05114997546023989,0.8720781724487646,22.700354764573515,0.439768550624889,1557,0,9.982902113487288,8.339540583137403,83.53823856361728,0.10457148853164784,0.08735717955909367,0.09765625,,
0.8048799999998882,1200,,,,0,0.03515625,-1.03515625,0.05114997546023989,0.8720781724487646,22.7003372354003,0.4360786670455457,1557,0,9.899132803097732,8.341520292926063,84.26516199798586,0.10454667036994697,0.0880964211507361,0.09765625,,
0.8128599999998696,1200,,,,-0.03125,0.01171875,-0.97265625,0.05114997546023989,0.8720781724487646,22.700320723778812,0.43151832849161376,1559,0,9.795604454948572,8.348917113710586,85.23126012395137,0.10445404602432075,0.0890274996769807,0.09765625,,
0.8207299999999814,1200,,,,-0.0625,0.08984375,-1.01953125,0.05114997546023989,0.8720781724487646,22.700402913455992,0.4287841963627006,1559,0,9.733574020355736,8.351830813274775,85.80435917792033,0.10441760518695428,0.08959485699959702,0.09765625,,
0.828820000000298,1200,,,,-0.0625,0.095703125,-0.953125,0.05114997546023989,0.8720781724487646,22.700383368039475,0.4256620362826577,1559,0,9.662691408836658,8.352979139497961,86.44567839410719,0.10440325037148114,0.0902520980491251,0.09765625,,
0.83675,1200,,,,-0.03125,0.046875,-0.93359375,0.05114997546023989,0.8720781724487646,22.700462201477634,0.42068488924585973,1559,0,9.549741427058445,8.352699447317962,87.46518961917903,0.10440674633980605,0.09131955866132661,0.095703125,,
0.843589999999851,1200,,,,-0.125,0.18359375,-0.9609375,0.05114997546023989,0.8720781724487646,22.700558524413175,0.41919382224232,1559,0,9.515933894884238,8.351215612024909,87.76033654998926,0.10442529722176733,0.0916439922851496,0.09765625,,
0.8516549999997951,1200,,,,-0.0625,0.03515625,-0.9609375,0.05114997546023989,0.8720781724487646,22.700727121923787,0.4164255827872755,1559,0,9.453163521442024,8.350531704583137,88.33584318775554,0.1044338496397936,0.0922525216527445,0.095703125,,
0.8580049999998882,1200,,,,-0.0625,-0.0546875,-0.9453125,0.05114997546023989,0.8720781724487646,22.700696789626203,0.4149968016787256,1559,0,9.420716563573388,8.350285015758821,88.63747210107616,0.10443693488341556,0.09257025902050653,0.09765625,,
0.8659799999999813,1200,,,,0,-0.03515625,-0.97265625,0.05114997546023989,0.8720781724487646,22.7008594035058,0.4127421055756945,1559,0,9.369600508580788,8.352376359342005,89.1433562369367,0.1044107850184886,0.09307527803881344,0.09765625,,
0.8741699999999255,1200,,,,-0.03125,0.0078125,-0.958984375,0.05114997546023989,0.8720781724487646,22.700915154936656,0.40934150158912824,1559,0,9.292426696969168,8.353195741872291,89.89251155025826,0.10440054314509532,0.09384827030523717,0.095703125,,
0.884714999999851,1200,,,,-0.03125,0.02734375,-1.033203125,0.05114997546023989,0.8720781724487646,22.700869315033007,0.4060142293917081,1560,0,9.216875961464998,8.353524708722286,90.6329296786426,0.10439643178863038,0.09461754461000148,0.095703125,,
0.8919449999998323,1200,,,,0,0.099609375,-0.98828125,0.05114997546023989,1.0305232468879646,22.70089597168054,0.40415079412307947,1559,0,9.174585134260107,8.351804313105244,91.03195611447975,0.1233892950857239,0.11232368895240209,0.095703125,,
0.8989099999996834,1200,,,,-0.0625,0.11328125,-0.984375,0.05114997546023989,1.0305232468879646,22.701023370884048,0.4019146128957046,1559,0,9.123873020445206,8.348204343374379,91.49847136920174,0.12344250386082702,0.11294800405252454,0.095703125,,
0.9068900000001304,1200,,,,-0.0625,0.0546875,-0.9765625,0.05114997546023989,1.0305232468879646,22.701168843159817,0.3996793272429689,1558,0,9.073187890863162,8.346406104224728,91.98978578003091,0.12346909963635022,0.11357896026001149,0.095703125,,
0.9149550000000745,1200,,,,-0.0625,0.02734375,-0.94140625,0.05114997546023989,1.0305232468879646,22.701111650692958,0.39690857772969357,1558,0,9.010265938159518,8.345693446211762,92.62427439424162,0.12347964294755338,0.11437212330477166,0.095703125,,
0.9230099999997765,1200,,,,-0.03125,0.12890625,-0.9765625,0.05114997546023989,1.0305232468879646,22.701155466516408,0.3968257935103648,1558,0,9.00840403160253,8.344674098414202,92.63210296896226,0.12349472666449636,0.11439576236509477,0.095703125,,
0.9309150000000372,1200,,,,-0.125,0.09375,-0.99609375,0.04163862729904341,1.0305232468879646,22.701295673250073,0.39546468717748867,1558,0,8.977560791945518,6.792654759282019,75.66258716260936,0.15171141231339283,0.11478877957724651,0.095703125,,
0.9506000000000931,1200,,,,-0.041015625,0.025390625,-0.97265625,0.04163862729904341,1.0305232468879646,22.701422045923902,0.3940347632734306,1558,0,8.945149461835864,6.795627054820629,75.96996655912692,0.1516450562361188,0.11520469851114866,0.095703125,,
0.9670550000001676,1200,,,,-0.03125,0.0625,-0.95703125,0.04163862729904341,1.0305232468879646,22.701507180467654,0.39151259140173966,1559,0,8.887925904950093,6.798758032253026,76.49431492747354,0.151575220356307,0.11594642641136545,0.09375,,
0.9742050000000745,1200,,,,-0.0625,0.1640625,-0.94921875,0.04163862729904341,1.0305232468879646,22.701432945848506,0.39019781104059825,1559,0,8.858049442955007,6.796724337691464,76.72935651874288,0.1516205742188429,0.11633749094814111,0.09375,,
0.9817849999996834,1200,,,,-0.0625,0.0078125,-0.95703125,0.04163862729904341,1.0305232468879646,22.701372923327643,0.3904089363447921,1558,0,8.862818856562809,6.79380418051471,76.65511718637892,0.15168574476191193,0.11627488540227522,0.09375,,
0.9895550000001676,1200,,,,-0.0625,0.046875,-0.95703125,0.04163862729904341,1.0305232468879646,22.701510009140666,0.3893018978831917,1558,0,8.837740931372734,6.7923365680793415,76.8560271320865,0.15171851932822641,0.11660482637930157,0.09375,,
0.9976699999999254,1200,,,,-0.0625,0.14453125,-0.9609375,0.04163862729904341,1.0305232468879646,22.70156517238382,0.38751562315963844,1558,0,8.79721117447546,6.791811970467614,77.20414840300319,0.15173023802321392,0.11714203813567205,0.09375,,
1.0058749999995344,1200,,,,-0.0625,0.04296875,-0.984375,0.04163862729904341,1.0305232468879646,22.701692880162554,0.38655517433972814,1558,0,8.775456849098202,6.793446076831326,77.41415852930147,0.15169374058955254,0.11743243281902355,0.09375,,
1.0131999999997205,1200,,,,-0.125,0.04296875,-0.98046875,0.04163862729904341,1.0305232468879646,22.701736525062344,0.38422199943866536,1558,0,8.722506598389232,6.794007153925085,77.89053613533203,0.15168121309566224,0.11814531009678676,0.09375,,
1.026435000000056,1200,,,,-0.03125,0.009765625,-1.0078125,0.04163862729904341,1.0305232468879646,22.70189757530921,0.3813001553336785,1558,0,8.656237071834662,6.794302585972076,78.49025540299863,0.15167461764444296,0.11904979477064488,0.09375,,
1.0375849999999627,1200,,,,0,0,-1.00390625,0.04163862729904341,1.0305232468879646,22.702150787047987,0.3801797119586891,1558,0,8.630897147062631,6.793994027384284,78.71712420645049,0.15168150615591877,0.11939931959896942,0.09375,,
1.0455299999997951,1200,,,,-0.0625,0.09765625,-0.953125,0.04163862729904341,1.1183545931426409,22.702184763285093,0.3785994082651272,1558,0,8.595033717705324,6.793603164291844,79.04102982513464,0.16461876946549858,0.13011637067099438,0.09375,,
1.0630150000001304,1200,,,,-0.0625,0.056640625,-0.921875,0.04163862729904341,1.1183545931426409,22.702036483795844,0.375549037956804,1557,0,8.525727961149794,6.789434172587362,79.6346564601356,0.16471985215764318,0.13117408838738243,0.09375,,
1.0794099999996833,1200,,,,0,0.0234375,-0.953125,0.03614501165337011,1.1183545931426409,22.702096699784512,0.37481786647960497,1557,0,8.509151449626913,5.891522048110735,69.23748017634651,0.18982439240828594,0.13142962606355718,0.09375,,
1.0869099999996834,1200,,,,-0.0625,0.046875,-0.990234375,0.03614501165337011,1.1183545931426409,22.70209215262444,0.3757750909791557,1557,0,8.530880744069625,5.893995971132614,69.0901226726199,0.1897447162536376,0.13109485722445274,0.09375,,
1.095714999999851,1200,,,,-0.09375,0.017578125,-0.974609375,0.03614501165337011,1.1183545931426409,22.702274661154192,0.37564885022281735,1558,0,8.528083373905172,5.896590659945824,69.14321074754764,0.18966122249919173,0.13113785877899137,0.09375,,
1.1029699999997393,1200,,,,-0.03125,0.04296875,-1.00390625,0.03614501165337011,1.1183545931426409,22.70226319400759,0.37537952642106825,1558,0,8.521964806453017,5.897365992976818,69.20195197838889,0.18963628753489115,0.13123201263349485,0.09375,,
1.1112250000000932,1200,,,,0.0625,-0.0390625,-0.96875,0.03614501165337011,1.1183545931426409,22.702283166192377,0.3740008583842246,1558,0,8.490673391437682,5.8977478487601385,69.4614852893488,0.1896240093373521,0.13171565335093824,0.09375,,
1.1200950000002048,1200,,,,-0.03125,0.048828125,-1.013671875,0.03614501165337011,1.1183545931426409,22.70215778098249,0.3744518855332395,1558,0,8.500865786761997,5.897905735536967,69.38005943725757,0.18961893310775704,0.13155772849445552,0.09375,,
1.1275300000002608,1200,,,,-0.0625,0.126953125,-0.97265625,0.03614501165337011,1.1183545931426409,22.702310030605176,0.374199334971241,1558,0,8.495189315763392,5.897958570138674,69.42704101007634,0.18961723447920825,0.13164563514405253,0.09375,,
1.1363500000000932,1200,,,,0.0625,0.078125,-1,0.03614501165337011,1.1183545931426409,22.70229481861707,0.3729972670140964,1558,0,8.467893922292449,5.897980011648837,69.65108521402121,0.18961654514491885,0.13206998143877047,0.09375,,
1.1432049999996088,1200,,,,-0.09375,0.08984375,-0.962890625,0.03614501165337011,1.1183545931426409,22.702377399030613,0.3717614944824528,1558,0,8.439869750168281,5.895925821355285,69.8580190913222,0.18968260914883198,0.13250851331210914,0.09375,,
1.1503849999997764,1200,,,,0,0.078125,-0.96875,0.03614501165337011,1.1183545931426409,22.70236198896823,0.3719221912416316,1557,0,8.44351221729779,5.895183579516249,69.81909219529628,0.18970649141929039,0.13245135014449616,0.091796875,,
1.158005000000354,1200,,,,-0.03125,0.07421875,-0.990234375,0.03614501165337011,1.1183545931426409,22.702438524450656,0.37209856860375823,1557,0,8.447544878762907,5.89481904643555,69.78144692968841,0.18971822278732745,0.13238812095028693,0.091796875,,
1.166314999999944,1200,,,,-0.125,0.05859375,-0.99609375,0.03614501165337011,1.1183545931426409,22.702383696052898,0.3719541070434959,1557,0,8.444244855424175,5.895186726849964,69.81307183511123,0.18970639013842105,0.13243985842313227,0.09375,,
1.1750550000001676,1200,,,,-0.0625,-0.01953125,-0.9609375,0.03614501165337011,1.1183545931426409,22.70225391955412,0.37144901597151214,1558,0,8.432729878753783,5.895884281962762,69.91667427670617,0.18968394555571844,0.13262070636939635,0.09375,,
1.1822700000000186,1200,,,,-0.03125,0.046875,-1.015625,0.03614501165337011,1.1183545931426409,22.702273720584532,0.36926147386679925,1558,0,8.383075054190549,5.896120476337233,70.33362385786906,0.18967634695235758,0.13340624841281784,0.091796875,,
1.1921899999999441,1200,,,,0,0.03515625,-0.95703125,0.03614501165337011,1.1529605715727194,22.702084803860288,0.36983375751972686,1558,0,8.395997326543142,5.896211158895126,70.22645350606315,0.1955426188957536,0.13732264634336466,0.091796875,,
1.2015949999997393,1200,,,,-0.03125,0.09375,-0.98828125,0.03614501165337011,1.1529605715727194,22.701939541290006,0.36857763494856266,1558,0,8.367427184873927,5.897479590944906,70.48139721617146,0.1955005615183468,0.13779152732359165,0.091796875,,
1.20875,1200,,,,-0.0625,0.064453125,-1.00390625,0.03614501165337011,1.1529605715727194,22.701851738139254,0.36860536423317686,1558,0,8.368024328704399,5.897777752606934,70.47993075708555,0.1954906780037766,0.13778169449361882,0.091796875,,
1.2180449999999254,1200,,,,-0.0625,0.025390625,-0.912109375,0.03614501165337011,1.1529605715727194,22.701693769158616,0.3677730901437323,1558,0,8.349072068980178,5.897909492674568,70.64149697051286,0.19548631137943726,0.13809445673087248,0.091796875,,
1.2261549999997952,1200,,,,0,0.07421875,-0.94140625,0.03386042621259685,1.1529605715727194,22.701820352469813,0.36570724709028746,1559,0,8.302220225039994,5.526722643335364,66.56921273500355,0.20861560204456184,0.1388737639234528,0.091796875,,
1.2330649999999441,1200,,,,-0.125,0.080078125,-1.005859375,0.03386042621259685,1.1529605715727194,22.70208473729712,0.3655776325130014,1559,0,8.299374391370625,5.527224370415236,66.59808450336008,0.2085966652166325,0.13892138337216406,0.091796875,,
1.2412700000000185,1200,,,,-0.03125,-0.0078125,-0.97265625,0.03386042621259685,1.1529605715727194,22.701981973312424,0.3651139743346987,1559,0,8.288810863550786,5.527462673178479,66.68583424294239,0.20858767209181853,0.13909842926236232,0.091796875,,
1.2501200000001118,1200,,,,0,-0.0390625,-0.966796875,0.03386042621259685,1.1529605715727194,22.702020086052425,0.364616227545089,1558,0,8.277524921429272,5.525833316947409,66.75707254763866,0.20864917659326718,0.13928808218841807,0.091796875,,
1.2582799999997951,1200,,,,-0.125,-0.01171875,-1.0078125,0.03386042621259685,1.1529605715727194,22.701986131218007,0.36484245728719766,1558,0,8.28264840541346,5.524473904490922,66.69936515571733,0.20870051909114126,0.13920192131047787,0.091796875,,
1.2662049999996088,1200,,,,0,0.05078125,-1,0.03386042621259685,1.1529605715727194,22.70217980762922,0.3641100571588842,1558,0,8.266091987387144,5.52394839142983,66.82660197658788,0.2087203735214993,0.13948073325725985,0.091796875,,
1.2741649999995717,1200,,,,0,0.12109375,-0.94140625,0.03386042621259685,1.1529605715727194,22.702333823723638,0.3630864203249284,1558,0,8.242909121077359,5.523736957604066,67.01198419717754,0.20872836277722007,0.13987301747929812,0.091796875,,
1.282064999999944,1200,,,,-0.0625,0.095703125,-0.96875,0.03386042621259685,1.1529605715727194,22.702317435586128,0.3627471837794954,1558,0,8.235201715027003,5.523166729922644,67.06777709942875,0.20874991249609937,0.1400039260081365,0.091796875,,
1.2901849999995902,1200,,,,0,0.0078125,-0.99609375,0.03386042621259685,1.1529605715727194,22.702269205062613,0.36242458583010523,1558,0,8.22786051404837,5.522941964811049,67.12488569028481,0.2087584079135194,0.14012884268080839,0.091796875,,
1.298035000000149,1200,,,,-0.0625,0.08984375,-0.8984375,0.03386042621259685,1.1529605715727194,22.702452013961967,0.3617996619719616,1558,0,8.21373946458612,5.522853383226317,67.23920824416612,0.2087617562100096,0.1403697519922268,0.091796875,,
1.3061699999999254,1200,,,,-0.0625,0.09375,-0.984375,0.03386042621259685,1.1529605715727194,22.702528601933565,0.36152118032052916,1558,0,8.207444936431596,5.522818195033725,67.29034721291613,0.20876308631877366,0.14047740563630262,0.091796875,,
1.3149849999998695,1200,,,,-0.0625,-0.046875,-0.947265625,0.03386042621259685,1.1529605715727194,22.702401331772744,0.3614701811700931,1558,0,8.206241122392058,5.52280427086866,67.30004868853773,0.20876361265494833,0.14049801296073053,0.091796875,,
1.3227849999996832,1200,,,,0,0.0078125,-0.9609375,0.03386042621259685,1.1529605715727194,22.70255730048184,0.36118841905186916,1558,0,8.199900779795506,5.522798754518379,67.35201928450786,0.20876382117480657,0.1406066490967312,0.091796875,,
1.3300800000000745,1200,,,,-0.03125,-0.01171875,-1.001953125,0.03386042621259685,1.1529605715727194,22.702620169491613,0.36153699895398433,1558,0,8.207837164470194,5.523707503708098,67.29796648036508,0.2087294757730618,0.14047069264039688,0.091796875,,
1.338149999999907,1200,,,,0,-0.08984375,-1.01953125,0.03386042621259685,1.1529605715727194,22.70242617815548,0.3636177386063343,1558,0,8.25500486777814,5.525102108483623,66.93033131997076,0.20867678984654128,0.13966806683216917,0.091796875,,
1.3491800000001677,1200,,,,0,0.099609375,-1.009765625,0.03386042621259685,1.160041659924131,22.70240512064074,0.3642142822718728,1558,0,8.268540186859457,5.525652683741602,66.82742731931192,0.209937490884539,0.14029582413685238,0.091796875,,
1.3566749999998138,1200,,,,-0.03125,0.06640625,-0.95703125,0.03386042621259685,1.160041659924131,22.702378101890684,0.36497970129566315,1558,0,8.285907178329266,5.5259013151270135,66.6903598628199,0.20992804499576323,0.14000176866065697,0.091796875,,
1.3640599999995902,1200,,,,-0.0625,0.04296875,-0.953125,0.03386042621259685,1.160041659924131,22.70236151371818,0.3645935125554211,1560,0,8.277133727589518,5.530541166385001,66.81710539423187,0.20975192572020648,0.1401501652749013,0.091796875,,
1.3718799999998883,1200,,,,-0.125,0.02734375,-0.94140625,0.03386042621259685,1.160041659924131,22.702631986151193,0.3641894237235101,1560,0,8.26805846004333,5.532645507951355,66.91589730150942,0.20967214658104397,0.14030399827604167,0.091796875,,
1.37925,1200,,,,0,0.08203125,-0.99609375,0.033013912555633435,1.160041659924131,22.702633498458205,0.3645898911010612,1561,0,8.277150674910182,5.395102895661965,65.1806775973727,0.21501752280885775,0.1401498783198989,0.08984375,,
1.386904999999795,1200,,,,-0.0625,0.03125,-0.998046875,0.033013912555633435,1.160041659924131,22.70231099718764,0.36133133178904514,1561,0,8.203056267302896,5.396177511461294,65.78252465450316,0.2149747033822076,0.14141578725334575,0.08984375,,
1.3940299999997952,1200,,,,-0.0625,0.02734375,-0.970703125,0.033013912555633435,1.160041659924131,22.70247264378183,0.360534862413991,1561,0,8.185032851083278,5.397251443366447,65.9404982431088,0.21493192824097407,0.14172718436561937,0.08984375,,
1.4009049999997951,1200,,,,0.0625,-0.09375,-1.015625,0.033013912555633435,1.160041659924131,22.70245277861208,0.3608986442191705,1561,0,8.19328442825084,5.397703216355441,65.8796025406356,0.21491393902671763,0.1415844488352255,0.091796875,,
1.4083950000000187,1200,,,,-0.0625,0.080078125,-0.9609375,0.033013912555633435,1.160041659924131,22.702527896232308,0.36024779434288245,1561,0,8.178535600625448,5.3979210591909625,66.0010706412791,0.2149052657872691,0.1418397762840841,0.091796875,,
1.4152900000000372,1200,,,,0.0625,0.0859375,-0.96875,0.033013912555633435,1.160041659924131,22.702505075239905,0.3600715931041779,1561,0,8.174527169897317,5.396227573408329,66.01271806007237,0.21497270901631624,0.1419093283090406,0.08984375,,
1.4225550000001677,1200,,,,-0.125,0.109375,-0.9765625,0.033013912555633435,1.160041659924131,22.702569904932407,0.3610313969987855,1561,0,8.196340528240333,5.3954882820115735,65.82801511749693,0.2150021646403499,0.14153165744239518,0.091796875,,
1.4296699999999254,1200,,,,-0.0625,0.052734375,-0.9375,0.033013912555633435,1.160041659924131,22.702632955033447,0.36053017161288553,1561,0,8.18498415534256,5.395163969784298,65.91538685218748,0.21501508877597839,0.1417280275572605,0.091796875,,
1.4371749999998138,1200,,,,-0.125,0.06640625,-0.9453125,0.033013912555633435,1.160041659924131,22.702605880695423,0.3603437366836041,1561,0,8.180741835504953,5.395027219813788,65.94789724813242,0.21502053885173358,0.14180152402432192,0.091796875,,
1.4450150000001303,1200,,,,-0.03125,0.013671875,-0.966796875,0.033013912555633435,1.160041659924131,22.702673984013842,0.3607757411744393,1560,0,8.190574033224253,5.391643245223204,65.82741604376612,0.21515549289205751,0.14163130144707034,0.091796875,,
1.4529799999999813,1200,,,,0,0,-0.982421875,0.033013912555633435,1.160041659924131,22.70264085304358,0.36182890590729144,1559,0,8.214471701062935,5.3902997423547045,65.61955459238129,0.2152091192274545,0.14121926547924243,0.091796875,,
1.4605700000002981,1200,,,,-0.125,0.0546875,-1.05078125,0.033013912555633435,1.160041659924131,22.70261307497267,0.3621475942696522,1559,0,8.221696708736104,5.389805804899848,65.55588214745039,0.21522884161606384,0.14109516575714948,0.091796875,,
1.468345000000205,1200,,,,0,-0.009765625,-0.994140625,0.033013912555633435,1.160041659924131,22.70261573605204,0.36206711407813824,1559,0,8.21987056157729,5.389813141511307,65.57053546202155,0.21522854864665208,0.1411265118147473,0.091796875,,
1.4753599999998697,1200,,,,-0.0625,0.10546875,-0.984375,0.033013912555633435,1.160041659924131,22.70276301741775,0.3629440368169708,1559,0,8.239832456440631,5.390037797234726,65.41441013186652,0.21521957796275049,0.14078461741262582,0.091796875,,
1.4849449999998323,1200,,,,-0.03125,0.0625,-0.923828125,0.033013912555633435,1.160041659924131,22.702835504268368,0.3629285534985224,1559,0,8.239507249879015,5.39015159758413,65.41837313952574,0.2152150341085142,0.14079017406546546,0.091796875,,
1.4934100000001491,1200,,,,-0.03125,0.076171875,-1.02734375,0.033013912555633435,1.1568649171719847,22.702759000041386,0.3630264473296953,1559,0,8.241701944367291,5.390187346020574,65.40138653891073,0.2146242501248247,0.14036723543037521,0.091796875,,
1.5049199999999254,1200,,,,-0.03125,0.068359375,-0.927734375,0.033013912555633435,1.1568649171719847,22.70275393444891,0.36288750916541584,1559,0,8.23854582646751,5.390706245283348,65.43273969497058,0.21460359079743868,0.1404210089425479,0.091796875,,
1.513375,1200,,,,-0.125,0.0859375,-0.96484375,0.033013912555633435,1.1568649171719847,22.70297118662151,0.360695825839304,1559,0,8.188866941164369,5.390907967749838,65.83215976621192,0.21459556054244042,0.1412728922674974,0.091796875,,
1.521,1200,,,,-0.03125,-0.060546875,-1.0078125,0.033013912555633435,1.1568649171719847,22.70289192110438,0.36089694619996304,1559,0,8.193404364234384,5.390959974335766,65.79633733040482,0.21459349033926467,0.1411946567927123,0.091796875,,
1.5284599999999628,1200,,,,0,-0.02734375,-1,0.0332642632079327,1.1568649171719847,22.702767797426734,0.3601349654498234,1560,0,8.17606049634164,5.43274883520184,66.44702344891788,0.2129428310169624,0.14149417285863056,0.09375,,
1.5360699999998324,1200,,,,-0.03125,0.0390625,-0.9453125,0.0332642632079327,1.1568649171719847,22.702827404592355,0.3612024707319095,1560,0,8.200317351138862,5.433174818847048,66.25566531388554,0.21292613540778324,0.14107562764157158,0.09375,,
1.5444550000000745,1200,,,,0.0625,0.1015625,-0.98046875,0.0332642632079327,1.1568649171719847,22.70261718727455,0.3611674552790884,1560,0,8.199446477703246,5.433348508184699,66.26482071636913,0.2129193287397825,0.14109061145991347,0.09375,,
1.5524300000001676,1200,,,,-0.09375,0.14453125,-0.974609375,0.0332642632079327,1.1568649171719847,22.70268531664654,0.3609214364811123,1560,0,8.193885796462725,5.432775036659226,66.30279175973551,0.21294180402569643,0.1411863608925816,0.09375,,
1.5602999999998137,1200,,,,-0.125,0.01171875,-1,0.0332642632079327,1.1568649171719847,22.702748244052138,0.36235544038173495,1559,0,8.226464337849173,5.432237244957641,66.03368132241744,0.21296288527269686,0.1406272329959981,0.095703125,,
1.5671499999999068,1200,,,,-0.03125,0.091796875,-0.943359375,0.0332642632079327,1.1568649171719847,22.702975299259244,0.36180653412201047,1559,0,8.2140848072826,5.432032943569282,66.13071414545473,0.21297089490989568,0.1408391737258799,0.09375,,
1.5743499999996275,1200,,,,-0.0625,0.15234375,-0.9296875,0.0332642632079327,1.1568649171719847,22.70310721118715,0.36127661643228953,1559,0,8.202101755757207,5.431943517904545,66.22623907453676,0.21297440103321674,0.14104493599582082,0.09375,,
1.5824099999996835,1200,,,,-0.0625,0.01171875,-1.013671875,0.0332642632079327,1.1568649171719847,22.703151179314577,0.3623070467392245,1560,0,8.225511655451607,5.432861835572959,66.04892270710275,0.2129384019297409,0.14064352050431436,0.09375,,
1.5904849999998696,1200,,,,-0.0625,-0.03125,-0.97265625,0.0332642632079327,1.1568649171719847,22.703061245986223,0.3635069058939003,1560,0,8.252719547848168,5.433224067179761,65.83555924418191,0.21292420538298945,0.14017984138012157,0.09375,,
1.5985599999995903,1200,,,,0,0.00390625,-0.970703125,0.0332642632079327,1.1568649171719847,22.70320499485475,0.36887786066464523,1560,0,8.374709688732908,5.433364998622895,64.87824892524677,0.21291868252274535,0.1381379128554626,0.09375,,
1.6073449999997391,1200,,,,0,0.052734375,-0.984375,0.0332642632079327,1.1568649171719847,22.703029928344982,0.3726913602460034,1561,0,8.461223105700617,5.436465337726452,64.25153042074638,0.2127972580168771,0.13672549496922792,0.09375,,
1.6154150000000373,1200,,,,-0.09375,0.103515625,-0.98046875,0.0332642632079327,1.1568649171719847,22.70307729479841,0.3706153510484648,1562,0,8.414108961492143,5.440391308063395,64.65796120494505,0.2126436963196663,0.13749107867113103,0.09375,,
1.6244849999998696,1200,,,,0,-0.02734375,-0.94921875,0.0332642632079327,1.1568649171719847,22.703054962676593,0.3684091542111637,1562,0,8.364013276809246,5.442036189335257,65.06489180767198,0.21257942375302277,0.13831457207027684,0.09375,,
1.632375,1200,,,,-0.09375,0.013671875,-0.953125,0.0332642632079327,1.1568649171719847,22.703035727584645,0.3671559736495389,1563,0,8.335555187361608,5.445672515730416,65.33065156820219,0.2124374746792531,0.1387867863829906,0.09375,,
1.6395499999998138,1200,,,,-0.0625,0.005859375,-1.001953125,0.0332642632079327,1.1506495266118493,22.703081859738774,0.3672532438348871,1565,0,8.337780458038047,5.453092398133503,65.40220656537488,0.21100862457524033,0.13800429651545504,0.09375,,
1.656964999999851,1200,,,,-0.03125,0.138671875,-0.978515625,0.0332642632079327,1.1506495266118493,22.703147137502143,0.3655080581838094,1567,0,8.29818322488972,5.457247077825101,65.76435985959597,0.21084798071309288,0.13866282479284991,0.095703125,,
1.6651099999998695,1200,,,,-0.09375,0.080078125,-0.96875,0.0332642632079327,1.1506495266118493,22.703364220615164,0.36519963070832945,1565,0,8.291260229205358,5.452963816125313,65.76761150153804,0.21101360020200188,0.1387786047962613,0.09375,,
1.6746299999998882,1200,,,,0,0.05859375,-0.87890625,0.0332642632079327,1.1506495266118493,22.703397510140654,0.36518134065264163,1565,0,8.29085714012301,5.451681087935794,65.75533742527988,0.2110632496750699,0.13878535200460315,0.09375,,
1.6828449999997392,1200,,,,-0.125,0.04296875,-0.953125,0.03279905129633962,1.1506495266118493,22.70329390842275,0.3649466478495371,1565,0,8.2854910070217,5.3749745348792075,64.87213045459927,0.2140753447565325,0.1388752369215909,0.095703125,,
1.6910499999998136,1200,,,,-0.03125,0.03515625,-1.01953125,0.03279905129633962,1.1506495266118493,22.70322196393366,0.36445899293982487,1564,0,8.274393413464574,5.3707421159231945,64.90798597010883,0.21424404705643932,0.13906149600518697,0.09375,,
1.6983900000001304,1200,,,,0.0625,0.02734375,-1,0.03279905129633962,1.1506495266118493,22.703255363617174,0.3646619683161061,1563,0,8.279013788079832,5.367671685872217,64.83467503823486,0.21436659951471584,0.1389838881858804,0.09375,,
1.7056499999999069,1200,,,,-0.0625,0.029296875,-1.009765625,0.03279905129633962,1.1506495266118493,22.703115832191184,0.36485623562021985,1562,0,8.28337337938309,5.366326967238449,64.78431819329761,0.21442031647281118,0.1389107400948217,0.09375,,
1.7135349999996834,1200,,,,-0.0625,0.07421875,-0.94921875,0.03279905129633962,1.1506495266118493,22.703159481596874,0.3647489079938658,1562,0,8.280952628923039,5.364741315233461,64.7841082497674,0.2144836925024736,0.13895134752890073,0.09375,,
1.721589999999851,1200,,,,-0.0625,0.05859375,-0.96484375,0.03279905129633962,1.1506495266118493,22.703266018446367,0.36454087204651114,1561,0,8.276268392668362,5.3631730003092155,64.80182548284986,0.214546412458727,0.13902999178121953,0.09375,,
1.7296450000000185,1200,,,,-0.03125,0.076171875,-0.935546875,0.03279905129633962,1.1506495266118493,22.703498902144375,0.3657303640328937,1561,0,8.303358918301665,5.362553825167202,64.58294622610433,0.214571184574725,0.1385763927506097,0.09375,,
1.7374500000001862,1200,,,,0,0.0703125,-1,0.03279905129633962,1.1506495266118493,22.70339402224403,0.37073103307032435,1561,0,8.416852720069155,5.362312227307675,63.709232009273144,0.21458085203471464,0.13670781287027145,0.09375,,
1.7467849999996834,1200,,,,-0.125,-0.041015625,-0.947265625,0.03279905129633962,1.1506495266118493,22.703215877000396,0.3768058906969622,1562,0,8.554705480218548,5.3651566805861695,62.71585495248523,0.21446708737798414,0.1345048674407963,0.09375,,
1.7556049999995158,1200,,,,-0.03125,0,-1.041015625,0.03279905129633962,1.1506495266118493,22.70302946044816,0.37485322859479364,1563,0,8.51030389213171,5.367812782383273,63.07427855010137,0.2143609647467937,0.13520663200707725,0.09375,,
1.7633700000001118,1200,,,,-0.0625,0.109375,-0.9453125,0.03279905129633962,1.1506495266118493,22.703209698934284,0.3752175854938116,1563,0,8.518643526193808,5.368653210884737,63.02239545975568,0.2143274079016599,0.13507426658642777,0.09375,,
1.7702700000000187,1200,,,,-0.03125,0.07421875,-0.978515625,0.03279905129633962,1.1506495266118493,22.70307530956416,0.37441927568131655,1566,0,8.500469013145395,5.379411752624111,63.28370522032629,0.21389876431201893,0.13536306347713856,0.09375,,
1.7774699999997392,1200,,,,-0.0625,0.06640625,-0.96484375,0.03279905129633962,1.1506495266118493,22.703115695864764,0.3733384072796121,1568,0,8.475945054178913,5.384321387669255,63.52473208889682,0.21370372304427732,0.1357547175278752,0.09375,,
1.7854249999998137,1200,,,,-0.0625,-0.01171875,-0.9921875,0.03279905129633962,1.1506495266118493,22.703223440130415,0.37355824765066753,1568,0,8.480976364316678,5.386571739491861,63.513580372132814,0.21361444389124487,0.13567418150735036,0.09375,,
1.7934550000000744,1200,,,,-0.03125,0.037109375,-0.97265625,0.03279905129633962,1.1479671196322374,22.703459986592208,0.3723740265882052,1569,0,8.45417881269154,5.3874773660627895,63.725614106659634,0.2130806389765273,0.13578694573018635,0.09375,,
1.8013650000002235,1200,,,,0,0.02734375,-1.015625,0.03279905129633962,1.1479671196322374,22.70348644518588,0.3711558090030469,1567,0,8.426530878752676,5.383539145445493,63.88796555673909,0.21323651386531192,0.13623247053266163,0.09375,,
1.8102800000002608,1200,,,,-0.03125,0.109375,-0.97265625,0.03279905129633962,1.1479671196322374,22.703679822754665,0.3696769981443571,1567,0,8.393028203706555,5.382095897483309,64.12579306127496,0.21329369477958052,0.13677627332710124,0.09375,,
1.8173299999996089,1200,,,,-0.09375,0.068359375,-0.9375,0.03279905129633962,1.1479671196322374,22.703771717842375,0.3691682140913028,1567,0,8.381510858212499,5.3813696447631205,64.20524575817097,0.21332248022571382,0.13696422268634523,0.09375,,
1.8243299999996088,1200,,,,-0.0625,0.01953125,-0.9453125,0.03279905129633962,1.1479671196322374,22.703781518172246,0.36805425796403757,1566,0,8.356223459648517,5.378719690575708,64.36782975645735,0.21342757861943262,0.13737870045908557,0.09375,,
1.8319850000003353,1200,,,,-0.0625,0.0859375,-0.99609375,0.03220224279476403,1.1479671196322374,22.70379096443399,0.36754115299368073,1565,0,8.344577508395579,5.277310691283704,63.24239526775488,0.2175288109393072,0.13757043043548386,0.09375,,
1.8395749999997206,1200,,,,-0.0625,0.033203125,-0.99609375,0.03220224279476403,1.1479671196322374,22.70380125810143,0.3676221215747726,1564,0,8.346419586315239,5.2756519724422155,63.20856407808873,0.21759720421830975,0.1375400682604599,0.09375,,
1.84775,1200,,,,0,-0.05078125,-0.98046875,0.03220224279476403,1.1479671196322374,22.703810980584585,0.3666395344012965,1564,0,8.324114687056575,5.275000920800947,63.37011344885973,0.21762406052015099,0.13790861404363483,0.09375,,
1.8552349999998696,1200,,,,0,0.01171875,-0.97265625,0.03220224279476403,1.1479671196322374,22.70394985132143,0.36718598307162187,1563,0,8.336572145766262,5.2701074781608055,63.21672008605162,0.21782613056553107,0.13770253523388912,0.09375,,
1.8633300000000745,1200,,,,-0.0625,0.103515625,-0.93359375,0.03220224279476403,1.1479671196322374,22.704050091836343,0.3672838542996801,1562,0,8.338831025942659,5.268160110069073,63.17624249345592,0.217906649693148,0.1376652334195087,0.09375,,
1.871339999999851,1200,,,,-0.03125,0.1015625,-0.984375,0.03220224279476403,1.1479671196322374,22.704145609018468,0.36546382466746935,1562,0,8.29754389007902,5.26738885055744,63.48130145904268,0.21793855593379055,0.13835023168781393,0.09375,,
1.8794699999997393,1200,,,,-0.125,0.11328125,-0.91796875,0.03220224279476403,1.1479671196322374,22.7041384304809,0.36543347580957813,1561,0,8.296852221912456,5.265450183722271,63.46322729258597,0.21801879793319257,0.1383617652729057,0.09375,,
1.8874500000001864,1200,,,,-0.0625,0.064453125,-0.96484375,0.03220224279476403,1.1479671196322374,22.704131606999297,0.3630417595777609,1561,0,8.242547888290082,5.263056392722426,63.8522998477143,0.2181179592184509,0.13927333334188044,0.09375,,
1.8952199999997392,1200,,,,-0.0625,0.046875,-0.96875,0.03220224279476403,1.1479671196322374,22.70424806176904,0.3639222499062333,1560,0,8.262581037068225,5.262156445076789,63.686594073562475,0.2181552623176496,0.13893565636235689,0.09375,,
1.9046999999997205,1200,,,,-0.0625,0.001953125,-0.9453125,0.03220224279476403,1.1479671196322374,22.70423371236702,0.3596996984000144,1560,0,8.166706018741857,5.261734985165565,64.42909752218772,0.21817273634432496,0.1405667250661106,0.09375,,
1.9128399999998509,1200,,,,-0.03125,0.001953125,-0.96875,0.03220224279476403,1.1479671196322374,22.704416406170015,0.35994950852955593,1559,0,8.172443526851284,5.258378055754922,64.34278852436309,0.21831201702507272,0.1404680394377141,0.09375,,
1.9205849999999627,1200,,,,0,-0.03515625,-1.05078125,0.03220224279476403,1.1479671196322374,22.704395945527747,0.35976355087430933,1559,0,8.168214105819334,5.257032271093561,64.35962871428968,0.21836790425359873,0.14054077240879173,0.09375,,
1.9276149999997578,1200,,,,-0.03125,0.0859375,-0.970703125,0.03220224279476403,1.1479671196322374,22.70437858691184,0.35932032721913715,1559,0,8.158144743156333,5.256534563942283,64.43296520758425,0.21838858009359075,0.14071423782904058,0.091796875,,
1.9362999999998138,1200,,,,-0.03125,0.103515625,-0.974609375,0.03220224279476403,1.1479671196322374,22.70414159662259,0.35914965551324507,1559,0,8.154184633150942,5.256782087229546,64.46729285302213,0.21837829694729546,0.14078257622045523,0.091796875,,
1.9427199999997393,1200,,,,-0.0625,0.01953125,-0.9453125,0.03220224279476403,1.1468853470680997,22.704078919602505,0.3597610006229681,1559,0,8.168042150339033,5.2568609402302,64.35888605217349,0.21816923827889526,0.14041129146480907,0.091796875,,
1.949864999999758,1200,,,,-0.0625,0.04296875,-0.98046875,0.03220224279476403,1.1468853470680997,22.70407554936354,0.35792848193400933,1559,0,8.126435295098752,5.2568959256188315,64.6888301539716,0.21816778633164413,0.14113018875075692,0.091796875,,
1.9568500000000932,1200,,,,-0.0625,0.18359375,-1,0.03220224279476403,1.1468853470680997,22.704072321661375,0.3586920096897866,1559,0,8.143769329198978,5.256911231707884,64.5513277599791,0.2181671511115655,0.14082979277863553,0.09375,,
1.9658600000003352,1200,,,,0,0.06640625,-0.96875,0.03220224279476403,1.1468853470680997,22.70422201786873,0.35884398659607447,1559,0,8.147273541454386,5.257718033554394,64.53346640201096,0.21813367315416246,0.14076922067641381,0.091796875,,
1.9745600000000558,1200,,,,-0.08203125,-0.0078125,-1.005859375,0.03220224279476403,1.1468853470680997,22.704384942720644,0.36040179477738304,1559,0,8.18270108267311,5.258231655766012,64.2603414525349,0.21811236593398492,0.14015975109938114,0.09375,,
1.9828649999997578,1200,,,,0,0.08984375,-0.984375,0.03153503712869957,1.1468853470680997,22.704295070163656,0.36063452312062405,1559,0,8.187952625418406,5.149420951632759,62.89021428442404,0.22272122590879848,0.1400698562309395,0.09375,,
1.9906949999998325,1200,,,,0,-0.01171875,-0.99609375,0.03153503712869957,1.1468853470680997,22.704466809224343,0.3592213834192337,1559,0,8.155929977005643,5.146831367627997,63.10538935643974,0.22283328618101997,0.14061981286028227,0.09375,,
1.9989150000000373,1200,,,,0,-0.0078125,-1.03515625,0.03153503712869957,1.1468853470680997,22.704378284379708,0.3588577370531334,1558,0,8.147641812330805,5.144365743453896,63.1393213146448,0.2229400871288144,0.14076285795141122,0.09375,,
2.0071149999997577,1200,,,,-0.03125,0.083984375,-0.9765625,0.03153503712869957,1.1468853470680997,22.70435884293168,0.3583841071125784,1557,0,8.136881371487643,5.143372478526643,63.21061158086289,0.22298314031431643,0.14094900671489302,0.091796875,,
2.0145200000000187,1200,,,,-0.0625,0.1796875,-0.986328125,0.03153503712869957,1.1468853470680997,22.704280940332023,0.3564831870357693,1557,0,8.093694428965033,5.14301755265423,63.54351029424624,0.22299852865098824,0.14170109300935835,0.09375,,
2.0215449999999255,1200,,,,-0.0625,0.03515625,-0.98046875,0.03153503712869957,1.1468853470680997,22.704440280138215,0.3573064976544363,1558,0,8.112444037700493,5.144136537743236,63.410440969912244,0.2229500206017559,0.1413735912060836,0.09375,,
2.029779999999795,1200,,,,-0.0625,0.04296875,-0.955078125,0.03153503712869957,1.1468853470680997,22.70451776795499,0.35660411805674064,1558,0,8.096524534545187,5.144668219547686,63.541686282763564,0.22292697956894345,0.1416515619973385,0.09375,,
2.037439999999944,1200,,,,0,0.078125,-0.8984375,0.03153503712869957,1.1468853470680997,22.70436371877624,0.35742311033274016,1558,0,8.115064298490822,5.1448732621194235,63.399044947508656,0.22291809508940982,0.14132794330186502,0.091796875,,
2.045739999999758,1200,,,,-0.03125,0.056640625,-0.98828125,0.03153503712869957,1.1468853470680997,22.704345589797786,0.3576856152916227,1558,0,8.12101782208046,5.144042074585393,63.34233204856557,0.22295411476791588,0.14122433569223322,0.091796875,,
2.053334999999963,1200,,,,-0.1875,-0.04296875,-0.97265625,0.03153503712869957,1.1468853470680997,22.704393256393168,0.35740381411559463,1557,0,8.114636747015304,5.143277196548379,63.38271640366601,0.22298727119700398,0.14133538971907067,0.09375,,
2.0605300000002607,1200,,,,0,-0.0546875,-0.951171875,0.03153503712869957,1.1468853470680997,22.70446296880673,0.3581975776263536,1557,0,8.13268363673382,5.142988101362412,63.2385118011045,0.22299980565078154,0.14102175841290962,0.09375,,
2.067584999999963,1200,,,,-0.03125,0.05078125,-0.99609375,0.03153503712869957,1.1468853470680997,22.704355807691638,0.35867578614290285,1557,0,8.14350266819198,5.142862177108982,63.15295010827079,0.22300526585622252,0.14083440428499683,0.09375,,
2.076910000000149,1200,,,,0,0.03125,-1.015625,0.03153503712869957,1.1468853470680997,22.704142353817055,0.358871911177798,1558,0,8.147878958167116,5.145067040831892,63.14609074641048,0.22290969932291943,0.14075876101700144,0.091796875,,
2.085435000000056,1200,,,,-0.0625,0.076171875,-0.966796875,0.03153503712869957,1.1468853470680997,22.70394810068474,0.35830207209619774,1558,0,8.134871649239876,5.146041555184779,63.2590380902399,0.22286748654654392,0.1409838282052385,0.091796875,,
2.0926450000000187,1200,,,,-0.03125,0.0625,-0.958984375,0.03153503712869957,1.1437669631826084,22.703783024779835,0.3571238291048496,1558,0,8.108061928975058,5.146298521952111,63.47137660063057,0.22225041130119885,0.14106539555343434,0.091796875,,
2.099450000000186,1200,,,,-0.125,0.078125,-0.9375,0.03153503712869957,1.1437669631826084,22.703792432174822,0.35708253393213146,1559,0,8.107127731550136,5.146838611590886,63.48535242094646,0.222227089189624,0.1410816507468438,0.091796875,,
2.106764999999665,1200,,,,-0.0625,0.14453125,-0.99609375,0.03153503712869957,1.1437669631826084,22.70362816656815,0.35704297043078365,1559,0,8.106170840147499,5.147073952039112,63.49574976321936,0.2222169282664927,0.14109830470360488,0.09375,,
2.117564999999944,1200,,,,-0.125,0.11328125,-0.98828125,0.03153503712869957,1.1437669631826084,22.703742778927065,0.3563719190788685,1559,0,8.09097638439924,5.147182565924341,63.616334066293554,0.2222122391295457,0.1413632803808429,0.09375,,
2.133020000000019,1200,,,,-0.03125,-0.009765625,-0.974609375,0.031282931295313635,1.1437669631826084,22.703710552804893,0.35821910882678304,1558,0,8.132902961286998,5.104118539496975,62.75887667408328,0.22408706896829433,0.14063452725637982,0.09375,,
2.140850000000093,1200,,,,-0.0625,-0.0546875,-1.01171875,0.031282931295313635,1.1437669631826084,22.703724468196107,0.35853736704411693,1558,0,8.140133592922126,5.103529979636672,62.6958995374991,0.22411291160163516,0.14050960590832534,0.09375,,
2.149850000000093,1200,,,,0,0.037109375,-1.001953125,0.031282931295313635,1.1437669631826084,22.703739728926735,0.3591263741589376,1558,0,8.15351172869768,5.103276224039385,62.589917005669236,0.22412405540480132,0.14027906026760528,0.09375,,
2.1672949999999256,1200,,,,-0.0625,0.0859375,-0.96875,0.031282931295313635,1.1437669631826084,22.703857883326112,0.3595665411805308,1558,0,8.163547650561897,5.103154727953079,62.51148332063485,0.22412939135815377,0.14010660709549272,0.091796875,,
2.175774999999907,1200,,,,0,-0.046875,-0.94921875,0.031282931295313635,1.1437669631826084,22.70379572887849,0.3593891979464361,1558,0,8.159498937341361,5.103142759574011,62.54235460733801,0.22412991700786464,0.1401761274761911,0.091796875,,
2.1834849999998696,1200,,,,-0.0625,0.109375,-0.9453125,0.031282931295313635,1.1437669631826084,22.703608253467937,0.3589085107657985,1558,0,8.148518227262269,5.103438947028208,62.63026975817243,0.22411690921640928,0.14036502481591553,0.091796875,,
2.1916749999998135,1200,,,,-0.125,0.09765625,-0.9765625,0.031282931295313635,1.1437669631826084,22.703562721600367,0.35898597923155645,1558,0,8.150260695658769,5.10370270115329,62.62011599054462,0.2241053270842265,0.14033501576113205,0.09375,,
2.19975,1200,,,,0,-0.025390625,-1.001953125,0.031282931295313635,1.1437669631826084,22.703584425372778,0.3588463282758224,1558,0,8.147097909745169,5.10380923211345,62.645733347681,0.22410064937105473,0.1403894952354125,0.09375,,
2.207864999999758,1200,,,,-0.0625,0.015625,-0.970703125,0.031282931295313635,1.1437669631826084,22.703473386245278,0.35871423888188403,1558,0,8.144059175722084,5.103850826094578,62.66961862592373,0.22409882305627826,0.14044187775455322,0.09375,,
2.215035000000149,1200,,,,-0.0625,-0.001953125,-1.037109375,0.031282931295313635,1.1437669631826084,22.703307955459323,0.3585930781001349,1559,0,8.141249082803439,5.105637082376059,62.71319094216845,0.22402041992579755,0.140490353697513,0.09375,,
2.221910000000149,1200,,,,0,0.05078125,-1.046875,0.031282931295313635,1.1437669631826084,22.703165672370517,0.35792861500401746,1559,0,8.126112645318331,5.106318884711218,62.83839650749985,0.22399050842812626,0.14075204382523085,0.09375,,
2.2297450000001118,1200,,,,-0.0625,0.14453125,-0.99609375,0.031282931295313635,1.1437669631826084,22.703261271271085,0.35842562468482153,1559,0,8.137430603538053,5.106621274541992,62.75471366012874,0.2239772447752534,0.14055627862255596,0.09375,,
2.23748499999987,1200,,,,0,0.087890625,-0.935546875,0.031282931295313635,1.1437669631826084,22.703199549119674,0.3573597005068187,1559,0,8.113208591419948,5.106758495699351,62.943759403646524,0.22397122639455733,0.14097590987518663,0.09375,,
2.2459649999998508,1200,,,,-0.0625,0.060546875,-0.9765625,0.031282931295313635,1.1424500347851854,22.703336954133828,0.35666274066042314,1559,0,8.097434380198434,5.106812805934504,63.067047735796,0.22371096772091817,0.14108790280276265,0.09375,,
2.2538250000001865,1200,,,,-0.125,0.11328125,-0.97265625,0.031282931295313635,1.1424500347851854,22.703238484304737,0.3572786153532396,1559,0,8.111381609706779,5.106834258432567,62.958870685128275,0.22371002796864525,0.14084530721844365,0.09375,,
2.2618449999997394,1200,,,,0,0.06640625,-0.93359375,0.031282931295313635,1.1424500347851854,22.703275831669337,0.3578624341536382,1559,0,8.124649552382655,5.106842690860958,62.85615961568845,0.22370965857822042,0.14061530007163786,0.09375,,
2.2721599999996833,1200,,,,-0.09375,-0.04296875,-0.94921875,0.031282931295313635,1.1424500347851854,22.703311326890816,0.35820470031631996,1558,0,8.132432830037038,5.105497562919201,62.779461811994445,0.22376859859511125,0.140480721902253,0.09375,,
2.280064999999944,1200,,,,-0.03125,-0.0234375,-0.955078125,0.03176483565256728,1.1424500347851854,22.703180199132863,0.3574940633862772,1558,0,8.116252141178878,5.183524589941929,63.865987647705424,0.22040023442774564,0.14076078649513785,0.095703125,,
2.287304999999702,1200,,,,0.0625,-0.03515625,-0.96484375,0.03176483565256728,1.1424500347851854,22.703274704816128,0.35800814617587384,1558,0,8.127957289192832,5.183370960288079,63.77212349749968,0.22040676685847133,0.14055807555783054,0.09375,,
2.2966400000001306,1200,,,,-0.03125,-0.033203125,-0.9921875,0.03176483565256728,1.1424500347851854,22.703505891465145,0.3572816031467587,1558,0,8.111544981954548,5.183300822556713,63.9002906855329,0.22040974928822687,0.14084247049443124,0.095703125,,
2.3041999999997205,1200,,,,-0.0625,0.171875,-0.9921875,0.03176483565256728,1.1424500347851854,22.703460890012188,0.35815398338334126,1558,0,8.131334954345764,5.183271721482184,63.74441282500608,0.22041098676156143,0.14049968931295923,0.095703125,,
2.3115750000001865,1200,,,,0,0.0859375,-0.984375,0.03176483565256728,1.1424500347851854,22.703484736088747,0.3583538555597803,1558,0,8.135881289820023,5.1832621305416575,63.708674523400255,0.2204113946029193,0.14042117800006124,0.095703125,,
2.3192949999999253,1200,,,,-0.03125,-0.015625,-0.93359375,0.03176483565256728,1.1424500347851854,22.703507187677857,0.3585423031895988,1558,0,8.14016775755163,5.182190523822174,63.66196223676912,0.22045697269010486,0.14034723470229898,0.095703125,,
2.326899999999907,1200,,,,-0.1875,0.09765625,-0.97265625,0.03176483565256728,1.1424500347851854,22.70353132089334,0.3577896447697989,1557,0,8.123088406322431,5.180556618770913,63.775701551379626,0.22052650301044904,0.14064232440163815,0.095703125,,
2.3340149999996647,1200,,,,0,0.080078125,-0.974609375,0.03176483565256728,1.1424500347851854,22.703551504905505,0.358280462255994,1557,0,8.134238928030314,5.1799551415768725,63.68088259280068,0.22055210973070372,0.14044953005355434,0.09765625,,
2.3418700000001116,1200,,,,-0.1875,0.109375,-0.99609375,0.03176483565256728,1.1424500347851854,22.70331047102372,0.357962138967414,1557,0,8.126925577848938,5.1796716653182795,63.73470035749056,0.2205641802422981,0.1405759193733841,0.09765625,,
2.3489799999999814,1200,,,,0,-0.05078125,-0.953125,0.03176483565256728,1.1424500347851854,22.703339658691334,0.36008946884815746,1557,0,8.175233518777471,5.179569395852514,63.356837256767065,0.22056853523383435,0.13974524790773538,0.09765625,,
2.357214999999851,1200,,,,-0.09375,-0.01171875,-0.978515625,0.03176483565256728,1.1424500347851854,22.703371889332935,0.36116908609839155,1557,0,8.19975607662229,5.179520634731681,63.16676479558488,0.22057061171344647,0.13932731950921554,0.09765625,,
2.364135000000242,1200,,,,0,0.01953125,-1.00390625,0.03176483565256728,1.1424500347851854,22.703402322638105,0.3609270169824931,1557,0,8.194271275663176,5.179501120728709,63.20880706148605,0.22057144272312715,0.13942057766359767,0.09765625,,
2.3717150000003167,1200,,,,0,-0.00390625,-1.0390625,0.03176483565256728,1.1424500347851854,22.703369991029426,0.36186315904443106,1557,0,8.215513185908444,5.179494002165449,63.04528865037319,0.22057174587084152,0.13906009386543966,0.09765625,,
2.378810000000056,1200,,,,-0.03125,0.013671875,-1.00390625,0.03176483565256728,1.1424500347851854,22.70339719160491,0.36133700340360686,1557,0,8.203577508296382,5.1807649068816355,63.152507569316704,0.22051763693574736,0.13926241735752617,0.09765625,,
2.3859499999997205,1200,,,,0.0625,0.0859375,-0.95703125,0.03176483565256728,1.1424500347851854,22.703423236805175,0.36111390076279254,1558,0,8.198521725711343,5.181319409076912,63.19821526883075,0.2204940372492343,0.13934829631570694,0.09765625,,
2.3941099999998694,1200,,,,-0.0625,0.14453125,-0.98828125,0.03176483565256728,1.1479562098190574,22.703451925144083,0.3615155256406359,1558,0,8.20765035657537,5.1815807719726825,63.13110996281145,0.22154555922941224,0.1398641706148458,0.09765625,,
2.401649999999907,1200,,,,-0.0625,-0.0234375,-0.87890625,0.03176483565256728,1.1479562098190574,22.703350270412013,0.36125892010371435,1558,0,8.201787801425414,5.182131841669978,63.18295434038612,0.22152199999780797,0.13996414411252514,0.09765625,,
2.408464999999851,1200,,,,-0.09375,0.06640625,-0.98828125,0.03176483565256728,1.1479562098190574,22.70337820455741,0.3599214504821506,1558,0,8.171432814229146,5.182763585064776,63.4253955565771,0.2214949979827625,0.1404840786085996,0.09765625,,
2.415564999999944,1200,,,,-0.0625,0.1171875,-0.95703125,0.03176483565256728,1.1479562098190574,22.70357927445158,0.3597582210328345,1558,0,8.167799290854632,5.183041983459138,63.457019435608764,0.22148310075098346,0.1405465742901405,0.09765625,,
2.426100000000093,1200,,,,-0.03125,0.044921875,-1.013671875,0.03176483565256728,1.1479562098190574,22.70350256060917,0.3595839252700502,1558,0,8.163814568122481,5.183170260011254,63.48956381554955,0.22147761933959023,0.14061517446776908,0.09765625,,
2.4343549999999814,1200,,,,-0.09375,-0.00390625,-1.00390625,0.03204785879291807,1.1479562098190574,22.703800296283738,0.3597888617192549,1557,0,8.168574465301209,5.226234509884518,63.979762100287175,0.2196526404714325,0.14053323682062163,0.099609375,,
2.441844999999739,1200,,,,-0.03125,0.025390625,-0.974609375,0.03204785879291807,1.1479562098190574,22.70389816001682,0.35962792330987514,1557,0,8.164955746325743,5.225456390993796,63.99858803086922,0.21968534878553164,0.14059552133343056,0.09765625,,
2.449055000000168,1200,,,,0.0625,-0.01953125,-1.05078125,0.03204785879291807,1.1479562098190574,22.70390254023568,0.3600372995939797,1557,0,8.17425176083135,5.2251318574395125,63.92183664414195,0.21969899346838567,0.1404356317136856,0.099609375,,
2.4560200000000187,1200,,,,-0.125,0.03515625,-1.0234375,0.03204785879291807,1.1479562098190574,22.703964022257214,0.35987135328395486,1557,0,8.170506257599927,5.224420973089495,63.94243891839525,0.2197288878005951,0.14050000986796476,0.099609375,,
2.463725000000093,1200,,,,0.03125,0.013671875,-0.97265625,0.03204785879291807,1.1479562098190574,22.70396580011144,0.36000832863031185,1557,0,8.17361678097788,5.223780465376545,63.9102689219983,0.21975582960037535,0.14044654166936826,0.09765625,,
2.471875,1200,,,,-0.03125,0.130859375,-0.97265625,0.03204785879291807,1.1479562098190574,22.703967509886077,0.3601399790270138,1556,0,8.176606382840374,5.22352573757183,63.88378616994513,0.21976654610161603,0.14039519038463028,0.09765625,,
2.4793199999998325,1200,,,,-0.125,0.1640625,-1.0546875,0.03204785879291807,1.1479562098190574,22.70384047882909,0.3605767957335211,1556,0,8.186478050701204,5.223426488207347,63.805539523311126,0.2197707218452748,0.14022589478765296,0.099609375,,
2.486310000000056,1200,,,,-0.03125,0.029296875,-0.9609375,0.03204785879291807,1.1479562098190574,22.70384737657287,0.3603867780546017,1557,0,8.182166405486518,5.224244771711722,63.84916307994697,0.21973629873451164,0.14029978772483778,0.09765625,,
2.4930349999996833,1200,,,,-0.125,0.16796875,-0.91796875,0.03204785879291807,1.1479562098190574,22.704023917910447,0.3596539543668045,1557,0,8.165591982115002,5.2245989231726195,63.9831004857455,0.21972140382442315,0.14058456659767132,0.099609375,,
2.503555000000168,1200,,,,-0.0625,0.08203125,-0.982421875,0.03204785879291807,1.1479562098190574,22.70393403378483,0.36094377979496123,1557,0,8.194843766369758,5.224759004639717,63.756663990120686,0.2197146717771372,0.1400827450219459,0.099609375,,
2.5111450000000186,1200,,,,0,-0.0390625,-0.953125,0.03204785879291807,1.1479562098190574,22.703876875344086,0.3612495493559193,1557,0,8.201765289850329,5.224839442698882,63.70384006434093,0.2197112892001295,0.13996452827535205,0.099609375,,
2.5199849999998696,1200,,,,-0.0625,0.001953125,-0.96484375,0.03204785879291807,1.1479562098190574,22.703782850997023,0.36230007418898225,1557,0,8.225582211286763,5.22486321167248,63.51967650998812,0.21971028968844458,0.13955926526925777,0.099609375,,
2.5280049999998884,1200,,,,0,-0.0078125,-0.970703125,0.03204785879291807,1.1479562098190574,22.70358068388876,0.3626685594331653,1557,0,8.233874900600574,5.224872740386655,63.45581883938455,0.21970988899800564,0.13941870913478735,0.09765625,,
2.5350800000000744,1200,,,,0,-0.046875,-1.03125,0.03204785879291807,1.1479562098190574,22.703512094759056,0.3606919609422409,1557,0,8.188974297734527,5.224875865092687,63.80378879120606,0.2197097576018092,0.14018314969392914,0.09765625,,
2.5428700000001117,1200,,,,-0.03125,0.033203125,-0.99609375,0.03204785879291807,1.1644736701663703,22.7037327394579,0.36174924200215947,1557,0,8.213058109118508,5.224877319593661,63.61670951521414,0.2228710070951353,0.14178320117734453,0.09765625,,
2.550154999999795,1200,,,,0.0625,0.0625,-0.99609375,0.03204785879291807,1.1644736701663703,22.70380076582927,0.3611421534889647,1557,0,8.19929950095599,5.224877848057265,63.72346622352404,0.22287098455313165,0.1420211165637503,0.09765625,,
2.558299999999814,1200,,,,-0.09375,0.107421875,-0.9765625,0.03204785879291807,1.1644736701663703,22.703710177645352,0.36187438282427775,1557,0,8.215891108356685,5.2248781033426015,63.59478277442341,0.22287097366374947,0.1417343115687039,0.09765625,,
2.566895000000019,1200,,,,-0.03125,0.0625,-0.953125,0.03204785879291807,1.1644736701663703,22.70365427635488,0.36273177999581063,1557,0,8.235336928071703,5.225118753687097,63.4475407542379,0.2228607090211416,0.14139963918137236,0.09765625,,
2.5765449999999257,1200,,,,-0.125,0.05859375,-0.953125,0.03204785879291807,1.1644736701663703,22.703669544834916,0.36244254905088863,1557,0,8.228775862638996,5.225414815951773,63.50172739151465,0.22284808214872212,0.14151238162330013,0.09765625,,
2.584714999999851,1200,,,,-0.0625,0.0625,-0.96875,0.031788445974004445,1.1644736701663703,22.703625733381113,0.36160678242088656,1557,0,8.209785050735984,5.183270387127043,63.13527522456117,0.22466002797353754,0.14183972698066905,0.09765625,,
2.5989199999999255,1200,,,,-0.0625,0.0234375,-0.99609375,0.031788445974004445,1.1644736701663703,22.703394342279406,0.3627874701499287,1557,0,8.23650699725175,5.183746769023244,62.936227344344985,0.22463938190904106,0.1413795521032055,0.09765625,,
2.6074050000002607,1200,,,,-0.0625,0.00390625,-0.9609375,0.031788445974004445,1.1644736701663703,22.703570044386343,0.3638308691441777,1557,0,8.260259621924801,5.183965864387964,62.757904734960356,0.22462988774017553,0.14097301095422776,0.09765625,,
2.6145249999999067,1200,,,,-0.03125,0.025390625,-1.0234375,0.031788445974004445,1.1644736701663703,22.703501350880167,0.3623575920186506,1557,0,8.226786079897119,5.184037567294177,63.014128688259355,0.22462678077662362,0.1415466087068758,0.09765625,,
2.6213499999996275,1200,,,,0,0.03515625,-0.96875,0.031788445974004445,1.1644736701663703,22.703522103787982,0.3626418861088461,1557,0,8.233248077031552,5.18365165256861,62.959983764239304,0.2246435038877176,0.1414355135751253,0.09765625,,
2.6390150000001302,1200,,,,-0.03125,0.1015625,-1.0078125,0.031788445974004445,1.1644736701663703,22.703571889111025,0.36116812241925184,1557,0,8.199806431400736,5.183380376883978,63.213448027681366,0.22465526075599357,0.14201233649944203,0.095703125,,
2.645829999999609,1200,,,,0,0.046875,-0.95703125,0.031788445974004445,1.1644736701663703,22.703590276265658,0.3616988622629298,1557,0,8.211862772209004,5.183356811951029,63.12035351458628,0.2246562820991788,0.14180383945372785,0.095703125,,
2.6529249999998137,1200,,,,-0.0625,0.06640625,-0.9375,0.031788445974004445,1.1644736701663703,22.703607775936558,0.3622957755071181,1557,0,8.225421185992372,5.183346290969974,63.01618085888472,0.22465673809890466,0.14157009639207674,0.095703125,,
2.6720100000002422,1200,,,,-0.09375,0.046875,-0.955078125,0.031788445974004445,1.1644736701663703,22.703726512965716,0.36439048939735524,1557,0,8.273022015203287,5.183339413125792,62.65351891485842,0.22465703619901267,0.14075553866850873,0.095703125,,
2.6792599999997764,1200,,,,-0.09375,0.041015625,-1.013671875,0.031788445974004445,1.1644736701663703,22.703795885407065,0.3649716546068313,1557,0,8.286241950152785,5.184188456111266,62.563807420753356,0.22462024288365834,0.14053097618576046,0.095703125,,
2.687375,1200,,,,0,-0.05859375,-1.01953125,0.031788445974004445,1.175020623892169,22.70334730741091,0.36581866242472116,1557,0,8.305308144560954,5.184586718053461,62.42497722915657,0.22663727849330437,0.1414782694922254,0.095703125,,
2.6952649999996647,1200,,,,-0.03125,0.048828125,-1.0078125,0.031788445974004445,1.175020623892169,22.703379204005177,0.3647115892656272,1558,0,8.280185511192919,5.184743266730786,62.61626940268666,0.22663043538375094,0.1419075239683712,0.095703125,,
2.7032099999999626,1200,,,,0,0.03125,-0.9921875,0.031788445974004445,1.175020623892169,22.703344159537465,0.36599943594554407,1557,0,8.309411156468276,5.184500974709688,62.39312121020668,0.22664102671095857,0.1414084105078253,0.095703125,,
2.7142400000002236,1200,,,,-0.03125,0.0546875,-0.978515625,0.031788445974004445,1.175020623892169,22.703528606096498,0.3653167816050701,1557,0,8.293980001457815,5.183675168824314,62.499248465913716,0.22667713265657238,0.14167150435444,0.095703125,,
2.722254999999888,1200,,,,-0.03125,0.091796875,-0.955078125,0.031788445974004445,1.175020623892169,22.703596143486166,0.36534515636970555,1557,0,8.294648883196597,5.183478315354668,62.49183525845709,0.22668574119650214,0.1416600799429305,0.09375,,
2.733404999999795,1200,,,,-0.0625,0.083984375,-0.943359375,0.031796916410565666,1.175020623892169,22.70341820591473,0.3671453827348912,1557,0,8.33545516660086,5.185080183339429,62.205123532010646,0.22661570937084372,0.14096658195707557,0.09375,,
2.749674999999814,1200,,,,-0.03125,0.029296875,-0.984375,0.031796916410565666,1.175020623892169,22.70298489965594,0.3722792039557216,1557,0,8.451849145862683,5.186100205346022,61.36053916538137,0.22657113772713355,0.13902527170250795,0.09375,,
2.757379999999888,1200,,,,-0.03125,-0.009765625,-0.998046875,0.031796916410565666,1.175020623892169,22.703166137333994,0.37063169459061074,1558,0,8.414512938052269,5.189235545725594,61.670064374834276,0.22643424325959552,0.1396421435848614,0.09375,,
2.7656499999999067,1200,,,,0,0.015625,-0.98046875,0.031796916410565666,1.175020623892169,22.703206806410375,0.36897469842147484,1561,0,8.376908884595643,5.196544537744582,62.03415375927681,0.22611576122508414,0.14026899899232792,0.09375,,
2.7743900000001305,1200,,,,-0.03125,0.021484375,-0.974609375,0.031796916410565666,1.175020623892169,22.703111160519168,0.36787739085693316,1562,0,8.351961298066712,5.199517195880907,62.25504417847909,0.22598648674977523,0.14068798716346537,0.09375,,
2.7822249999996274,1200,,,,-0.0625,0.0859375,-0.9453125,0.031796916410565666,1.175020623892169,22.70315365903754,0.3681473687499827,1562,0,8.358106281901213,5.200611053228592,62.222360877249,0.22593895445472786,0.14058455160310404,0.09375,,
2.790285000000149,1200,,,,-0.03125,0.07421875,-0.978515625,0.031796916410565666,1.175020623892169,22.70280202054139,0.37043910126787827,1561,0,8.410005576751924,5.198302516999234,61.810928299133174,0.22603929264402647,0.139716985104067,0.09375,,
2.7982499999995345,1200,,,,-0.0625,0.099609375,-0.9453125,0.031796916410565666,1.175020623892169,22.702663562532926,0.37510295389227943,1561,0,8.515836163528721,5.197390423604685,61.03206219330356,0.22607896042514844,0.13798065173265076,0.09375,,
2.806344999999739,1200,,,,-0.09375,0.03125,-1.015625,0.031796916410565666,1.175020623892169,22.7023326380576,0.37836633685003596,1561,0,8.589798438212869,5.197032706243161,60.50238249041403,0.22609452168361854,0.136792572298895,0.09375,,0.35680999999959023,3986,
2.815334999999963,1200,,,,0,-0.0390625,-0.96875,0.031796916410565666,1.175020623892169,22.70255876972153,0.37720826097392757,1563,0,8.563592713185047,5.204497925069214,60.77470168631491,0.22577021661057586,0.1372111756416245,0.09375,,
2.831285000000149,1500,,,,-0.09375,0.03125,-0.98046875,0.031796916410565666,1.175020623892169,22.702761744896588,0.3739457033298127,1567,0,8.48960020822452,5.218639367476766,61.470967295033205,0.22515842562623686,0.13840706217871573,0.09375,,
2.8396650000000374,1500,,,,-0.0625,0.1640625,-0.87890625,0.031796916410565666,1.1811187220464945,22.70262370192219,0.37208040228605643,1568,0,8.447201359960168,5.219468883574298,61.78932715295081,0.2262909787169117,0.13982367315700686,0.095703125,,
2.8468549999999815,1500,,,,0,-0.177734375,-0.998046875,0.031796916410565666,1.1811187220464945,22.696158140338518,0.3715250347997517,1567,0,8.432190942909935,5.219098241213633,61.89492477755171,0.22630704912192662,0.1400725778203135,0.095703125,,
2.8551650000000373,1500,,,,-0.125,-0.296875,-0.9921875,0.031796916410565666,1.1811187220464945,22.675492436875803,1.0178786868276564,1567,0,23.080900464817596,5.21894920453657,22.611549373872382,0.22631351173523728,0.05117299144575765,0.099609375,,
2.863049999999814,1500,,,,-0.375,0.224609375,-1.197265625,0.031796916410565666,1.1811187220464945,22.65695396866829,1.591742639792814,1567,0,36.06403971975234,5.218888721812995,14.471170624167765,0.22631613452685084,0.03275059397740164,0.103515625,,
2.8702700000000188,1500,,,,-0.0625,-0.109375,-1.103515625,0.031796916410565666,1.1811187220464945,22.64113226419658,2.012630699594353,1658,0,45.56823786849824,5.522113465978902,12.118338834858463,0.2138888904263249,0.025919780471981194,0.111328125,,
2.878399999999907,1500,,,,-0.5,-0.25390625,-0.77734375,0.03216417743080517,1.1811187220464945,22.62670858230333,2.47652247147342,1701,0,56.035552259554684,5.730301001902343,10.226188144554715,0.20611809425968847,0.021078024118966376,0.1171875,,
2.888385000000242,1500,,,,0.5625,-0.33984375,-1.6328125,0.03216417743080517,1.1811187220464945,22.61465353619819,2.8211496916981447,1865,0,63.799322851505885,6.282917585443872,9.847937728222414,0.18798889305549457,0.018513029124079736,0.123046875,,
2.8971949999998325,1500,,,,-0.83203125,0.533203125,-0.888671875,0.03216417743080517,1.1811187220464945,22.6005749072174,3.2070914441179155,2023,0,72.48211041708298,6.8145963664853655,9.401763176144033,0.17332189003230097,0.01629531363325373,0.13671875,,
2.905549999999814,1500,,,,0.09375,-0.11328125,-1.048828125,0.03216417743080517,1.1811187220464945,22.59149930473554,3.446939519103802,2183,0,77.871531749299,7.353584539585434,9.44322575194706,0.1606180925354645,0.015167529076595144,0.146484375,,
2.9130749999997207,1500,,,,0.125,0.13671875,-1.359375,0.03216417743080517,1.1811187220464945,22.583758032009477,3.633346308003251,2298,0,82.05461386644039,7.740840537915473,9.433766333377882,0.1525827481216345,0.01439429992284153,0.150390625,,
2.9213349999999627,1500,,,,-0.09375,0.19921875,-0.865234375,0.03216417743080517,1.1811187220464945,22.577492474060605,3.812986790230431,2410,0,86.08768056012006,8.116946679990457,9.428697145954489,0.1455126870499392,0.013719950570879304,0.15234375,,
2.9293549999999815,1500,,,,0.0625,-0.265625,-1.09375,0.03216417743080517,1.1811187220464945,22.572583453096826,3.9491210634131315,2520,0,89.14186477027539,8.486509985892212,9.520229364465868,0.13917602453894007,0.013249876756452393,0.154296875,,
2.937429999999702,1500,,,,0.0625,0.1640625,-0.8359375,0.03216417743080517,1.1811187220464945,22.568530940147557,4.0534082576423245,2619,0,91.4794696756504,8.820039117865441,9.641550338166335,0.13391309338459484,0.012911298308071403,0.15625,,
2.9465200000000187,1500,,,,-0.03125,-0.126953125,-0.994140625,0.03216417743080517,1.1811187220464945,22.565380175306412,4.149898776396898,2720,0,93.6440435784349,9.160378737122809,9.782126430123885,0.12893776075654628,0.012612854773376017,0.15625,,
2.9553300000000746,1500,,,,0.1875,0.30859375,-0.79296875,0.03216417743080517,1.1811187220464945,22.56281652469097,4.212210060069813,2805,0,95.03932274881272,9.44704250292604,9.940140806657901,0.12502523638277965,0.01242768454030518,0.158203125,,
2.962744999999646,1500,,,,-0.09375,0.18359375,-1.087890625,0.03216417743080517,1.1811187220464945,22.560771929633347,4.269877686037855,2894,0,96.33173664213064,9.74735792429841,10.118532338422941,0.12117321752412291,0.012260951200685951,0.158203125,,
2.971625,1500,,,,0.1875,-0.12890625,-0.896484375,0.03216417743080517,1.1811187220464945,22.55933089756873,4.312848352999966,2973,0,97.29497310636054,10.012088492954618,10.29044787546181,0.11796926514159688,0.012139565738461366,0.162109375,,
2.979399999999907,1500,,,,-0.125,-0.1484375,-1.05859375,0.03216417743080517,1.1811187220464945,22.558056747113525,4.340371631732806,4518,0,97.91034957219036,15.216833141937059,15.541598215536473,0.07761922017738189,0.012063267338001308,0.1640625,,
2.987219999999739,1500,,,,-0.1875,-0.25,-1.02734375,0.03216417743080517,1.1835814314966482,22.557436959485326,4.357611933995368,5525,0,98.29655649500144,18.608031190390143,18.930501590191916,0.06360594623830447,0.012040924664098845,0.166015625,,
2.9953249999997205,1500,,,,0,-0.0703125,-0.939453125,0.03216417743080517,1.1835814314966482,22.55726772498289,4.36591487491312,6055,0,98.48311069790043,20.39338830184824,20.707498125648673,0.05803750774408492,0.01201811582827959,0.16796875,,
3.0033050000001675,1500,,,,-0.0625,0.05859375,-0.9375,0.03216417743080517,1.1835814314966482,22.55720578488683,4.367115593535599,6251,0,98.5099251297707,21.055563791094677,21.374053186374283,0.056212288744186316,0.012014844493460667,0.166015625,,
3.011475000000093,1500,,,,-0.21875,0.298828125,-1.044921875,0.03216417743080517,1.1835814314966482,22.557732624384858,4.354380371955222,5781,0,98.22494817543539,19.47055448143082,19.82241257756155,0.060788275579179665,0.012049702784090085,0.169921875,,
3.0194099999996835,1500,,,,0.03125,-0.1640625,-0.8984375,0.03216417743080517,1.1835814314966482,22.55835755727964,4.337152340115895,4771,0,97.83903326872647,16.070763033229397,16.42571731988515,0.07364811671041167,0.012097231462271318,0.169921875,,
3.0266450000000185,1500,,,,0.0625,0.1171875,-1.1171875,0.03216417743080517,1.1835814314966482,22.558776777269262,4.317063369614658,4443,0,97.38766888846294,14.965338872872419,15.366769780691703,0.07908818113314622,0.012153298718467032,0.171875,,
3.0336450000000186,1500,,,,-0.0625,0.00390625,-1.015625,0.08403773248396694,1.1835814314966482,22.559430857039228,4.294577199257958,3820,0,96.88321738687708,33.61407861661665,34.69546070336193,0.03521088425465754,0.012216578509880963,0.169921875,,
3.042774999999907,1500,,,,-0.09375,0.13671875,-1.037109375,0.08403773248396694,1.1835814314966482,22.560165104358013,4.270649193528465,3542,0,96.34655090879556,31.170315746330953,32.35229019857459,0.037971429007290926,0.012284626904984493,0.169921875,,
3.0574900000002234,1500,,,,-0.125,0.01953125,-1.01953125,0.08403773248396694,1.1835814314966482,22.56186282949209,4.215883686722095,3410,0,95.1181894449173,30.011534198649088,31.55183501051467,0.03943755169803764,0.012443271243951264,0.171875,,
3.0661800000001675,1500,,,,-0.0625,-0.12109375,-1.015625,0.08403773248396694,1.1835814314966482,22.56293336731752,4.1882263276118,3404,0,94.49867155715,29.958729064995264,31.702804464163403,0.039507064165802096,0.012524847302015809,0.171875,,
3.0741299999998883,1500,,,,0.34375,0.009765625,-0.767578125,0.08403773248396694,1.1835814314966482,22.56414804659011,4.153162989821464,3420,0,93.71258456395032,30.095263563824883,32.1144312728752,0.039327830739430275,0.012629909173927025,0.17578125,,
3.082464999999851,1500,,,,-0.0625,-0.2421875,-0.8046875,0.08403773248396694,1.1835814314966482,22.565354974548054,4.118395504814816,3422,0,92.93305649172936,30.116343513829385,32.40649199621408,0.03930030320424355,0.012735849612371048,0.177734375,,
3.0899250000002794,1500,,,,-0.1875,-0.09375,-1.0859375,0.08403773248396694,1.1835814314966482,22.566189102433352,4.095569156509138,3420,0,92.42138806787867,30.098990252887642,32.567126378562406,0.03932296138682252,0.012806358530639788,0.177734375,,
3.0972349999998694,1500,,,,-0.34375,0.232421875,-1.033203125,0.08403773248396694,1.1835814314966482,22.56683265710013,4.074829968752425,3467,0,91.95600601097253,30.50824370557876,33.17699955556835,0.03879546272538191,0.012871170495980641,0.181640625,,
3.105395000000019,1500,,,,0.0625,0.21484375,-1.16796875,0.08403773248396694,1.1835814314966482,22.567540432614788,4.051999822600685,3483,0,91.4436698294889,30.650335075120985,33.518268823061625,0.03861561149644222,0.012943284469046594,0.18359375,,
3.113404999999795,1500,,,,-0.0625,-0.259765625,-0.904296875,0.08403773248396694,1.1835814314966482,22.568838172597626,4.01666099793929,3486,0,90.65137205667632,30.67640898480661,33.839983101002986,0.03858278953324855,0.013056409457946857,0.185546875,,
3.1203650000002234,1500,,,,0,-0.03515625,-0.73828125,0.08403773248396694,1.1835814314966482,22.569845127510035,3.988004082247014,3479,0,90.0086345041929,30.612775758050336,34.01093231408181,0.03866298962404277,0.013149643231633661,0.185546875,,
3.1284650000003165,1500,,,,0.25,-0.162109375,-0.787109375,0.08403773248396694,1.1835814314966482,22.5709250972504,3.9549420373508206,3475,0,89.26670048901227,30.583370975374233,34.26067145736915,0.03870016266191419,0.01325893558306587,0.1875,,
3.136524999999907,1500,,,,-0.15625,0.12890625,-1.03515625,0.08403773248396694,1.1835814314966482,22.57206924168613,3.9222528841517508,3501,0,88.53336368447644,30.809932802550726,34.80036397617747,0.03841557977687833,0.013368761585912487,0.189453125,,
3.1443650000002235,1500,,,,0,0.3828125,-1.1953125,0.08403773248396694,3.2261214312925865,22.57313177516032,3.890476120324812,3513,0,87.82023013220646,30.91575823327083,35.20345845909261,0.10435200737922412,0.03673551556897442,0.19140625,,
3.1526049999999812,1500,,,,-0.15625,-0.150390625,-0.861328125,0.08403773248396694,3.2261214312925865,22.574052103227128,3.8575992493744,3522,0,87.08164644874756,30.995241556565862,35.593311358448304,0.10408441003451974,0.03704708813919062,0.193359375,,
3.160279999999795,1500,,,,0.5625,-0.26953125,-0.77734375,0.08403773248396694,3.2261214312925865,22.57499669453894,3.8272549026407225,3534,0,86.40026677627226,31.101164374752063,35.9966068800302,0.10372992446262087,0.037339253125761904,0.197265625,,
3.167510000000242,1500,,,,-0.34375,0.17578125,-1.138671875,0.08403773248396694,3.2261214312925865,22.576088935110096,3.804047478985787,3530,0,85.88051419896449,31.065006359584068,36.17235719806465,0.10385066057767842,0.03756523189670755,0.201171875,,
3.1760150000001306,1500,,,,0,0.58984375,-0.98828125,0.08403773248396694,3.2261214312925865,22.57667741637432,3.786478247704534,3519,0,85.48609794254357,30.96754060060822,36.225235852292556,0.10417751518921795,0.03773855058235211,0.20703125,,
3.185554999999702,1500,,,,0.0625,-0.28125,-0.654296875,0.14998903584076548,3.2261214312925865,22.577605907327193,3.7583661652349076,3542,0,84.8549101341063,55.63500132685516,65.56485798986594,0.05798726259282624,0.03801926637119718,0.208984375,,
3.1955099999997767,1500,,,,-0.125,0.205078125,-1.314453125,0.14998903584076548,3.2261214312925865,22.57876848238061,3.7272113272797496,3557,0,84.15584164355602,55.86595140520633,66.38392571941452,0.05774754300509297,0.038335086053287865,0.212890625,,
3.20355999999959,1500,,,,-0.0625,-0.15625,-0.609375,0.14998903584076548,3.2261214312925865,22.580097950670282,3.6903349396934124,3560,0,83.32812440905816,55.92095490402319,67.10934069451385,0.05769074288573147,0.038715877192381544,0.216796875,,
3.211055000000168,1500,,,,0.03125,0.12109375,-1.083984375,0.14998903584076548,3.2261214312925865,22.580857435379663,3.663555593389849,3558,0,82.72622656092392,55.88082741286759,67.54910714042303,0.05773217005998935,0.03899756540831343,0.21875,,
3.219685000000056,1500,,,,-0.0625,-0.26953125,-0.43359375,0.14998903584076548,3.2261214312925865,22.58177822970895,3.6340452498943705,3557,0,82.06320390984192,55.87550703320122,68.08838111486409,0.05773766722824772,0.03931264290920129,0.22265625,,
3.2275749999997205,1500,,,,-0.03125,0.380859375,-1.1171875,0.14998903584076548,3.2261214312925865,22.582531577008123,3.6100135461457143,3557,0,81.52324489926266,55.86634710147151,68.52812001105319,0.05774713398448797,0.03957302527983359,0.22265625,,
3.2353300000000744,1500,,,,-0.125,-0.244140625,-0.734375,0.14998903584076548,3.2261214312925865,22.583384646058896,3.5865677786737935,3556,0,80.99683970495131,55.84754164069589,68.95027243548361,0.05776657909220707,0.039830213660735886,0.2265625,,
3.2427299999999812,1500,,,,-0.1875,0.265625,-1.4609375,0.14998903584076548,3.2261214312925865,22.583934996464002,3.566620001275404,3564,0,80.54831426589209,55.977801791825954,69.49593210236749,0.05763215646248679,0.04005200432430002,0.23046875,,
3.2506049999999815,1500,,,,0.1875,0.1328125,-0.98046875,0.14998903584076548,3.2261214312925865,22.584860464697528,3.542886949650191,3560,0,80.01560740004741,55.91409297217585,69.87898334961926,0.05769782285296087,0.040318652024513346,0.23046875,,
3.258495000000112,1500,,,,-0.09375,0.056640625,-0.771484375,0.14998903584076548,3.2261214312925865,22.585590307374222,3.523591848129104,3550,0,79.58240189224752,55.767027184466066,70.07457158678517,0.05784998043057286,0.04053812594976299,0.232421875,,
3.266970000000205,1500,,,,0.125,-0.130859375,-0.83203125,0.14998903584076548,3.2261214312925865,22.586131583224045,3.4997356610801047,3553,0,79.04549014765684,55.813590439160954,70.60945581449526,0.05780171828954792,0.04081347873567736,0.234375,,
3.275320000000298,1500,,,,-0.09375,0.23046875,-1.052734375,0.14998903584076548,3.2261214312925865,22.58678549518611,3.4783871272748423,3561,0,78.5655839129735,55.93947031758262,71.20098589166771,0.05767164781820553,0.041062781826532814,0.23828125,,
3.2836699999999257,1500,,,,0.0625,-0.37109375,-0.50390625,0.14998903584076548,3.2261214312925865,22.587368821211875,3.457945358713982,3566,0,78.10588718087051,56.01155024476096,71.71232831022648,0.05759743155108159,0.0413044592121696,0.2421875,,
3.305635000000242,1500,,,,-0.041015625,-0.09765625,-0.833984375,0.14998903584076548,4.923388092300711,22.588985489851638,3.4145109398403317,3569,0,77.13033807499293,56.05340827498043,72.67361932276292,0.08783387565209443,0.06383205642783205,0.25,,
3.3139900000002234,1500,,,,0.3125,-0.0703125,-0.95703125,0.14998903584076548,4.923388092300711,22.589640515453127,3.4001644141445473,3569,0,76.8084918089616,56.05265351471651,72.97715681507051,0.0878350583529125,0.06409952827281366,0.25390625,,
3.321584999999963,1500,,,,-0.1875,-0.095703125,-0.794921875,0.14998903584076548,4.923388092300711,22.59014704637439,3.390543487412331,3571,0,76.59287594777159,56.08257160710371,73.22165529512982,0.08778820141830103,0.06427997423230265,0.2578125,,
3.328530000000261,1500,,,,0.15625,0.041015625,-0.8515625,0.14998903584076548,4.923388092300711,22.590399058789533,3.377767962454778,3576,0,76.30512619984786,56.16385962279068,73.60430736421829,0.08766114233187161,0.06452237664093566,0.259765625,,
3.336630000000354,1500,,,,-0.625,0.04296875,-1.21484375,0.15937518770196082,4.923388092300711,22.590970138814953,3.3674819620805487,3565,0,76.07468444835966,59.50258559401564,78.21601367851437,0.082742422756094,0.06471782470084068,0.263671875,,
3.345774999999907,1500,,,,0.1875,0.35546875,-1.0078125,0.15937518770196082,4.923388092300711,22.591533540572094,3.355696861389801,3561,0,75.8103381960802,59.43810883841315,78.40369829861335,0.08283217936299593,0.06494349200192959,0.265625,,
3.360520000000019,1500,,,,-0.03125,0.03125,-1.0390625,0.15937518770196082,4.923388092300711,22.59239321768508,3.328767254119977,3572,0,75.20481873523235,59.622593218907745,79.28028312762282,0.0825758798216678,0.06546639131774379,0.271484375,,
3.3681899999999443,1500,,,,-0.0625,-0.15234375,-1,0.15937518770196082,4.923388092300711,22.592547659797738,3.3199620897751765,3569,0,75.00640174196737,59.56882562969153,79.41832196485937,0.0826504138743117,0.06563957179598967,0.271484375,,
3.3768599999998696,1500,,,,-0.1875,0.375,-0.875,0.15937518770196082,4.923388092300711,22.593104764650658,3.3031500317099582,3566,0,74.62841471978223,59.516405271464365,79.75032766666551,0.08272321000981675,0.0659720310392127,0.27734375,,
3.3843900000001303,1500,,,,-0.125,0.052734375,-1.298828125,0.15937518770196082,4.923388092300711,22.593343650819854,3.29245629590394,3575,0,74.38759654866314,59.65919252854074,80.20045719518937,0.08252522174089735,0.06618560513754349,0.279296875,,
3.392399999999907,1500,,,,0.0625,-0.00390625,-0.68359375,0.15937518770196082,4.923388092300711,22.59366574206093,3.282902538527461,3583,0,74.17280261925276,59.79533104638044,80.61624872572845,0.08233733313528893,0.06637726927447615,0.28125,,
3.4008250000001863,1500,,,,0.0625,-0.078125,-1.125,0.15937518770196082,4.923388092300711,22.593769701528277,3.2749177970976295,3574,0,73.99273849906015,59.64127313720759,80.60422461315599,0.0825500166801306,0.0665388008630502,0.28515625,,
3.4091999999997205,1500,,,,0.03125,-0.01953125,-0.79296875,0.15937518770196082,4.923388092300711,22.593902033187465,3.265268788022365,3571,0,73.77516310860209,59.600332638026806,80.7864464498588,0.08260672171415771,0.06673503500159189,0.287109375,,
3.417549999999814,1500,,,,-0.3125,0.271484375,-1.072265625,0.15937518770196082,4.923388092300711,22.593807494188553,3.2630537089393394,3571,0,73.7248073429734,59.603898959317775,80.84646282225725,0.08260177904907086,0.06678061658943014,0.291015625,,
3.4254150000000374,1500,,,,0.375,-0.1640625,-0.7265625,0.15937518770196082,4.923388092300711,22.594173543126253,3.259521691379164,3571,0,73.64619876260524,59.60527303381365,80.93462260821934,0.08259987483838398,0.06685189697530759,0.29296875,,
3.4327450000001116,1500,,,,0,-0.00390625,-1.31640625,0.15937518770196082,4.923388092300711,22.59425324816428,3.251150607894761,3566,0,73.45732018269747,59.52337040573936,81.03123045830878,0.08271353014354828,0.0670237912308213,0.294921875,,
3.4407749999999067,1500,,,,-0.25,-0.08984375,-0.61328125,0.15937518770196082,5.7122979295015694,22.594437537893764,3.2413344427656168,3562,0,73.23612860649142,59.44155314433559,81.16424813185289,0.09609940567385587,0.0779983600743643,0.294921875,,
3.448635000000242,1500,,,,-0.03125,0.1796875,-1.134765625,0.15937518770196082,5.7122979295015694,22.594710189630444,3.233726405508156,3571,0,73.06511096501215,59.601491113037135,81.57312063972341,0.09584152716360599,0.07818092457612158,0.294921875,,
3.456639999999665,1500,,,,-0.1875,0.115234375,-0.779296875,0.15937518770196082,5.7122979295015694,22.59516052160715,3.2255282728189987,3574,0,72.88132909132753,59.64819608139736,81.84290383433081,0.0957664825555903,0.07837807022349295,0.296875,,
3.464864999999758,1500,,,,0.375,0.1875,-0.94921875,0.15937518770196082,5.7122979295015694,22.595403225566034,3.2175574293080804,3575,0,72.70200751663175,59.65901208373453,82.05964886194728,0.09574912037571225,0.07857139196871268,0.298828125,,
3.4725750000001865,1500,,,,-0.28125,-0.05078125,-0.921875,0.15937518770196082,5.7122979295015694,22.595625662634344,3.2107859606177938,3564,0,72.54971764896149,59.48455054950729,81.99142943233602,0.09602994183754297,0.07873632199564236,0.302734375,,
3.4805550000001677,1500,,,,0.125,0.078125,-1.1953125,0.1536339049135898,5.7122979295015694,22.595709388894377,3.205314683823976,3571,0,72.42635909564243,57.44835811296097,79.31968254416559,0.09943361511341112,0.07887042785014514,0.302734375,,
3.4877700000000185,1500,,,,-0.21875,-0.052734375,-0.81640625,0.1536339049135898,5.7122979295015694,22.5958948533311,3.2020439054613385,3583,0,72.35304740355407,57.65014293350414,79.67894235602341,0.09908558138512076,0.07895034327498104,0.306640625,,
3.4981049999999816,1500,,,,0.25,0.27734375,-1.02734375,0.1536339049135898,5.7122979295015694,22.59629211549516,3.196582301636131,3574,0,72.23090745899188,57.4997098653731,79.60540977284244,0.0993448130934235,0.0790838455510842,0.30859375,,
3.513194999999832,1500,,,,0.09375,0.080078125,-0.921875,0.1536339049135898,5.7122979295015694,22.596619004555055,3.180390885074138,3564,0,71.86608111557995,57.33332724277014,79.77800702749154,0.09963311400563976,0.07948531269312795,0.3125,,
3.5207599999997763,1500,,,,-0.375,0.033203125,-1.23046875,0.1536339049135898,5.7122979295015694,22.5967834232954,3.1763386958041977,3565,0,71.77503758812003,57.36292761483201,79.92044245801488,0.09958170140577993,0.07958613637071854,0.31640625,,
3.529194999999832,1500,,,,0.4375,-0.12109375,-0.84765625,0.1536339049135898,5.7122979295015694,22.596844977171155,3.1700291275557038,3581,0,71.63265676849336,57.6114979283704,80.42630348691746,0.09915204663839484,0.07974432594288539,0.318359375,,
3.536840000000317,1500,,,,-0.21875,0.169921875,-1.01953125,0.1536339049135898,5.7122979295015694,22.59675037836536,3.1775070642545566,3579,0,71.80133395645277,57.57320142192167,80.18402757926418,0.09921800053534187,0.07955698891285301,0.318359375,,
3.5448249999997206,1500,,,,0.4375,0.01171875,-0.51171875,0.1536339049135898,5.7122979295015694,22.59671448408601,3.1816581947811473,3561,0,71.8950218134221,57.28854971667477,79.68361128722762,0.09971098863127463,0.0794533165915966,0.3203125,,
3.5527849999996834,1500,,,,-0.09375,0.169921875,-1.208984375,0.1536339049135898,5.7122979295015694,22.59697375933646,3.17543362197856,3566,0,71.75519023036426,57.37552128610683,79.96009919548305,0.09955984366602645,0.07960814975422262,0.322265625,,
3.560209999999963,1500,,,,0.03125,-0.15234375,-0.9375,0.1536339049135898,5.7122979295015694,22.5973144562612,3.167847030867933,3581,0,71.58483550585606,57.61112044168266,80.47950384263959,0.09915269631466186,0.07979759804063906,0.32421875,,
3.5679550000000746,1500,,,,-0.25,0.1640625,-1.3203125,0.1536339049135898,5.7122979295015694,22.597315405587633,3.163332974412189,3571,0,71.48283295568791,57.44995085078548,80.36887805831451,0.0994308584238496,0.07991146535899904,0.326171875,,
3.574864999999758,1500,,,,-0.125,-0.0078125,-0.45703125,0.1536339049135898,5.7122979295015694,22.5975164356396,3.157142112151497,3577,0,71.34357076899337,57.54896293640983,80.66453965803066,0.09925978919574131,0.08006745202027638,0.328125,,
3.5823249999997206,1500,,,,0.0625,0.154296875,-1.109375,0.1536339049135898,5.7122979295015694,22.597361532126804,3.1504722055158525,3585,0,71.19235942495861,57.67340344682026,81.01066450482202,0.09904561874467474,0.08023751390797357,0.328125,,
3.58975,1500,,,,0,-0.4375,-0.60546875,0.1536339049135898,6.0817787700914145,22.597476092187676,3.148154815620185,3568,0,71.14035318048263,57.41173985121638,80.70207313360275,0.1059326678803405,0.08548985910516889,0.330078125,,
3.5977550000003538,1500,,,,-0.125,0.271484375,-1.060546875,0.1536339049135898,6.0817787700914145,22.597795463477418,3.143897827804106,3569,0,71.04516007078814,57.41760468285656,80.81846057584595,0.10592184755326932,0.08560440660604661,0.330078125,,
3.605820000000298,1500,,,,-0.21875,-0.21875,-0.830078125,0.1536339049135898,6.0817787700914145,22.597903598988243,3.141919791636133,3577,0,71.00080056714657,57.547370200603424,81.05172017909851,0.10568300078511048,0.08565789007322222,0.333984375,,
3.614695000000298,1500,,,,0.125,0.49609375,-1.18359375,0.1536339049135898,6.0817787700914145,22.598163537993354,3.141721642965106,3582,0,70.99713947857863,57.62601663519179,81.1666738384281,0.10553876747360179,0.08566230716839542,0.3359375,,
3.6215449999999256,1500,,,,-0.125,-0.005859375,-0.857421875,0.1536339049135898,6.0817787700914145,22.59824259006137,3.140081213952146,3582,0,70.960317025385,57.63293068934511,81.21853608507385,0.10552610629630507,0.0857067587214379,0.3359375,,
3.631144999999553,1500,,,,0.25,-0.013671875,-0.984375,0.14754427525600586,6.0817787700914145,22.598345245123067,3.1361763543181254,3580,0,70.8723960044724,55.311225160615045,78.04339669442616,0.10995559676052902,0.08581308256754328,0.337890625,,
3.6388999999999068,1500,,,,-0.34375,0.203125,-0.990234375,0.14754427525600586,6.0817787700914145,22.59842131944511,3.1306341763113914,3566,0,70.74739011333882,55.09618497582094,77.87733920298075,0.11038475300531995,0.08596470852632551,0.33984375,,
3.649850000000093,1500,,,,0.25,-0.12890625,-0.8828125,0.14754427525600586,6.0817787700914145,22.59850839405549,3.128424691257534,3569,0,70.69773164555384,55.14566823118544,78.00203337167966,0.11028570267015292,0.08602509060096408,0.341796875,,
3.657524999999907,1500,,,,-0.3125,0.11328125,-1.216796875,0.14754427525600586,6.0817787700914145,22.59827195655997,3.1258244947233633,3579,0,70.63823202023522,55.291541458862234,78.27424310821266,0.10999474077995008,0.08609755080434646,0.341796875,,
3.6649249999998137,1500,,,,0.28125,-0.087890625,-0.923828125,0.14754427525600586,6.0817787700914145,22.59817526462826,3.123906837491671,3577,0,70.59459422400737,55.26085040787499,78.2791529795099,0.11005583021619092,0.08615077169780179,0.345703125,,
3.6736200000001116,1500,,,,-0.25,0.26953125,-1.01953125,0.14754427525600586,6.0817787700914145,22.598328461522307,3.12007806758742,3573,0,70.50854899693232,55.21304132864683,78.30687500185125,0.11015112777234269,0.08625590593781784,0.345703125,,
3.6817700000000184,1500,,,,0.125,-0.125,-0.927734375,0.14754427525600586,6.0817787700914145,22.598567671069624,3.11940720362873,3570,0,70.49413478482592,55.15345981363914,78.23836689674656,0.11027012250258551,0.08627354302106474,0.345703125,,
3.6898549999999815,1500,,,,-0.3125,0.16015625,-0.890625,0.14754427525600586,6.0817787700914145,22.598638457099284,3.12023121467427,3564,0,70.51297712297956,55.059116061773345,78.08366389884006,0.11045907027036156,0.08625048917569268,0.34765625,,
3.6975699999998324,1500,,,,0.0625,-0.17578125,-1.26171875,0.14754427525600586,6.0817787700914145,22.598705046455258,3.1192041621219273,3563,0,70.48997483946904,55.05540307085659,78.10387675160545,0.11046651973947287,0.0862786344291058,0.349609375,,
3.704834999999963,1500,,,,-0.0625,0.1171875,-1.0078125,0.14754427525600586,6.0817787700914145,22.59884774550715,3.1171178364732506,3565,0,70.44327139126365,55.08515766281233,78.19789821635679,0.11040685055889726,0.08633583662393163,0.3515625,,
3.7125999999996275,1500,,,,0.09375,0.115234375,-1.09375,0.14754427525600586,6.0817787700914145,22.598904102003946,3.1183651084019224,3570,0,70.47163403981018,55.165612062112984,78.28059163627358,0.11024583146551002,0.08630108912553032,0.3515625,,
3.7198300000000746,1500,,,,-0.0625,-0.2265625,-0.72265625,0.14754427525600586,6.0817787700914145,22.599124497561498,3.1211047249632435,3580,0,70.53423424937178,55.31018306909143,78.41608214465595,0.10995766841874817,0.08622449559159398,0.3515625,,
3.726995000000112,1500,,,,-0.0625,-0.20703125,-0.7734375,0.14754427525600586,6.0817787700914145,22.59916228539148,3.119974314575993,3584,0,70.50880586135591,55.372976272388996,78.53341947283995,0.10983297592988538,0.08625559170652021,0.3515625,,
3.7352000000001864,1500,,,,-0.0625,0.25390625,-0.91015625,0.14754427525600586,6.233837862676764,22.599205586889898,3.119799164868715,3575,0,70.5049827166755,55.242328133000896,78.35237454775695,0.11284531397134885,0.08841698306242357,0.353515625,,
3.7428349999999626,1500,,,,-0.1875,0.109375,-0.931640625,0.14754427525600586,6.233837862676764,22.599427766125917,3.11965043310521,3571,0,70.50231461852462,55.17424426859157,78.25877003773495,0.11298456273057521,0.08842032912546124,0.353515625,,
3.75089000000013,1500,,,,0.125,-0.0390625,-1.23828125,0.14754427525600586,6.233837862676764,22.59939007362859,3.118210832144077,3568,0,70.46966292743801,55.13392314092845,78.23781305396533,0.11306719180389867,0.08846129814890263,0.353515625,,
3.758969999999739,1500,,,,-0.15625,-0.0859375,-0.748046875,0.14754427525600586,6.233837862676764,22.59941998873824,3.1151111673521856,3569,0,70.3997055826007,55.140413349970935,78.32477834054876,0.11305388342142433,0.08854920359521301,0.35546875,,
3.7666299999998882,1500,,,,0.3125,-0.00390625,-0.9609375,0.14754427525600586,6.233837862676764,22.599448435536004,3.116247794383644,3571,0,70.42548134152597,55.17641334121174,78.34722928429217,0.11298012112760249,0.08851679454551371,0.35546875,,
3.773814999999944,1500,,,,-0.15625,0.0078125,-0.814453125,0.14754427525600586,6.233837862676764,22.599386189179313,3.114024713431849,3574,0,70.37504710149479,55.22069662505996,78.46630147958659,0.11288951867093537,0.08858023005919034,0.357421875,,
3.7818349999999628,1500,,,,-0.1875,0.44921875,-1.10546875,0.14482313876013486,6.233837862676764,22.599318351135157,3.116061093377708,3565,0,70.42085665082912,54.07018596505325,76.78149420015133,0.11529159279581229,0.08852260763577871,0.357421875,,
3.7898799999998882,1500,,,,-0.0625,-0.142578125,-0.921875,0.14482313876013486,6.233837862676764,22.599156236971503,3.1132253691034997,3561,0,70.35626651727327,54.01255193399525,76.77006556442922,0.11541461455653265,0.08860387526598337,0.361328125,,
3.8001899999999442,1500,,,,0.3125,0.052734375,-0.953125,0.14482313876013486,6.233837862676764,22.599198014196475,3.107914217666379,3560,0,70.23636881617902,53.984136275285124,76.86065949190957,0.11547536540898078,0.08875512740403504,0.361328125,,
3.8212400000002233,1500,,,,0.25,-0.216796875,-0.896484375,0.14482313876013486,6.233837862676764,22.599351594541158,3.103548575055,3574,0,70.13818543840516,54.20150695145265,77.2781711027469,0.1150122609738564,0.08887937182451455,0.36328125,,
3.829665000000037,1500,,,,-0.28125,0.404296875,-0.912109375,0.14482313876013486,6.233837862676764,22.59919246240399,3.108186969830381,3574,0,70.24251554033305,54.200643651281624,77.16216202445052,0.11501409287285022,0.08874736069350068,0.3671875,,
3.8371450000000187,1500,,,,0,-0.1171875,-1.19921875,0.14482313876013486,6.233837862676764,22.59894427999952,3.117455468105337,3571,0,70.45120241909233,54.15769660226832,76.87263629668234,0.11510529903917052,0.08848447788859015,0.369140625,,
3.8551450000000185,1500,,,,0.03125,-0.09375,-1.1171875,0.14482313876013486,6.233837862676764,22.598619939424594,3.121210578097932,3568,0,70.53505160534688,54.10539299611465,76.70710060416715,0.11521657116739584,0.08837929115804617,0.369140625,,
3.864010000000242,1500,,,,-0.03125,-0.009765625,-0.78515625,0.14482313876013486,6.233837862676764,22.598692206955583,3.1194337604668765,3570,0,70.49512341277695,54.13825494734623,76.79716316027316,0.11514663464383305,0.08842934888098808,0.369140625,,
3.8720499999998137,1500,,,,-0.25,0.28515625,-1.076171875,0.14482313876013486,6.233837862676764,22.59875640264745,3.121636909227525,3573,0,70.54511208914613,54.186507367878086,76.81114362594523,0.11504409797727988,0.08836668733050158,0.37109375,,
3.8805800000000743,1500,,,,0.1875,-0.1328125,-0.86328125,0.14482313876013486,6.233837862676764,22.598969589093006,3.1213616839296088,3580,0,70.53955777168537,54.28771441230262,76.96066735776128,0.11482962453221385,0.08837364536440334,0.37109375,,
3.8876949999998325,1500,,,,0.0625,-0.029296875,-1.240234375,0.14482313876013486,6.302791197755408,22.598927215694108,3.11887961314047,3576,0,70.48333337187368,54.23805727072006,76.9516063954542,0.11620606479867253,0.08942243359152097,0.37109375,,
3.8950150000001305,1500,,,,-0.3125,-0.0859375,-0.671875,0.14482313876013486,6.302791197755408,22.598799902261547,3.114953621430982,3571,0,70.39421359554373,54.1516953525422,76.9263446334888,0.11639139193560849,0.08953564328410087,0.37109375,,
3.902754999999888,1500,,,,0,0.140625,-1.123046875,0.14482313876013486,6.302791197755408,22.598761177677673,3.109992415127952,3570,0,70.28197585386559,54.148077740624544,77.04404590618284,0.11639916799902841,0.08967862842758635,0.373046875,,
3.909854999999981,1500,,,,-0.1875,0.158203125,-0.814453125,0.14482313876013486,6.302791197755408,22.59890271172911,3.1057301101421095,3576,0,70.18609260798927,54.2394975109527,77.27955139759217,0.11620297913863732,0.08980114098897653,0.375,,
3.9180999999996273,1500,,,,0.375,0.09765625,-1.0390625,0.14482313876013486,6.302791197755408,22.598956380730623,3.104033704452446,3586,0,70.14792229123852,54.38025043837765,77.5222539202273,0.11590220984542125,0.08985000541552216,0.375,,
3.925845000000205,1500,,,,-0.28125,-0.015625,-0.892578125,0.14482313876013486,6.302791197755408,22.599006989113835,3.1021162445076653,3571,0,70.10474669067229,54.160750924241555,77.25689554691431,0.11637193152235951,0.08990534158215593,0.376953125,,
3.933299999999814,1500,,,,0,0.23828125,-1.23046875,0.14389397600883808,6.302791197755408,22.599119286849895,3.101871957634721,3569,0,70.09957438312166,53.77848426310702,76.71727644049095,0.11719912310877889,0.0899119752611932,0.376953125,,
3.9409799999999815,1500,,,,-0.15625,-0.0390625,-0.861328125,0.14389397600883808,6.302791197755408,22.599158331296728,3.1031009970453582,3580,0,70.12747075023279,53.94457931490097,76.92360602456478,0.11683826767770165,0.08987620871432164,0.37890625,,
3.952095000000205,1500,,,,0.3125,-0.099609375,-0.9765625,0.14389397600883808,6.302791197755408,22.599199300960493,3.1066058239745877,3573,0,70.2068041655263,53.8460601966478,76.69635562629395,0.11705204010724986,0.08977464894848856,0.380859375,,
3.959725000000093,1500,,,,-0.375,0.240234375,-0.94921875,0.14389397600883808,6.302791197755408,22.598918812159233,3.1181523076092836,3564,0,70.46687084360917,53.70634301240757,76.2150246909656,0.11735655127922781,0.08944332453392918,0.3828125,,
3.9666899999999443,1500,,,,0.5,-0.19921875,-0.76171875,0.14389397600883808,6.302791197755408,22.59870771289772,3.1186440830336286,3562,0,70.4773260930349,53.677629966063456,76.16297743079143,0.11741932722700711,0.08943005569529257,0.3828125,,
3.9741099999998695,1500,,,,-0.34375,0.068359375,-1.1953125,0.14389397600883808,6.302791197755408,22.5989373940943,3.117425043833205,3574,0,70.45049339636827,53.8579191633626,76.44789492154072,0.11702626643702466,0.08946411719637887,0.384765625,,
3.9820449999999257,1500,,,,0.25,-0.1328125,-0.91015625,0.14389397600883808,6.302791197755408,22.598990287439186,3.1161962105307346,3584,0,70.42288789553886,54.00307856268859,76.683987516663,0.11671170173083587,0.08949918678575913,0.384765625,,
3.990064999999944,1500,,,,-0.21875,0.109375,-1.06640625,0.14389397600883808,6.302791197755408,22.598844203687065,3.1155790158235575,3592,0,70.40848478287326,54.11941888828,76.86491060725746,0.1164608069936303,0.08951749518814457,0.3828125,,
3.9978900000001305,1500,,,,0.375,0.05078125,-0.58984375,0.14389397600883808,6.302791197755408,22.598963986505893,3.1138512501422446,3583,0,70.36981226130094,53.99154063983756,76.7254294204357,0.11673664287151132,0.08956669053416752,0.384765625,,
4.0050500000002796,1500,,,,-0.125,0.22265625,-1.19140625,0.14389397600883808,6.302791197755408,22.599095931505293,3.111707408014351,3580,0,70.321774224492,53.94313008279637,76.70900041655774,0.11684140664587618,0.0896278751106971,0.38671875,,
4.011834999999963,1500,,,,-0.125,-0.2890625,-0.71484375,0.14389397600883808,6.302791197755408,22.599305674868685,3.1119158311221473,3565,0,70.32713710199245,53.71190728490112,76.37436912440361,0.11734439375470057,0.08962104043300864,0.38671875,,
4.019064999999944,1500,,,,0.125,0.07421875,-1.3828125,0.14389397600883808,6.302791197755408,22.599423099760067,3.110700376802486,3573,0,70.30003395194245,53.8424297416041,76.58947900140578,0.11705993262197147,0.08965559251456458,0.38671875,,
4.026839999999851,1500,,,,-0.125,-0.044921875,-0.734375,0.14389397600883808,6.302791197755408,22.59925586718927,3.1090802231956833,3577,0,70.26289947561717,53.902656276273405,76.71567310566061,0.11692913917731618,0.08970297617653282,0.38671875,,
4.035089999999851,1500,,,,0.03125,0.197265625,-1.166015625,0.14389397600883808,6.330476215364776,22.59916114979294,3.107096072639914,3574,0,70.21776485347817,53.850183325030194,76.69025557477963,0.11755718967854092,0.0901549092110015,0.38671875,,
4.0419249999998135,1500,,,,-0.0625,-0.4140625,-0.515625,0.14389397600883808,6.330476215364776,22.599281969081055,3.103901545555595,3573,0,70.14594623227738,53.837878854618054,76.75123331623797,0.1175840569881918,0.09024721392170532,0.388671875,,
4.049145000000019,1500,,,,-0.15625,0.310546875,-1.0390625,0.14389397600883808,6.330476215364776,22.599400426669046,3.102185214386602,3573,0,70.10752585761499,53.835773531115976,76.79029158788721,0.11758865527781245,0.0902966712621077,0.388671875,,
4.058614999999758,1500,,,,0.1875,-0.2578125,-0.6171875,0.14389397600883808,6.330476215364776,22.599287269086812,3.0978616757889292,3579,0,70.00946593104868,53.93480943823171,77.03930992896207,0.11737273722297452,0.09042314680131358,0.388671875,,
4.067214999999851,1500,,,,-0.28125,0.16796875,-1.158203125,0.14389397600883808,6.330476215364776,22.599399625808353,3.0961492242800874,3579,0,69.97111362064223,53.924606825322684,77.06695525482439,0.11739494431310385,0.09047270920520575,0.390625,,
4.0755149999996645,1500,,,,0,-0.00390625,-0.837890625,0.14389397600883808,6.330476215364776,22.599652596504985,3.098703930258815,3566,0,70.02963232327383,53.728928294234564,76.72313349613026,0.11782249183712219,0.09039710770066244,0.390625,,
4.082794999999925,1500,,,,0.25,0.02734375,-0.998046875,0.143430631577046,6.330476215364776,22.5998415472495,3.096793884676627,3574,0,69.98705109818302,53.686330583189076,76.70894792791586,0.11791597873420413,0.090452106725913,0.392578125,,
4.090959999999963,1500,,,,-0.3125,-0.15234375,-1.10546875,0.143430631577046,6.330476215364776,22.59978467501861,3.095754549827653,3570,0,69.96338623281413,53.623049410044786,76.64444546981429,0.11805513272766129,0.09048270182776923,0.39453125,,
4.098129999999888,1500,,,,-0.03125,0.2109375,-0.91796875,0.143430631577046,6.330476215364776,22.599534664750216,3.0938405311703816,3561,0,69.91935633139425,53.48360230292935,76.49327040345601,0.11836293635400938,0.09053968096274292,0.39453125,,
4.107159999999683,1500,,,,0.0625,-0.2421875,-1.0078125,0.143430631577046,6.330476215364776,22.599365676413875,3.0943058390134905,3568,0,69.92934917052851,53.58949958224563,76.6337742563043,0.11812904141135296,0.09052674292631246,0.392578125,,
