Time (s),ESC signal (µs),Servo 1 (µs),Servo 2 (µs),Servo 3 (µs),AccX (g),AccY (g),AccZ (g),Torque (N·m),Thrust (N),Voltage (V),Current (A),Motor Electrical Speed (RPM),Motor Optical Speed (RPM),Electrical Power (W),Mechanical Power (W),Motor Efficiency (%),Propeller Mech. Efficiency (N/W),Overall Efficiency (N/W),Vibration (g),App message,90% settling time (s),Max acceleration (RPM/s),
0,1000,,,,-0.0625,0.05078125,-0.953125,0.0017606257944278684,0.05014607210520624,22.7086193857627,0.052904788445407414,0,0,1.2013947044910531,0,0,0,0,0.060546875,,
0,1200,,,,-0.0625,0.048828125,-0.955078125,0.0017606257944278684,0.05014607210520624,22.708629978725718,0.05332355506991936,0,0,1.2109048812330023,0,0,0,0,0.060546875,,
0.007410000000614673,1200,,,,-0.0625,0.05078125,-0.95703125,0.0017606257944278684,0.05285900812151883,22.708602845608908,0.053468594536332875,0,0,1.2141970780384777,0,0,0,0,0.060546875,,
0.01744000000040978,1200,,,,-0.0625,0.046875,-0.95703125,0.0017606257944278684,0.05285900812151883,22.708439105586383,0.05308669781104766,0,0,1.2055160445588418,0,0,0,0,0.060546875,,
0.03198500000033527,1200,,,,-0.0625,0.05078125,-0.95703125,0.0017606257944278684,0.05285900812151883,22.708649509242637,0.0534267915566225,0,0,1.2132502838627042,0,0,0,0,0.060546875,,
0.046479999999981376,1200,,,,-0.0625,0.05078125,-0.94921875,0.0017606257944278684,0.05285900812151883,22.70859523237201,0.05233236583370314,0,0,1.188394513269979,0,0,0,0,0.060546875,,
0.05422000000020489,1200,,,,0,0.01171875,-0.984375,0.0017606257944278684,0.05285900812151883,22.707301282484856,0.10107181421273541,0,0,2.295068136495918,0,0,0,0,0.0625,,
0.06144499999983236,1200,,,,-0.1875,0.125,-0.96875,0.0017606257944278684,0.05285900812151883,22.706206729241377,0.13717558915388467,0,0,3.1147372855335864,0,0,0,0,0.064453125,,
0.06935500000044703,1200,,,,0.03125,-0.001953125,-0.994140625,0.0017606257944278684,0.05285900812151883,22.705034074808587,0.17299481753752852,0,0,3.927853226954879,0,0,0,0,0.064453125,,
0.07703500000014901,1200,,,,-0.25,0.125,-0.96484375,0.0017606257944278684,0.05285900812151883,22.704008156932925,0.20512907102630568,0,0,4.657252101805318,0,0,0,0,0.06640625,,
0.08449500000011176,1200,,,,0.03125,0.029296875,-0.99609375,0.0018202862245575483,0.05285900812151883,22.703310863781283,0.22957650767926827,0,0,5.2121468208636985,0,0,0,0,0.068359375,,
0.09131500000040978,1200,,,,-0.1875,-0.0234375,-1.0390625,0.0018202862245575483,0.05285900812151883,22.70265406544642,0.24775005286440446,0,0,5.624583744876638,0,0,0,0,0.068359375,,
0.10572999999998137,1200,,,,0,0.078125,-1.03125,0.0018202862245575483,0.05285900812151883,22.701599951826275,0.27676128546791184,0,0,6.282923984845725,0,0,0,0,0.0703125,,
0.11269499999983236,1200,,,,-0.09375,0.033203125,-0.970703125,0.0018202862245575483,0.05285900812151883,22.70153167971499,0.28571646800230405,0,0,6.486201449770579,0,0,0,0,0.072265625,,
0.1207050000000745,1200,,,,-0.0625,0.03125,-1.03515625,0.0018202862245575483,0.05285900812151883,22.701209017937348,0.2959867104848375,0,0,6.719256181248004,0,0,0,0,0.072265625,,
0.1286300000003539,1200,,,,0,0.076171875,-0.935546875,0.0018202862245575483,0.05285900812151883,22.70068262452039,0.3255434245341883,0,0,7.390057960850113,0,0,0,0,0.07421875,,
0.13664000000059603,1200,,,,0.09375,-0.212890625,-1.076171875,0.0018202862245575483,0.05285900812151883,22.699752491168773,0.3499206181915133,0,0,7.943111424504122,0,0,0,0,0.078125,,
0.14460999999986962,1200,,,,-0.625,0.65234375,-0.81640625,0.0018202862245575483,0.05285900812151883,22.699315379043213,0.3599261524086977,0,0,8.170077246690603,0,0,0,0,0.087890625,,
0.15247500000009312,1200,,,,0.09375,0.046875,-0.974609375,0.0018202862245575483,0.06123307425641733,22.699152340240307,0.36422500291431026,0,0,8.267598827276398,0,0,0,0,0.08984375,,
0.16054000000003726,1200,,,,0.03125,0.05078125,-1.029296875,0.0018202862245575483,0.06123307425641733,22.69899656919665,0.36575769640230943,2,0,8.302332695793293,0.000445585610300252,0.005366992947970221,0,0.007375405985289352,0.08984375,,
0.171625,1200,,,,-0.1875,0.08984375,-0.90625,0.0018202862245575483,0.06123307425641733,22.6989804319853,0.36635175302973727,2,0,8.315811273245519,0.000445585610300252,0.005358293925378462,0,0.007363451651845762,0.08984375,,
0.18027500000037253,1200,,,,-0.0625,0.052734375,-0.953125,0.0018202862245575483,0.06123307425641733,22.698835863865874,0.3651312329955131,2,0,8.288053926536119,0.000445585610300252,0.005376239274621594,0,0.007388112432565804,0.08984375,,
0.18768999999994412,1200,,,,-0.09375,0.08203125,-1.029296875,0.0018202862245575483,0.06123307425641733,22.6990557288312,0.36308676169060833,2,0,8.241726638015972,0.000445585610300252,0.005406459469851061,0,0.0074296414993882814,0.091796875,,
0.19560499999998138,1200,,,,0,-0.03515625,-1.0625,0.0018202862245575483,0.06123307425641733,22.699239633703645,0.35986320110147985,2,0,8.168621037154177,0.000445585610300252,0.005454844927602214,0,0.00749613355521142,0.091796875,,
0.20357500000018627,1200,,,,0,0.0390625,-0.943359375,0.0018202862245575483,0.06123307425641733,22.699401176954915,0.355390557546439,2,0,8.067152840248301,0.000445585610300252,0.005523455661793773,0,0.007590419503510066,0.091796875,,
0.21026000000024214,1200,,,,-0.0625,-0.00390625,-0.94140625,0.0018202862245575483,0.06123307425641733,22.699426792330563,0.3518080513080079,2,0,7.9858411056186,0.000445585610300252,0.005579695418517046,0,0.007667705060314256,0.091796875,,
0.21802000000001862,1200,,,,0,-0.013671875,-0.94921875,0.0018202862245575483,0.06123307425641733,22.69962740921799,0.34714468414802974,2,0,7.880054987250937,0.000445585610300252,0.005654600266383427,0,0.007770640478459315,0.091796875,,
0.22600000000046566,1200,,,,-0.03125,0.013671875,-1.0234375,0.0018202862245575483,0.06123307425641733,22.699861414127778,0.3389182011310931,130,0,7.693396196401298,0.024815252139340088,0.3225526348291772,0,0.007959173386268606,0.091796875,,
0.23323500000033529,1200,,,,0,0.07421875,-0.984375,0.02928787603486951,0.06123307425641733,22.699867618439008,0.33302331120851847,404,0,7.559585078287585,1.240149325663856,16.404991978009164,0.04937556549783959,0.008100057559017246,0.091796875,,
0.2404849999998696,1200,,,,-0.0625,0.03125,-0.99609375,0.02928787603486951,0.06123307425641733,22.7000444297644,0.32816445300429764,519,0,7.449347663466888,1.5903994220828808,21.349512654410294,0.03850169548994358,0.008219924350788022,0.091796875,,
0.24854999999981373,1200,,,,-0.0625,0.0546875,-0.89453125,0.02928787603486951,0.06123307425641733,22.700432939863404,0.322007723371663,573,0,7.3097147305165215,1.7558991359725387,24.021445442214443,0.03487277429662964,0.008376944451851468,0.091796875,,
0.2567599999997765,1200,,,,-0.0625,0.05859375,-1.0078125,0.02928787603486951,0.06123307425641733,22.70060875393287,0.31534527774334314,594,0,7.158529772451927,1.8217535694840101,25.448711221327038,0.03361216098715309,0.008553861784868137,0.091796875,,
0.2647349999998696,1200,,,,-0.03125,0.068359375,-0.98828125,0.02928787603486951,0.06123307425641733,22.70077539735602,0.3097807416453233,602,0,7.032263038516857,1.8475588793075939,26.272607682451742,0.03314269165774329,0.008707449354643555,0.08984375,,
0.27276500000059606,1200,,,,-0.0625,0.1015625,-0.9921875,0.02928787603486951,0.06123307425641733,22.7009312525034,0.30352770370012994,606,0,6.890361534926871,1.85764262570672,26.9600167754686,0.03296278488071508,0.00888677233350241,0.08984375,,
0.2808100000000559,1200,,,,-0.0625,0.037109375,-0.951171875,0.02928787603486951,0.06123307425641733,22.7008852297766,0.29679716504027776,607,0,6.737558380102409,1.8617183612497104,27.63194403996263,0.03289062165950471,0.009088318171350168,0.08984375,,
0.2885800000000745,1200,,,,0,0,-1.0234375,0.02928787603486951,0.06123307425641733,22.700972677699074,0.2910811764743826,640,0,6.607825834137461,1.9642733659165905,29.72647002541635,0.03117339740939983,0.009266750636809158,0.08984375,,
0.2967400000002235,1200,,,,-0.03125,0.0390625,-0.96484375,0.02928787603486951,0.06123307425641733,22.700727964417986,0.2843508168878692,687,0,6.45497054063155,2.105791177746715,32.62278525504605,0.029078417130581433,0.009486189576076103,0.08984375,,
0.30468000000016765,1200,,,,-0.0625,0.076171875,-0.982421875,0.02928787603486951,0.11074134170200452,22.70079037020049,0.2782943145277763,705,0,6.317500895313691,2.161408721388155,34.21303387533327,0.05123572446347925,0.01752929576696257,0.08984375,,
0.311875,1200,,,,-0.0625,0,-1.015625,0.02928787603486951,0.11074134170200452,22.700816381700317,0.2719443605423424,712,0,6.1733589947106235,2.183050888472492,35.36244839062405,0.050727787559497355,0.01793858769543266,0.08984375,,
0.320410000000149,1200,,,,0,0.07421875,-1,0.02928787603486951,0.11074134170200452,22.700951645928818,0.26750493542050824,714,0,6.072616604028268,2.191185555405234,36.0830544439725,0.05053946318185007,0.018236182015598398,0.08984375,,
0.3289350000000559,1200,,,,-0.03125,0.017578125,-0.962890625,0.02928787603486951,0.11074134170200452,22.700751207679065,0.2747025482936132,716,0,6.235954204928756,2.1953259457197936,35.20433078204227,0.05044414562580827,0.017758523886284648,0.08984375,,
0.33702499999990687,1200,,,,0.03125,0.0078125,-0.9453125,0.02928787603486951,0.11074134170200452,22.699677680582813,0.3227892326247772,716,0,7.327211539345109,2.1967984583851785,29.98137076552213,0.05041033294579431,0.015113708824612746,0.08984375,,
0.344535000000149,1200,,,,-0.15625,0.126953125,-0.95703125,0.02928787603486951,0.11074134170200452,22.698657614539766,0.34721000920889855,741,0,7.881201119373987,2.271474929854987,28.82143083839247,0.04875305478677432,0.014051327966973748,0.091796875,,
0.352625,1200,,,,0.25,-0.125,-0.9453125,0.02928787603486951,0.11074134170200452,22.697084067681438,0.4135580643713744,765,0,9.386562153904697,2.346588309394478,24.99944357603093,0.04719248845596635,0.01179785952367422,0.09375,,
0.36083499999996277,1200,,,,-0.15625,0.193359375,-0.931640625,0.02928787603486951,0.11074134170200452,22.695066834249733,0.46700351052921674,775,0,10.598675883289824,2.3760938503921953,22.418780200066436,0.046606467873196875,0.010448601591506587,0.095703125,,
0.3687999999998137,1200,,,,-0.0625,0.0390625,-1.015625,0.02928787603486951,0.11074134170200452,22.69352660919635,0.5203632253178397,779,0,11.808876700197633,2.38777786278085,20.220194717935268,0.046378410415880617,0.00937780489317423,0.09765625,,
0.3758900000001304,1200,,,,0.0625,-0.01953125,-1.02734375,0.02928787603486951,0.11074134170200452,22.692334923063235,0.5538185220524027,780,0,12.567435389009004,2.3920196241579137,19.03347461209056,0.04629616771684718,0.008811769328756975,0.09765625,,
0.38380500000016765,1200,,,,-0.125,0.08203125,-1.0390625,0.08057061798699718,0.11074134170200452,22.69133464818507,0.5886331759593662,781,0,13.356872380717984,6.585867677978539,49.30695967033356,0.01681499646163486,0.008290963523906316,0.09765625,,
0.3916850000000559,1200,,,,-0.0625,0.20703125,-0.92578125,0.08057061798699718,0.11074134170200452,22.690395125526827,0.6194142472868395,904,0,14.054754017319171,7.628195217284796,54.27483972956655,0.014517371219220337,0.007879279962178059,0.099609375,,
0.39968500000005586,1200,,,,0.125,0.26953125,-0.9375,0.08057061798699718,0.11074134170200452,22.68955025693955,0.6431317028297736,954,0,14.59236909318726,8.046494631975717,55.141797610727814,0.01376268136213413,0.0075889899025173594,0.1015625,,
0.407785000000149,1200,,,,-0.15625,0.181640625,-0.876953125,0.08057061798699718,0.11074134170200452,22.688889788688932,0.660550451577561,973,0,14.987156395711986,8.209028258852094,54.77375455427155,0.013490188876203235,0.007389082943959203,0.103515625,,
0.41571500000031664,1200,,,,0.125,-0.01953125,-1.20703125,0.08057061798699718,0.11074134170200452,22.688517949047608,0.6765552868761855,981,0,15.350036769813387,8.273767504199773,53.9006363846017,0.013384633015828895,0.0072144023732752804,0.10546875,,
0.4238300000000745,1200,,,,-0.125,0.11328125,-0.904296875,0.08057061798699718,0.11074134170200452,22.68829741407071,0.6869733858162366,1071,0,15.586256492949921,9.034607621311034,57.965218430722146,0.012257460018605055,0.007105063473842856,0.107421875,,
0.43170000000018627,1200,,,,-0.0625,0.01953125,-0.904296875,0.08057061798699718,0.11074134170200452,22.68789124322052,0.6988328243555245,1150,0,15.855043116170767,9.704790783834138,61.209488443056294,0.01141099732788399,0.0069846130906486125,0.109375,,
0.4396900000004098,1200,,,,0.1875,0.0078125,-1.1015625,0.08057061798699718,0.11074134170200452,22.687700848146747,0.7061162011133668,1182,0,16.020153134889892,9.969565223774612,62.23139778896461,0.011107940939883468,0.006912626912462136,0.111328125,,
0.449105000000447,1200,,,,-0.0625,0.14453125,-1.013671875,0.08057061798699718,0.11074134170200452,22.687598153903057,0.7087713998339882,1195,0,16.080320702412877,10.085504719447371,62.719549604094816,0.010980247868851576,0.006886762008756928,0.11328125,,
0.45655500000016763,1200,,,,-0.125,0.03515625,-0.8828125,0.08057061798699718,0.20535677298387553,22.687703541786117,0.7078697129959488,1259,0,16.05993819466131,10.61881974320256,66.11992907128682,0.01933894518883145,0.01278689684199039,0.11328125,,
0.46498500000033527,1200,,,,-0.03125,0.083984375,-0.984375,0.08057061798699718,0.20535677298387553,22.68762054406507,0.7056415732389121,1287,0,16.009328253761538,10.862870308771836,67.85337983322009,0.018904466972973863,0.012827319780617597,0.11328125,,
0.4753600000003353,1200,,,,-0.03125,-0.0234375,-0.998046875,0.08057061798699718,0.20535677298387553,22.687835521807717,0.7022298262124512,1299,0,15.93207479561571,10.959860052566025,68.79116620505717,0.01873717109515422,0.01288951851019347,0.11328125,,
0.4824350000000559,1200,,,,-0.09375,0.08203125,-0.951171875,0.08057061798699718,0.20535677298387553,22.68809109782286,0.697774351643092,1304,0,15.831168055802753,11.002506556619206,69.49901938907375,0.018664544476942945,0.012971675384912871,0.11328125,,
0.48973500000033526,1200,,,,0.0625,0.03125,-1,0.08057061798699718,0.20535677298387553,22.688173385689204,0.6934381327957191,1358,0,15.73284458911785,11.455315641138316,72.81147141732887,0.017926766875493026,0.013052742739600788,0.11328125,,
0.4968549999999814,1200,,,,-0.0625,0.080078125,-0.958984375,0.08057061798699718,0.20535677298387553,22.68834037312601,0.6878135645989485,1381,0,15.605348266874039,11.654436931458738,74.68232513719656,0.017620480010454857,0.013159384172142623,0.11328125,,
0.5048300000000745,1200,,,,-0.0625,0.02734375,-0.99609375,0.08057061798699718,0.20535677298387553,22.688580678675365,0.6811492858922815,1392,0,15.45431052718914,11.745395371687158,76.0007724124813,0.017484023865122322,0.013287993186275535,0.111328125,,
0.512625,1200,,,,-0.0625,0.111328125,-0.9765625,0.08057061798699718,0.20535677298387553,22.688552107743284,0.6739525866645727,1406,0,15.29100838068753,11.866946553888853,77.60735105525643,0.017304937883669762,0.013429903893273656,0.111328125,,
0.5197800000002608,1200,,,,0,-0.01171875,-0.9453125,0.08057061798699718,0.20535677298387553,22.688869892040305,0.6657593970763958,1430,0,15.105328339669542,12.067401659659463,79.88837705677744,0.017017480545987777,0.013594989024142466,0.111328125,,
0.5277800000002608,1200,,,,-0.03125,0.017578125,-0.951171875,0.08057061798699718,0.20535677298387553,22.68922239190068,0.6581796534552279,1442,0,14.933584531069787,12.16288038712606,81.44648970125564,0.01688389316080406,0.013751338304385286,0.111328125,,
0.5359750000000931,1200,,,,0,0.01953125,-0.9921875,0.0660723982800347,0.20535677298387553,22.689753889974213,0.6513171808687483,1446,0,14.778226538223722,10.004905523457676,67.70031233165967,0.02052560841303223,0.013895901003596237,0.109375,,
0.5438650000002235,1200,,,,-0.0625,0.08203125,-0.98828125,0.0660723982800347,0.20535677298387553,22.689960494886844,0.6445591507929579,1460,0,14.625021668110026,10.103744182497191,69.085327952221,0.02032481912394585,0.01404146794747372,0.109375,,
0.5517799999997951,1200,,,,0,-0.017578125,-0.9453125,0.0660723982800347,0.20535677298387553,22.690389946065373,0.6376150802346504,1472,0,14.467734806015978,10.186965338204462,70.41161228617845,0.02015877802329613,0.01419412062339462,0.109375,,
0.5597400000002235,1200,,,,-0.125,0.09765625,-0.9609375,0.0660723982800347,0.20535677298387553,22.69066043798823,0.6284413817385719,1477,0,14.259749998210074,10.219256783726838,71.66504872111776,0.0200950790580863,0.014401148197524678,0.109375,,
0.566785000000149,1200,,,,-0.03125,0.06640625,-0.958984375,0.0660723982800347,0.20535677298387553,22.690984000006644,0.6198846450006809,1479,0,14.065792561560247,10.231547292905017,72.74063831188822,0.020070940113454644,0.014599729953723729,0.109375,,
0.5746800000006334,1200,,,,0,0.0234375,-1.0234375,0.0660723982800347,0.20535677298387553,22.691233045537363,0.6110975991662363,1494,0,13.866558036249447,10.337952171912043,74.55312374481792,0.019864357037927178,0.014809498683598295,0.107421875,,
0.5809950000001117,1200,,,,-0.0625,-0.0078125,-0.962890625,0.0660723982800347,0.20535677298387553,22.691510613129648,0.603847459148906,1500,0,13.702211027988772,10.375245442482646,75.71949827140809,0.019792955657995177,0.014987126717316224,0.107421875,,
0.5894050000002607,1200,,,,0.0625,0,-0.96875,0.0660723982800347,0.20535677298387553,22.691618321253728,0.5948284531140955,1502,0,13.497620224686823,10.392664709688102,76.99627442977072,0.019759780452884308,0.015214294784222995,0.107421875,,
0.5967500000004656,1200,,,,-0.09375,0.05859375,-0.98046875,0.0660723982800347,0.20535677298387553,22.691835879200717,0.5858846677608203,1503,0,13.294798724968572,10.400854324209813,78.23250685755981,0.019744221636281513,0.015446399545575744,0.107421875,,
0.6044000000003725,1200,,,,0,0.091796875,-0.962890625,0.0660723982800347,0.5533424742474642,22.69192964548091,0.5776307841648683,1513,0,13.107557115333162,10.46553244373418,79.84350059777078,0.05287284495293462,0.04221553027605477,0.107421875,,
0.6118000000002793,1200,,,,0,0.01953125,-1.03125,0.0660723982800347,0.5533424742474642,22.69222327309186,0.5694403468200429,1517,0,12.921867490747276,10.495457577873843,81.2224516726327,0.052722091451639176,0.04282217525010885,0.107421875,,
0.6189000000003725,1200,,,,0,-0.03515625,-0.99609375,0.0660723982800347,0.5533424742474642,22.692386936968212,0.5624572483620812,1519,0,12.763497515334777,10.506688571517673,82.31825609629611,0.052665734829859416,0.043353514472239896,0.107421875,,
0.6295900000003166,1200,,,,-0.09375,0.021484375,-0.96875,0.0660723982800347,0.5533424742474642,22.69256537032695,0.5542011220997723,1522,0,12.576245191557632,10.527764824029768,83.71151057946136,0.05256029969290845,0.04399902083802565,0.107421875,,
0.6374000000003726,1200,,,,-0.09375,0.021484375,-0.974609375,0.0660723982800347,0.5533424742474642,22.692727374650957,0.5440505144612859,1528,0,12.34599000270856,10.573645278768897,85.64436935757415,0.052332233554168425,0.04481961139820036,0.107421875,,
0.6452799999997951,1200,,,,-0.03125,0.08203125,-0.99609375,0.0660723982800347,0.5533424742474642,22.692867428788045,0.53685324430137,1530,0,12.18273950164575,10.584766368720835,86.88330212831814,0.0522772496786186,0.04542020078264941,0.107421875,,
0.6527700000004842,1200,,,,-0.0625,0.078125,-0.9609375,0.0660723982800347,0.5533424742474642,22.693088496445768,0.5300591153661892,1531,0,12.028678413352688,10.590058060748945,88.04007968982883,0.052251127526710746,0.04600193431335023,0.107421875,,
0.6700849999999627,1200,,,,0,0.033203125,-0.943359375,0.0660723982800347,0.5533424742474642,22.69357033915914,0.5135494035867911,1538,0,11.654269512930071,10.639299213514422,91.29100027857113,0.05200929714849909,0.04747980760471919,0.10546875,,
0.6779699999997393,1200,,,,-0.0625,0.109375,-0.984375,0.060340698752449885,0.5533424742474642,22.693764321350884,0.508366702629584,1538,0,11.536754138298049,9.72020116259933,84.25421089916108,0.05692705994363309,0.04796344514360047,0.10546875,,
0.6857000000001863,1200,,,,-0.03125,0.078125,-0.95703125,0.060340698752449885,0.5533424742474642,22.694166730816804,0.5022022643510952,1543,0,11.397061919777489,9.747402195911409,85.5255702261001,0.056768199682943846,0.04855132648592888,0.10546875,,
0.6927600000002422,1200,,,,-0.125,0.09375,-0.96875,0.060340698752449885,0.5533424742474642,22.694419735178442,0.4958713256505951,1544,0,11.253511998953963,9.75746017588977,86.70591169047267,0.056709683080720906,0.0491706477319168,0.103515625,,
0.6998300000000746,1200,,,,0,0.044921875,-0.984375,0.060340698752449885,0.5533424742474642,22.694658502087734,0.49128724947054025,1545,0,11.149596353163894,9.761801219792881,87.55295627381882,0.05668446445370301,0.049628924377198964,0.103515625,,
0.7078300000000745,1200,,,,-0.0625,0.08203125,-0.9375,0.060340698752449885,0.5533424742474642,22.694724905677454,0.48524823193542566,1545,0,11.012575134740855,9.763867011694908,88.661070569165,0.05667247142804023,0.05024641988610462,0.103515625,,
0.7147999999998137,1200,,,,-0.125,0.076171875,-1.013671875,0.060340698752449885,0.5533424742474642,22.694779770138812,0.4791390406538554,1548,0,10.873955006914835,9.7805128794352,89.94439349082917,0.05657601815656709,0.05088695639218566,0.103515625,,
0.7229850000003353,1200,,,,-0.0625,0.052734375,-0.994140625,0.060340698752449885,0.5533424742474642,22.695035978497465,0.4750214823716483,1549,0,10.780629632983757,9.788344981095886,90.79567070134812,0.05653074910172536,0.051327472799407865,0.103515625,,
0.7309500000001863,1200,,,,-0.125,-0.01171875,-0.96484375,0.060340698752449885,0.5533424742474642,22.695278669518544,0.4696380873993842,1550,0,10.65856726734873,9.791429667368476,91.86440749277224,0.05651293968760941,0.051915277200770125,0.103515625,,
0.7386499999999069,1200,,,,-0.0625,0.046875,-0.9765625,0.060340698752449885,0.5533424742474642,22.69531379525621,0.4650703947866321,1550,0,10.554918546566304,9.796063222371028,92.81041041816334,0.056486208968497625,0.05242508237332404,0.103515625,,
0.7469350000005215,1200,,,,0,-0.03515625,-0.96875,0.060340698752449885,0.5533424742474642,22.695480068110633,0.46053456204201315,1551,0,10.45205297350057,9.79965134971696,93.75814851457733,0.05646552662952098,0.05294103231684449,0.103515625,,
0.7548300000000745,1200,,,,-0.03125,-0.005859375,-0.986328125,0.060340698752449885,0.8681851243341793,22.69550535419684,0.4561011435345967,1551,0,10.351445945144741,9.801038059551534,94.68279225424182,0.08858093592322044,0.08387090353704589,0.103515625,,
0.7630400000000372,1200,,,,0.03125,-0.01953125,-0.998046875,0.060340698752449885,0.8681851243341793,22.695828118021794,0.45372452450822454,1551,0,10.297653821169831,9.801597184469081,95.18281887005212,0.0885758828887443,0.08430902217254298,0.103515625,,
0.7710649999999442,1200,,,,-0.0625,0.04296875,-0.98828125,0.060340698752449885,0.8681851243341793,22.695836604405862,0.4493632022693774,1553,0,10.198673814738372,9.813872888083653,96.22695133068542,0.08846508755869052,0.08512725674974937,0.103515625,,
0.780625,1200,,,,-0.0625,0.111328125,-0.97265625,0.060340698752449885,0.8681851243341793,22.696229424165107,0.44425248211650925,1554,0,10.0828562563711,9.818664120519095,97.37978873114383,0.08842191907958655,0.08610507799172434,0.103515625,,
0.7885449999999254,1200,,,,-0.03125,0.142578125,-0.978515625,0.060340698752449885,0.8681851243341793,22.69639997132293,0.44063551018589464,1554,0,10.000839780747004,9.820825980137558,98.2000131533354,0.08840245475177627,0.08681122219411568,0.103515625,,
0.7972700000004843,1200,,,,-0.09375,0.072265625,-0.98046875,0.060340698752449885,0.8681851243341793,22.696380085778998,0.4364249846587852,1555,0,9.905267330746057,9.827556057596286,99.2154550649173,0.08834191524790222,0.08764883322626975,0.103515625,,
0.8049250000002794,1200,,,,-0.0625,0.04296875,-0.94921875,0.060340698752449885,0.8681851243341793,22.696489466504744,0.43383095888611223,1556,0,9.846439788602298,9.830121382325485,99.83427099919199,0.08831886103615895,0.08817249107023871,0.1015625,,
0.8131899999999441,1200,,,,-0.03125,0.107421875,-0.9609375,0.060340698752449885,0.8681851243341793,22.69656404503446,0.43000134326001516,1556,0,9.759553026751782,9.831170362363721,100.73381778259343,0.08830943746614522,0.08895746782198001,0.1015625,,
0.820910000000149,1200,,,,-0.09375,-0.021484375,-0.994140625,0.060340698752449885,0.8681851243341793,22.696601866029518,0.42701535664695184,1556,0,9.691797540496466,9.834465785866474,101.47205144116846,0.08827984592532569,0.08957937066953073,0.1015625,,
0.8278400000003167,1200,,,,-0.0625,0.02734375,-0.99609375,0.060340698752449885,0.8681851243341793,22.69674737942009,0.42454148383724183,1557,0,9.635710810738034,9.837006579973814,102.08905988556086,0.0882570441806587,0.09010078668681856,0.1015625,,
0.8360400000005029,1200,,,,0.0625,0.0078125,-0.99609375,0.0453324370246551,0.8681851243341793,22.696809127531267,0.42117402816205046,1557,0,9.559306526667537,7.391198537467838,77.31940090893265,0.11746202188090757,0.09082093161383713,0.1015625,,
0.8440000000004657,1200,,,,0,0.01171875,-1.013671875,0.0453324370246551,0.8681851243341793,22.696769304244228,0.4186137264072724,1557,0,9.50117917585587,7.39155430835307,77.79617846947124,0.11745636818944263,0.09137656582041805,0.1015625,,
0.8511749999998137,1200,,,,-0.0625,0.064453125,-1.02734375,0.0453324370246551,0.8681851243341793,22.696796270011923,0.4162533458556694,1557,0,9.44761738759694,7.392975301416596,78.25227248430141,0.11743379207121428,0.09189461096021453,0.1015625,,
0.8581899999999442,1200,,,,0.0625,0.0078125,-0.96484375,0.0453324370246551,0.8681851243341793,22.696934519879047,0.4136611683594961,1557,0,9.388840451672145,7.39351628257355,78.7479169619585,0.1174251994792361,0.09246989857832297,0.1015625,,
0.865445000000298,1200,,,,-0.03125,0.125,-0.970703125,0.0453324370246551,0.8681851243341793,22.697066897426645,0.41202231050290244,1557,0,9.351697944716669,7.393752315405378,79.0632071214677,0.11742145088161222,0.09283716491556154,0.1015625,,
0.8727599999997765,1200,,,,-0.0625,0,-0.94140625,0.0453324370246551,0.8681851243341793,22.697078650219336,0.4105212312714675,1558,0,9.31763267375338,7.393856271496038,79.35337794892492,0.11741979996028715,0.09317657764935823,0.1015625,,
0.88125,1200,,,,-0.0625,0.056640625,-0.96875,0.0453324370246551,0.8681851243341793,22.69712387202638,0.4084979370774149,1558,0,9.271728279313324,7.394553860025624,79.75378092695006,0.11740872279361163,0.09363789556594708,0.1015625,,
0.8889300000001676,1200,,,,-0.0625,0.0390625,-0.90234375,0.0453324370246551,0.8681851243341793,22.697134461457754,0.40651856762580973,1558,0,9.22680659048221,7.394833498617237,80.1451014075149,0.11740428293571743,0.09409378161559646,0.1015625,,
0.896089999999851,1200,,,,-0.0625,0.02734375,-0.939453125,0.0453324370246551,0.8681851243341793,22.697255104977668,0.4054954530423536,1558,0,9.203633741610792,7.394931335804066,80.34795324775524,0.11740272964140779,0.0943306903238668,0.1015625,,
0.903730000000447,1200,,,,-0.125,-0.0078125,-1.0078125,0.0453324370246551,0.9972726566767117,22.69719453907104,0.40311466190143325,1559,0,9.14957190272868,7.400148443280425,80.87972335704009,0.13476387187641725,0.10899664675888221,0.1015625,,
0.9116899999999442,1200,,,,0,0.025390625,-1.025390625,0.0453324370246551,0.9972726566767117,22.697332415687363,0.4024070562247942,1559,0,9.133566721552349,7.402253902130706,81.04450460370221,0.1347255403370656,0.10918764674083581,0.1015625,,
0.9190150000001304,1200,,,,0,0.05859375,-0.9765625,0.0453324370246551,0.9972726566767117,22.697332497993777,0.39923446915558847,1559,0,9.061557491084432,7.403032557109165,81.69713169499755,0.13471136983168153,0.11005532521952406,0.099609375,,
0.9269199999999255,1200,,,,-0.0625,0.076171875,-0.98828125,0.0453324370246551,0.9972726566767117,22.697462401210597,0.39745372640284055,1560,0,9.021191011249517,7.40338755531349,82.06663118075419,0.13470491031648865,0.11054778193179843,0.099609375,,
0.9369200000003911,1200,,,,-0.0625,0.08984375,-0.998046875,0.0453324370246551,0.9972726566767117,22.69748871291837,0.39544011493902353,1559,0,8.97549754546363,7.401577454768148,82.46425802332297,0.13473785321725731,0.11111057093216523,0.099609375,,
0.9443100000000558,1200,,,,0,0.056640625,-0.984375,0.0453324370246551,0.9972726566767117,22.697579773016482,0.3930771286764684,1559,0,8.921899485082406,7.400782312747278,82.95074748512393,0.13475232948805782,0.11177806456396101,0.099609375,,
0.9520699999998323,1200,,,,-0.125,0.09765625,-0.9140625,0.0453324370246551,0.9972726566767117,22.697509719545906,0.39143828893909877,1559,0,8.884674367797613,7.40055716092926,83.29576138155927,0.13475642914316574,0.11224639366540133,0.099609375,,
0.9595750000001863,1200,,,,0,0.06640625,-0.98046875,0.0453324370246551,0.9972726566767117,22.697436901812598,0.3901549642874406,1559,0,8.85551768384313,7.400456423258859,83.56887409034226,0.13475826349607142,0.1126159635473636,0.099609375,,
0.9670600000000559,1200,,,,-0.125,0.037109375,-0.97265625,0.0453324370246551,0.9972726566767117,22.69737456746818,0.3889630097295772,1559,0,8.828439124721983,7.400418522846064,83.82476696387835,0.1347589536453918,0.11296137885621053,0.099609375,,
0.9760400000000372,1200,,,,-0.03125,-0.013671875,-0.96484375,0.0453324370246551,0.9972726566767117,22.697519228629673,0.3878738413485635,1559,0,8.803773972291475,7.400399834489678,84.0594029081312,0.13475929395448433,0.11327785786135286,0.099609375,,
0.9840950000002049,1200,,,,0.0625,0,-0.99609375,0.03776331005857142,0.9972726566767117,22.697510180773918,0.38695976948835664,1559,0,8.783023307511904,6.164754734651749,70.18943840646745,0.16177004594701824,0.11354548676009649,0.099609375,,
0.9908999999999069,1200,,,,-0.03125,-0.013671875,-0.98828125,0.03776331005857142,0.9972726566767117,22.697617780398094,0.3870359294603921,1559,0,8.784793594173099,6.165765327600775,70.18679791965164,0.1617435312064935,0.11352260539601029,0.099609375,,
0.9992400000002235,1200,,,,-0.0625,0.09765625,-0.982421875,0.03776331005857142,0.9972726566767117,22.697634038906592,0.38628103667654307,1559,0,8.76766560665363,6.166200409447682,70.32887299862645,0.16173211872074708,0.11374437637310196,0.09765625,,
1.0066750000002793,1200,,,,0.0625,0.08984375,-0.9453125,0.03776331005857142,0.9972726566767117,22.697617456415582,0.38533554687867566,1559,0,8.746198835410873,6.166422579481828,70.50402918483553,0.16172629167437205,0.11402355188165152,0.09765625,,
1.0141250000004656,1200,,,,-0.0625,0.041015625,-0.931640625,0.03776331005857142,0.9972726566767117,22.69763447924429,0.3846205699415782,1560,0,8.729977109732555,6.1690623036539565,70.66527467496357,0.16165708945523596,0.11423542629509408,0.09765625,,
1.021125,1200,,,,0,0.09375,-0.99609375,0.03776331005857142,0.9972726566767117,22.697621762911982,0.3824960537449649,1560,0,8.681750753709666,6.170163399830495,71.07049689481141,0.1616282409480612,0.11486999396413014,0.09765625,,
1.0294700000002048,1200,,,,-0.125,0.072265625,-0.99609375,0.03776331005857142,0.9972726566767117,22.697542278636206,0.38184349258191463,1560,0,8.666908816700118,6.17069176693834,71.19830031034986,0.1616144014873587,0.11506670691574418,0.09765625,,
1.0368900000001304,1200,,,,0,-0.03125,-0.953125,0.03776331005857142,0.9972726566767117,22.69772665027117,0.3812282250469033,1560,0,8.653014043482672,6.170899254644976,71.31502645939665,0.16160896743307582,0.11525147788565572,0.09765625,,
1.0442100000004284,1200,,,,0,0.005859375,-0.990234375,0.03776331005857142,0.9972726566767117,22.697825649276044,0.37956935419522975,1560,0,8.61539902333163,6.169957924174347,71.61546328226113,0.16163362358912114,0.11575466835325522,0.09765625,,
1.0521100000003352,1200,,,,-0.0625,-0.01171875,-1.01171875,0.03776331005857142,1.0468058717040083,22.697931998366478,0.3787435592545052,1560,0,8.596695552778044,6.169523428041034,71.76621982439912,0.16967370071830548,0.12176840104169215,0.09765625,,
1.0600450000003911,1200,,,,-0.03125,0.0625,-1.009765625,0.03776331005857142,1.0468058717040083,22.69773940863026,0.37763779966206706,1560,0,8.571524367578117,6.169351486213808,71.97496293132463,0.16967842957938573,0.12212598679221665,0.09765625,,
1.0683450000002048,1200,,,,-0.0625,0.138671875,-0.98046875,0.03776331005857142,1.0468058717040083,22.697850581985595,0.37626312818078933,1561,0,8.54036426295805,6.1711015591088,72.25806030165006,0.16963031019298,0.12257157182911955,0.09765625,,
1.0763250000001863,1200,,,,0,-0.04296875,-0.94140625,0.03776331005857142,1.0468058717040083,22.69782519986742,0.374634145473499,1562,0,8.503380347859183,6.175426265150856,72.62319233674623,0.16951151657519412,0.12310467471533869,0.09765625,,
1.0841900000004099,1200,,,,-0.0625,0.080078125,-0.923828125,0.03776331005857142,1.0468058717040083,22.69773579292226,0.37372967940300145,1562,0,8.482817521062866,6.177126509579899,72.81927843245562,0.16946485879487042,0.12340308737100444,0.09765625,,
1.0930850000004284,1200,,,,-0.09375,-0.013671875,-0.98046875,0.03776331005857142,1.0468058717040083,22.697660899761114,0.3729715519875786,1562,0,8.465581812271683,6.177751588316435,72.97492039308136,0.1694477119610574,0.12365433291147945,0.09765625,,
1.101415000000503,1200,,,,0,-0.01953125,-0.94921875,0.03776331005857142,1.0468058717040083,22.697744397936315,0.37233044360933903,1562,0,8.451061240615019,6.177468037168889,73.0969503271441,0.16945548975818833,0.12386679517516168,0.09765625,,
1.1088900000001305,1200,,,,-0.03125,0.041015625,-0.99609375,0.03776331005857142,1.0468058717040083,22.697849187439648,0.3715798924198464,1562,0,8.434064359230723,6.177389289374414,73.24332642320337,0.16945764993386367,0.12411641969014904,0.09765625,,
1.1161450000000186,1200,,,,-0.03125,0.08203125,-0.990234375,0.03776331005857142,1.0468058717040083,22.69776651374289,0.3708905216107081,1562,0,8.418386461680164,6.177357538300565,73.37935323377481,0.1694585209312641,0.1243475666588825,0.09765625,,
1.1265800000005401,1200,,,,0,0.1171875,-0.94921875,0.03776331005857142,1.0468058717040083,22.697998701069686,0.3690841372389136,1562,0,8.377471267634286,6.177341341212403,73.73754136380133,0.1694589652542263,0.12495487459900483,0.09765625,,
1.1333500000000931,1200,,,,-0.09375,0.06640625,-1.0078125,0.033827080637048014,1.0468058717040083,22.69799883751666,0.3688076419290447,1562,0,8.371195427772717,5.533447303566239,66.10104078096401,0.1891778875402599,0.12504855259155342,0.09765625,,
1.1407400000002235,1200,,,,-0.0625,0.0859375,-0.923828125,0.033827080637048014,1.0468058717040083,22.69808598738723,0.36769139093152714,1562,0,8.345890808185816,5.533445709916959,66.30143908053105,0.1891779420240698,0.12542769798489098,0.09765625,,
1.149605000000447,1200,,,,0.0625,-0.0234375,-0.9609375,0.033827080637048014,1.0468058717040083,22.698048762972082,0.3662602205746482,1562,0,8.313392346540276,5.533444967985879,66.56061373415983,0.18917796738928003,0.12591801614411352,0.09765625,,
1.1625650000004097,1200,,,,-0.09375,-0.0078125,-0.986328125,0.033827080637048014,1.0468058717040083,22.698209036525007,0.3654327792261621,1561,0,8.29466961167372,5.52920105247565,66.6596900338741,0.18932317015951344,0.12620223839063566,0.09765625,,
1.1780100000002423,1200,,,,-0.03125,0.046875,-0.998046875,0.033827080637048014,1.0468058717040083,22.69809854533377,0.3647138241422129,1560,0,8.27831032122548,5.527322772326154,66.76873127302525,0.18938750545654562,0.126451634582967,0.09765625,,
1.185975000000093,1200,,,,0,0.1171875,-0.990234375,0.033827080637048014,1.0468058717040083,22.698191437951046,0.36238899002605995,1560,0,8.225574670617242,5.526154139776544,67.18259040935635,0.1894275558058062,0.1272623389394697,0.09765625,,
1.1926650000000372,1200,,,,-0.125,0.1171875,-0.96484375,0.033827080637048014,1.0468058717040083,22.69810075990233,0.3617721455590857,1560,0,8.21154061202618,5.525733235575234,67.29228407495839,0.1894419848147148,0.12747983857875742,0.09765625,,
1.2003300000005401,1200,,,,0,0,-0.96484375,0.033827080637048014,1.0676067466753032,22.698002428789458,0.36089998230925124,1560,0,8.191708675005458,5.525529937032317,67.45271537660774,0.19321345804683118,0.13032772392563044,0.09765625,,
1.2080200000004844,1200,,,,-0.0625,0.060546875,-0.904296875,0.033827080637048014,1.0676067466753032,22.697915362948958,0.3635245960754574,1560,0,8.25125051407094,5.524767096260589,66.95672476358764,0.1932401362942354,0.1293872661913128,0.09765625,,
1.224035000000149,1200,,,,-0.09375,0.044921875,-1.0546875,0.033827080637048014,1.0676067466753032,22.69758761359131,0.37121989460143495,1559,0,8.4257960816242,5.523239861739106,65.55154917390806,0.19329356924563207,0.12670692909405254,0.09765625,,
1.2315750000001862,1200,,,,-0.03125,0.015625,-0.9921875,0.033827080637048014,1.0676067466753032,22.697699467672102,0.3702204999749561,1559,0,8.40315364520286,5.523085249976067,65.72633898142577,0.1932989802538227,0.12704834300926676,0.09765625,,
1.252010000000242,1200,,,,-0.0625,0.078125,-0.947265625,0.033827080637048014,1.0676067466753032,22.697574479466454,0.37418606722129494,1564,0,8.493116129933982,5.541730431829718,65.24967217035797,0.1926486247947666,0.1257025961192882,0.095703125,,
1.2594300000001677,1200,,,,-0.0625,0.01953125,-0.9609375,0.033827080637048014,1.0676067466753032,22.69750725989377,0.37758840735228205,1566,0,8.570315617130147,5.546844945956328,64.7215947901548,0.19247099154152358,0.124570295234098,0.095703125,,
1.2725200000000185,1200,,,,0,-0.0859375,-1.02734375,0.033827080637048014,1.0676067466753032,22.6973848377282,0.38537507065213394,1568,0,8.747006285458179,5.555027486252926,63.507756882353114,0.19218748229730975,0.1220539590156909,0.09765625,,
1.280160000000149,1200,,,,-0.041015625,0.056640625,-0.939453125,0.0322396618083737,1.0676067466753032,22.697229577279774,0.3879177780938936,1569,0,8.804658866505374,5.295860445925817,60.14838878167439,0.20159268877574532,0.12125475420026617,0.095703125,,
1.2947100000004284,1200,,,,0,0.07421875,-1.01171875,0.0322396618083737,1.0676067466753032,22.697469658211897,0.3835456833497668,1577,0,8.70551651036948,5.32406182619526,61.15733420129137,0.20052485893805788,0.12263565813741613,0.095703125,,
1.3032700000000186,1200,,,,-0.03125,0.080078125,-0.98828125,0.0322396618083737,1.0676067466753032,22.69760271603969,0.38073966143579463,1579,0,8.641877573509124,5.331558580026713,61.69444700732758,0.20024289907923212,0.12353874925837331,0.095703125,,
1.3113950000004844,1200,,,,-0.0625,0.080078125,-0.994140625,0.0322396618083737,1.0676067466753032,22.697622315116206,0.37889383656164416,1580,0,8.599989199801566,5.334255408592039,62.02630357623147,0.2001416626874818,0.12414047528105464,0.095703125,,
1.319125,1200,,,,-0.0625,0.005859375,-0.974609375,0.0322396618083737,1.0676067466753032,22.697673263160052,0.37630678670075096,1580,0,8.541288491243307,5.332941216975058,62.4371981164492,0.20019098340650177,0.12499364092078546,0.09375,,
1.3272400000002236,1200,,,,0,-0.03125,-1.0078125,0.0322396618083737,1.0676067466753032,22.697787364876127,0.3748943266220652,1579,0,8.509271709966056,5.332418673987241,62.66598195168588,0.20021060084485368,0.12546393899079783,0.09375,,
1.3359050000002608,1200,,,,-0.0625,0.099609375,-0.9609375,0.0322396618083737,1.0676067466753032,22.69799709096656,0.37201714500598937,1579,0,8.444044075135631,5.332210782108446,63.147595330650844,0.20021840664242335,0.12643310920403444,0.095703125,,
1.3433799999998883,1200,,,,0,0.046875,-0.94921875,0.0322396618083737,1.0676067466753032,22.69809449202244,0.37082592112968904,1577,0,8.417041797892944,5.325516121656088,63.27063889583198,0.2004700994771014,0.12683871273427197,0.09375,,
1.3514500000001863,1200,,,,-0.09375,0.046875,-0.9921875,0.0322396618083737,1.087844250046339,22.698188208665233,0.3681865701797655,1577,0,8.357168065843249,5.322836686780275,63.69187079694315,0.2043730277782323,0.13016900479631244,0.095703125,,
1.3604950000001117,1200,,,,-0.0625,0.037109375,-1.009765625,0.0322396618083737,1.087844250046339,22.69817797710276,0.36752675105940313,1576,0,8.342187606892672,5.3217209526648235,63.79287068859241,0.20441587593983235,0.13040275540525073,0.095703125,,
1.3684150000000372,1200,,,,0,0.095703125,-0.970703125,0.0322396618083737,1.087844250046339,22.69820190342957,0.366339176123752,1574,0,8.315240584792969,5.314127114564219,63.908278544372735,0.204707984320685,0.1308253488222342,0.09375,,
1.376295000000391,1200,,,,0,0.0390625,-0.98046875,0.0322396618083737,1.087844250046339,22.698159171847337,0.36476945763263785,1572,0,8.279595210374037,5.3074701036207195,64.10301432334094,0.2049647438059461,0.13138857907972468,0.09375,,
1.3843500000000932,1200,,,,-0.09375,0.064453125,-0.931640625,0.0322396618083737,1.087844250046339,22.698248993843727,0.3649850716189863,1571,0,8.284522034643636,5.304863603258268,64.03342982340754,0.20506545151852362,0.13131044199016764,0.09375,,
1.391589999999851,1200,,,,0,-0.0546875,-1.0078125,0.0322396618083737,1.087844250046339,22.698384682943953,0.36459732417326096,1571,0,8.275770318456697,5.303889354351258,64.08937355985432,0.205103119120289,0.13144930419591502,0.09375,,
1.4004900000002236,1200,,,,-0.03125,0.00390625,-0.974609375,0.0322396618083737,1.087844250046339,22.69836653747096,0.3629634836492922,1569,0,8.238678191588983,5.2969896956071825,64.29416919105999,0.2053702786978221,0.1320411144541292,0.09375,,
1.4145600000005216,1200,,,,0,0.037109375,-0.9609375,0.0322396618083737,1.087844250046339,22.698598449389813,0.3616921259000873,1568,0,8.209904328112227,5.293085504739424,64.47195111171908,0.20552176024216579,0.13250388878727362,0.09375,,
1.422355000000447,1200,,,,-0.09375,0.068359375,-0.939453125,0.0322396618083737,1.087844250046339,22.698667139135186,0.36205917894611267,1567,0,8.218260787566393,5.290889831274889,64.37967798831116,0.2056070499929901,0.13236915670675295,0.09375,,
1.4297050000000746,1200,,,,-0.0625,0.07421875,-0.98828125,0.0322396618083737,1.087844250046339,22.698822106927896,0.36117980022187973,1566,0,8.198356033852205,5.28671206562328,64.48502655646664,0.20576952868684117,0.1326905352188258,0.09375,,
1.4372000000001863,1200,,,,-0.03125,-0.03515625,-0.998046875,0.03220099360750063,1.087844250046339,22.698785143820707,0.36007312811976666,1565,0,8.17322257125401,5.278682560972932,64.58508274983913,0.20608252863870538,0.1330985716542688,0.095703125,,
1.4451500000003725,1200,,,,-0.125,0.1171875,-0.9609375,0.03220099360750063,1.087844250046339,22.69877944142497,0.35902515663033824,1565,0,8.149432844275102,5.277935095401784,64.76444675667807,0.20611171421832852,0.13348711141420583,0.095703125,,
1.4522650000001305,1200,,,,0.03125,-0.013671875,-1,0.03220099360750063,1.087844250046339,22.698832865980012,0.358900316994044,1565,0,8.14661831099505,5.276201077324594,64.76553676515802,0.20617945262199003,0.1335332291900965,0.095703125,,
1.459480000000447,1200,,,,-0.1875,0.16796875,-1,0.03220099360750063,1.087844250046339,22.698797538875674,0.3598919845068062,1564,0,8.169115292184175,5.274745967279864,64.56936618738251,0.2062363300136954,0.13316549113796167,0.095703125,,
1.46808000000054,1200,,,,0,0.0859375,-0.974609375,0.03220099360750063,1.087844250046339,22.69871485565853,0.35919111873313625,1564,0,8.153176782808446,5.274000870818932,64.68645303925629,0.2062654665199973,0.13342581413666096,0.095703125,,
1.4752949999999254,1200,,,,-0.125,0.05859375,-0.8828125,0.03220099360750063,1.087844250046339,22.69865795204614,0.3585298803481652,1564,0,8.13814711961103,5.2737805929649895,64.80321030639041,0.20627408191715055,0.13367222711234708,0.095703125,,
1.4835500000002795,1200,,,,-0.03125,0.091796875,-0.958984375,0.03220099360750063,1.087844250046339,22.698921240518093,0.3584135458508852,1563,0,8.135600848804064,5.271335084192022,64.7934329886269,0.20636977780233093,0.13371406368913152,0.095703125,,
1.491630000000354,1200,,,,-0.0625,-0.013671875,-0.958984375,0.03220099360750063,1.087844250046339,22.698875931968285,0.3570195676146973,1563,0,8.103942870570975,5.27037522081762,65.03470353865276,0.20640736275273705,0.1342364164481941,0.095703125,,
1.4993850000002422,1200,,,,-0.0625,-0.01171875,-0.95703125,0.03220099360750063,1.1074644283891533,22.69899596888637,0.35676624800010215,1563,0,8.098235625189034,5.270000006346716,65.07590357033727,0.21014505257218644,0.13675379176971061,0.095703125,,
1.5074350000000558,1200,,,,0,-0.01953125,-0.98828125,0.03220099360750063,1.1074644283891533,22.69904485679807,0.35547015468886034,1562,0,8.06883298653539,5.268461664225652,65.29397340380238,0.2102064129856255,0.13725211938792134,0.095703125,,
1.5152000000001862,1200,,,,0,0.044921875,-0.9453125,0.03220099360750063,1.1074644283891533,22.698993362837435,0.3551832444391749,1562,0,8.062302108115897,5.267846111481004,65.33922992265619,0.21023097580156921,0.137363300647631,0.095703125,,
1.523630000000354,1200,,,,-0.0625,0.13671875,-0.97265625,0.03220099360750063,1.1074644283891533,22.698977343964536,0.3556584773747281,1562,0,8.073083720117877,5.267605142052043,65.24898446086137,0.21024059293057237,0.13717985181169198,0.095703125,,
1.532535000000149,1200,,,,-0.0625,0.00390625,-0.943359375,0.03220099360750063,1.1074644283891533,22.698815164361005,0.35970687876467083,1562,0,8.164919954428475,5.266688043800278,64.50385396544814,0.21027720251872778,0.13563689963530978,0.095703125,,
1.5411750000002793,1200,,,,-0.0625,0.08984375,-0.9609375,0.03220099360750063,1.1074644283891533,22.69867513657346,0.3638502224509038,1561,0,8.258917997783053,5.26481096239755,63.7469819147107,0.21035217338265522,0.13409316192344212,0.095703125,,
1.5516100000003352,1200,,,,-0.0625,0.056640625,-0.947265625,0.03220099360750063,1.1074644283891533,22.698674820232327,0.3651094345396739,1561,0,8.287500328414959,5.264037931188698,63.517800574198965,0.2103830638885749,0.13363069496263458,0.095703125,,
1.559375,1200,,,,0,-0.03125,-0.955078125,0.03220099360750063,1.1074644283891533,22.69867449515656,0.36535569799634304,1562,0,8.293090063769714,5.267703081292317,63.51918332957095,0.21023668405347193,0.13354062476993567,0.095703125,,
1.5663850000002422,1200,,,,-0.03125,0.08984375,-1,0.03220099360750063,1.1074644283891533,22.698908589986193,0.36409259668556804,1564,0,8.264504570456419,5.275442210246026,63.83252819660166,0.2099282646368911,0.13400251871698005,0.095703125,,
1.574545000000391,1200,,,,-0.0625,0.05859375,-0.98828125,0.03220099360750063,1.1074644283891533,22.69896114192409,0.3637113528491851,1565,0,8.255869865200294,5.27896628205555,63.94197544594506,0.20978812313192563,0.13414267018152487,0.09375,,
1.5826850000000559,1200,,,,-0.0625,0.03515625,-0.951171875,0.03368985163491241,1.1074644283891533,22.69888077366216,0.36419642495616605,1566,0,8.266851228274012,5.524535504066503,66.8275665246239,0.2004629036366895,0.13396448028500138,0.095703125,,
1.5905200000000186,1200,,,,-0.125,0.072265625,-0.984375,0.03368985163491241,1.1074644283891533,22.698838351842547,0.3634951856649777,1566,0,8.250918461082323,5.523658529386594,66.94598371612102,0.2004947305300094,0.1342231696523008,0.095703125,,
1.5975,1200,,,,0.0625,-0.03515625,-0.97265625,0.03368985163491241,1.1074644283891533,22.698888745627297,0.362330852455805,1566,0,8.224507709002616,5.523328443981799,67.15694895556992,0.2005067125051821,0.13465419056959643,0.095703125,,
1.6045650000004097,1200,,,,0,0.0234375,-1.013671875,0.03368985163491241,1.1074644283891533,22.699022864994507,0.3615038524442291,1566,0,8.205784212415157,5.523185470770563,67.30844155533744,0.20051190282310877,0.13496143692318716,0.095703125,,
1.6124599999999627,1200,,,,-0.0625,0.05859375,-0.9921875,0.03368985163491241,1.1074644283891533,22.698940153237707,0.36060419805719535,1566,0,8.185333110706555,5.523118471033604,67.47579354845402,0.20051433518895728,0.1352986388471559,0.095703125,,
1.6206250000004656,1200,,,,0,0.08203125,-0.994140625,0.03368985163491241,1.1074644283891533,22.698991725161086,0.36038868490412895,1565,0,8.18045977648051,5.519692053005202,67.47410541489084,0.2006388069758698,0.13537924012207775,0.095703125,,
1.6285250000003726,1200,,,,-0.09375,0.060546875,-0.978515625,0.03368985163491241,1.1074644283891533,22.699106666958755,0.35868967046911904,1564,0,8.141935090314819,5.518322697322617,67.77654987555599,0.20068859491063715,0.1360198056241605,0.095703125,,
1.6365050000003538,1200,,,,-0.0625,0.09375,-0.96875,0.03368985163491241,1.1074644283891533,22.699085028013418,0.35963837903052365,1564,0,8.163462144950774,5.5177806767269315,67.59118348015815,0.20070830887864963,0.1356611213140906,0.095703125,,
1.6445100000002422,1200,,,,-0.03125,0.029296875,-1.0078125,0.03368985163491241,1.1074644283891533,22.699227186851907,0.3601045421501622,1563,0,8.17409481328382,5.515626086872907,67.47690371671978,0.20078671232353823,0.135484656550521,0.095703125,,
1.652595000000205,1200,,,,-0.125,0.0078125,-0.96875,0.03368985163491241,1.1236140988008099,22.69926579472021,0.3599081412691663,1563,0,8.169650560352515,5.513779310773439,67.4910055214837,0.20378292917987612,0.13753514798463137,0.095703125,,
1.6608849999997766,1200,,,,0,-0.03515625,-0.982421875,0.03368985163491241,1.1236140988008099,22.699302563421615,0.36069772705023895,1563,0,8.18758684025184,5.513060462265837,67.33437543724742,0.2038095004564871,0.13723385421414952,0.095703125,,
1.6680150000001304,1200,,,,-0.0625,0.025390625,-0.990234375,0.03368985163491241,1.1236140988008099,22.69933482601574,0.3606890506253647,1562,0,8.187401528222896,5.5124795303010545,67.32880403262153,0.20383097889516258,0.13723696033809818,0.095703125,,
1.6757600000002422,1200,,,,0,0.1875,-0.984375,0.03368985163491241,1.1236140988008099,22.699276717976183,0.36020821230039707,1562,0,8.176465887094226,5.511638267506898,67.40856433103323,0.203862090410563,0.13742050836099348,0.095703125,,
1.683880000000354,1200,,,,-0.0625,0.10546875,-0.96484375,0.03368985163491241,1.1236140988008099,22.69931301398172,0.36065701991298155,1562,0,8.186666585694606,5.511245842311703,67.31977886997453,0.20387660629733545,0.13724928052697477,0.095703125,,
1.6916900000004098,1200,,,,-0.0625,0.03125,-0.955078125,0.03368985163491241,1.1236140988008099,22.69901838661484,0.3597936445962599,1562,0,8.166962554077667,5.511094442342085,67.4803442020248,0.2038822071652433,0.13758041516179143,0.095703125,,
1.6987450000005775,1200,,,,-0.03125,0.041015625,-0.9921875,0.03368985163491241,1.1236140988008099,22.699147006416496,0.3604799074498667,1562,0,8.182586412063937,5.511039253339974,67.35082253717252,0.20388424889549495,0.13731771865485193,0.095703125,,
1.7091500000003725,1200,,,,-0.125,-0.0234375,-0.9453125,0.03368985163491241,1.1236140988008099,22.699287164449444,0.3583488813610515,1562,0,8.134264163073732,5.511013349069282,67.75060704429852,0.20388520724424838,0.13813346558150438,0.095703125,,
1.716850000000093,1200,,,,0,0.013671875,-1.013671875,0.03368985163491241,1.1236140988008099,22.69926894601818,0.3592473014281151,1562,0,8.154651113248045,5.511001813511682,67.58108638833744,0.20388563401412282,0.13778812645649385,0.095703125,,
1.7246099999998696,1200,,,,0,0.0390625,-1.021484375,0.03368985163491241,1.1236140988008099,22.699120311904874,0.35910730452766326,1562,0,8.15141991035729,5.509753633765407,67.59256294433622,0.2039318222715021,0.13784274533239693,0.095703125,,
1.733255000000354,1200,,,,-0.0625,0.072265625,-0.974609375,0.03339063517720493,1.1236140988008099,22.699166168630015,0.35963215001819676,1561,0,8.163349932844726,5.459600305871547,66.87941042322818,0.20580519375977305,0.13764130020691862,0.095703125,,
1.740385000000242,1200,,,,-0.0625,0.1640625,-1,0.03339063517720493,1.1236140988008099,22.69889900730601,0.35947340245147075,1561,0,8.159650458058604,5.459172220981637,66.90448627722859,0.2058213321210753,0.1377037049045539,0.095703125,,
1.7476000000005587,1200,,,,-0.0625,0.0859375,-1,0.03339063517720493,1.1236140988008099,22.698773111699918,0.36215817764616814,1561,0,8.220546304937084,5.458999578948374,66.40677366746071,0.20582784126487583,0.1366836286933864,0.095703125,,
1.7550499999998137,1200,,,,-0.03125,0.05078125,-0.9375,0.03339063517720493,1.1236140988008099,22.69863774138242,0.3631374324983183,1561,0,8.24272503061504,5.457958646954896,66.21546426312908,0.20586709637818465,0.13631585363183835,0.095703125,,
1.7637050000000745,1200,,,,-0.0625,0.029296875,-0.94921875,0.03339063517720493,1.1236140988008099,22.698705048128616,0.36536078530473654,1561,0,8.293216701784859,5.457544446923018,65.80732957030352,0.2058827206499999,0.13548592050645278,0.095703125,,
1.7715800000005402,1200,,,,-0.0625,-0.03125,-0.98828125,0.03339063517720493,1.1236140988008099,22.698703193387285,0.3653355145299086,1561,0,8.292642410317823,5.4573815679717965,65.80992279591901,0.2058888653480014,0.13549530333091336,0.095703125,,
1.7786550000002608,1200,,,,-0.03125,-0.0078125,-0.970703125,0.03339063517720493,1.1236140988008099,22.698758978845053,0.3657811299480558,1561,0,8.30277770770052,5.459712163988245,65.75765793325485,0.20580097724053373,0.13532990263712583,0.095703125,,
1.7866100000003353,1200,,,,-0.03125,0.060546875,-0.978515625,0.03339063517720493,1.1236140988008099,22.698527870666034,0.3646826495346064,1562,0,8.277759284409596,5.4620797255364115,65.98500316170995,0.20571177193691798,0.1357389192165849,0.095703125,,
1.7944150000000372,1200,,,,0.0625,0.0859375,-0.9921875,0.03339063517720493,1.1236140988008099,22.698469013343246,0.365332972754732,1562,0,8.292499161625855,5.463029612099033,65.87916990549245,0.20567600371638645,0.13549764394314517,0.095703125,,
1.8018500000000932,1200,,,,-0.125,0.09375,-0.93359375,0.03339063517720493,1.132065266929888,22.698448620696215,0.3652170699790827,1562,0,8.289860898321423,5.4633783735976165,65.90434315615443,0.20720974999658073,0.13656022469075624,0.095703125,,
1.8097450000001118,1200,,,,-0.03125,0.021484375,-0.921875,0.03339063517720493,1.132065266929888,22.698620122479998,0.36415190040479767,1563,0,8.265745654167672,5.464814467452113,66.11399256758764,0.2071552975260835,0.1369586380097589,0.095703125,,
1.8177750000003725,1200,,,,-0.0625,0.01953125,-1.025390625,0.03339063517720493,1.132065266929888,22.69849112847503,0.362475126348331,1563,0,8.227638439710457,5.466039779595049,66.4350994474109,0.20710885990181305,0.1375929770401684,0.095703125,,
1.8256400000001305,1200,,,,-0.0625,-0.0390625,-0.94140625,0.03339063517720493,1.132065266929888,22.69849980059328,0.3610982275611709,1563,0,8.196388046291824,5.466520469037289,66.69426140103786,0.20709064812653238,0.138117578198613,0.095703125,,
1.8326699999999254,1200,,,,0,0.037109375,-1.005859375,0.03339063517720493,1.132065266929888,22.6983931998893,0.35977697034570777,1563,0,8.166359137171787,5.465132370352342,66.9225082873964,0.20714324744835094,0.1386254569404047,0.095703125,,
1.8406049999999814,1200,,,,0,0.03515625,-0.9765625,0.03339063517720493,1.132065266929888,22.698406681196445,0.3602363696560607,1562,0,8.17679161981108,5.46279107245946,66.8084907437775,0.20723202698290438,0.13844858956501616,0.09375,,
1.8484950000001117,1200,,,,-0.0625,0.06640625,-0.962890625,0.03339063517720493,1.132065266929888,22.69828870227372,0.3600370306717489,1562,0,8.172224465696736,5.46186060183244,66.83444176991019,0.20726733057780403,0.1385259633630697,0.09375,,
1.8554900000002235,1200,,,,-0.0625,0.05078125,-0.94921875,0.03339063517720493,1.132065266929888,22.698419718025637,0.359310444106523,1562,0,8.15577926940005,5.461519335294076,66.9650214270185,0.20728028180988428,0.13880528512797335,0.09375,,
1.875475000000093,1200,,,,-0.09375,0.111328125,-0.921875,0.03339063517720493,1.132065266929888,22.69854226308982,0.3581017045253914,1561,0,8.1283866746541,5.459390918320156,67.16450799939925,0.20736109281550077,0.13927305777170873,0.09375,,
1.8827800000002608,1200,,,,-0.09375,-0.046875,-0.962890625,0.03329530942862358,1.132065266929888,22.698433927259142,0.35857442133525513,1561,0,8.13907781068347,5.443512760427671,66.88119817803485,0.20796594345467226,0.13909011478473923,0.095703125,,
1.8896100000003353,1200,,,,0,-0.08203125,-1.0078125,0.03329530942862358,1.132065266929888,22.698589154581118,0.35790288274614784,1561,0,8.123890492695029,5.44218358087079,66.98986877979682,0.20801673631684972,0.13935013869867358,0.095703125,,
1.8968450000002048,1200,,,,-0.03125,0.029296875,-0.966796875,0.03329530942862358,1.132065266929888,22.698650224549937,0.35726412372348093,1561,0,8.109413382179627,5.441013183249441,67.09502804735575,0.20806148208113776,0.13959890975808345,0.095703125,,
1.9048100000000558,1200,,,,0,0.0390625,-1.015625,0.03329530942862358,1.132065266929888,22.69858588377889,0.35784722839951977,1560,0,8.12262604709874,5.4404683599810335,66.97918048220716,0.20808231792268608,0.139371831272996,0.095703125,,
1.9127100000004285,1200,,,,-0.03125,0.099609375,-0.98046875,0.03329530942862358,1.132065266929888,22.698655315758828,0.35936138501587406,1560,0,8.157020212269025,5.44025230215887,66.69411329858117,0.2080905818431707,0.13878416841816105,0.09375,,
1.919899999999907,1200,,,,-0.0625,0.087890625,-0.97265625,0.03329530942862358,1.132065266929888,22.698627399038138,0.36145157486028856,1561,0,8.20445462054923,5.443732582750614,66.35093780781001,0.20795754562173538,0.13798178176212572,0.09375,,
1.9275150000001304,1200,,,,-0.0625,0.1015625,-0.9921875,0.03329530942862358,1.132065266929888,22.698629475590522,0.3626907755606994,1562,0,8.232583528666877,5.445388196968881,66.1443419068554,0.207894318271017,0.13751032868210766,0.09375,,
1.9340200000004844,1200,,,,-0.09375,0.087890625,-0.978515625,0.03329530942862358,1.132065266929888,22.698348502017545,0.36186176864391756,1562,0,8.213664534236086,5.44598506929587,66.30396270259136,0.2078715333452533,0.13782706393854152,0.095703125,,
1.9411850000005215,1200,,,,-0.0625,0.04296875,-0.96484375,0.03329530942862358,1.132065266929888,22.698247579854403,0.36077810081708295,1562,0,8.18903065373582,5.44625063706866,66.50665832572128,0.20786139720135985,0.13824166922777875,0.09375,,
1.9479799999999814,1200,,,,0,0.017578125,-1.01953125,0.03329530942862358,1.1358768673570359,22.698152279642528,0.36113520114341485,1563,0,8.197101789092565,5.450363164689839,66.4913441960955,0.20840388668333343,0.13857054561265605,0.09375,,
1.9559150000000372,1200,,,,-0.0625,0.04296875,-0.9609375,0.03329530942862358,1.1358768673570359,22.698234026115966,0.36091559042894894,1564,0,8.192146535230103,5.452221989734829,66.55425371467291,0.20833283558439256,0.138654363965809,0.09375,,
1.9638250000001862,1200,,,,-0.0625,0.109375,-0.974609375,0.03329530942862358,1.1358768673570359,22.69812451469425,0.3603635285722277,1564,0,8.179576242087004,5.4530640319128505,66.66682809134757,0.20830066559086194,0.13886744664259268,0.09375,,
1.9716949999998323,1200,,,,-0.0625,0.01171875,-0.9453125,0.03329530942862358,1.1358768673570359,22.69834567494834,0.35952541985142455,1564,0,8.160632258718568,5.452195135339299,66.81094016354359,0.20833386171281057,0.13918981168934552,0.09375,,
1.9802350000003353,1200,,,,-0.03125,0.12109375,-0.974609375,0.03329530942862358,1.1358768673570359,22.698230267977134,0.35871980232740674,1563,0,8.142304674910719,5.450642570487384,66.94225760530327,0.20839320367607014,0.1395031152367792,0.09375,,
1.987035000000149,1200,,,,-0.0625,0.033203125,-0.982421875,0.03329530942862358,1.1358768673570359,22.698058123103216,0.35880629465123826,1563,0,8.144206130929105,5.450037372041229,66.91919733396384,0.208416344662901,0.1394705449612009,0.09375,,
1.994660000000149,1200,,,,-0.0625,-0.05078125,-0.96875,0.03329530942862358,1.1358768673570359,22.69805563839627,0.3581152597711936,1563,0,8.128520091245285,5.449807612777936,67.04550830412019,0.20842513131909332,0.13973968872641615,0.09375,,
2.0019300000001676,1200,,,,0.0625,-0.0546875,-0.9765625,0.03329530942862358,1.1358768673570359,22.698082294102413,0.3578412229941609,1563,0,8.122309527743717,5.448357651307305,67.07892173644846,0.2084805991186148,0.1398465379184545,0.09375,,
2.009915000000503,1200,,,,-0.03125,0.0234375,-1.033203125,0.03329530942862358,1.1358768673570359,22.69817431810638,0.35651270134884083,1562,0,8.092187441834989,5.4476960351897725,67.32043806877574,0.20850591883610245,0.1403670979597902,0.09375,,
2.020645000000484,1200,,,,0,0.05859375,-0.9609375,0.03329530942862358,1.1358768673570359,22.69842353779784,0.3567345255237963,1562,0,8.097311350894483,5.447409328634632,67.27429751151752,0.20851689286248995,0.1402782748660837,0.09375,,
2.027910000000149,1200,,,,-0.03125,0.16015625,-0.958984375,0.03329530942862358,1.1358768673570359,22.698517298476368,0.3548970436851174,1562,0,8.05563668526476,5.446247650607246,67.60791062697047,0.2085613692631821,0.14100398413383805,0.09375,,
2.0349300000001675,1200,,,,-0.125,0.072265625,-0.97265625,0.032363324432904246,1.1358768673570359,22.69857468650582,0.354946222975278,1562,0,8.056773351897496,5.2930918882346285,65.69741578975933,0.21459609833750265,0.14098409099338996,0.09375,,
2.0426699999999256,1200,,,,0,0.03125,-0.9609375,0.032363324432904246,1.1358768673570359,22.698773808120585,0.3556392564152934,1562,0,8.072575038658943,5.292710510020671,65.5640918130124,0.21461156154421898,0.14070812125219137,0.09375,,
2.050660000000149,1200,,,,-0.03125,0.0078125,-0.943359375,0.032363324432904246,1.1358768673570359,22.69883412802866,0.3556653307581881,1562,0,8.073188347970563,5.292557929334436,65.55722102860238,0.2146177486431174,0.14069743184457878,0.09375,,
2.0586699999999256,1200,,,,-0.0625,0.0625,-1.025390625,0.032363324432904246,1.1358768673570359,22.698891122656324,0.3550552038943058,1561,0,8.05935941572939,5.289242926139131,65.6285773260857,0.2147522591075555,0.14093885242791798,0.09375,,
2.0668849999997763,1200,,,,0,-0.01953125,-1.0625,0.032363324432904246,1.1358768673570359,22.69894576888285,0.3544694873324732,1560,0,8.046083669683515,5.287922701951626,65.72045381376977,0.21480587583812735,0.1411713964194601,0.09375,,
2.0749400000004097,1200,,,,-0.0625,0.015625,-0.9921875,0.032363324432904246,1.1358768673570359,22.698800999900904,0.35583332184743016,1560,0,8.076989761748507,5.287402750856783,65.46254120436282,0.21482699935672117,0.14063121297198986,0.09375,,
2.0827650000001303,1200,,,,0,0.083984375,-0.96875,0.032363324432904246,1.1358768673570359,22.698729374781458,0.3558497178285747,1560,0,8.077336443083162,5.286501910380629,65.44857884318537,0.21486360671252508,0.1406251770445587,0.09375,,
2.0915900000003167,1200,,,,0,0.08203125,-0.99609375,0.032363324432904246,1.1358768673570359,22.6987929413696,0.35488917592565655,1560,0,8.055555921469768,5.285434503260449,65.61228740494052,0.21490699897167254,0.14100539781862637,0.09375,,
2.099854999999981,1200,,,,-0.09375,0.078125,-0.97265625,0.032363324432904246,1.138282211223275,22.69885760270064,0.3551897590525689,1559,0,8.062401762671813,5.285005560087347,65.55125526684172,0.2153795673971746,0.14118401001714131,0.09375,,
2.1071800000001675,1200,,,,-0.0625,0.044921875,-0.9140625,0.032363324432904246,1.138282211223275,22.698913666561893,0.35459921936709127,1560,0,8.049017066643847,5.2853209327235176,65.66417848244554,0.2153667157987926,0.14141878465390037,0.09375,,
2.1149399999999443,1200,,,,0,0.0859375,-0.97265625,0.032363324432904246,1.138282211223275,22.69931414088406,0.35352067108328944,1560,0,8.024676768215734,5.285877272822156,65.87028269797162,0.21534404839020044,0.14184773344788182,0.09375,,
2.122774999999907,1200,,,,-0.09375,-0.013671875,-0.984375,0.032363324432904246,1.138282211223275,22.699152646857243,0.353649775449767,1560,0,8.027550236461048,5.286130010859851,65.84985275894387,0.215333752458752,0.14179695893439687,0.09375,,
2.130920000000391,1200,,,,0,-0.0390625,-1,0.032363324432904246,1.138282211223275,22.699128775600844,0.35291658575842,1560,0,8.010899027175755,5.28623080858777,65.98798450280096,0.2153296464796947,0.142091693748957,0.095703125,,
2.1390700000002982,1200,,,,0,0.037109375,-0.96484375,0.032363324432904246,1.138282211223275,22.69917159243125,0.3537156583615196,1559,0,8.029052424077921,5.283939933262734,65.8102557335034,0.21542300359201985,0.14177042957270247,0.09375,,
2.146910000000149,1200,,,,-0.0625,0.033203125,-1.017578125,0.032363324432904246,1.138282211223275,22.69921230124875,0.3540484455371689,1559,0,8.036620830175302,5.283038735909826,65.73706595778997,0.2154597511250775,0.1416369187095823,0.09375,,
2.1550400000005028,1200,,,,0.0625,0,-0.9765625,0.032363324432904246,1.138282211223275,22.699251252106688,0.35479646210193694,1559,0,8.053614036610416,5.28268153455291,65.59392479623062,0.21547431996004499,0.14133806338978125,0.09375,,
2.162945000000298,1200,,,,-0.03125,0.1171875,-0.970703125,0.032363324432904246,1.138282211223275,22.6992229208694,0.35486309194313886,1559,0,8.055116430406283,5.282542766729895,65.5799678672485,0.21547998028379756,0.14131170183046785,0.09375,,
2.1743200000002982,1200,,,,-0.0625,0.0703125,-0.947265625,0.032363324432904246,1.138282211223275,22.69916263566595,0.35428507595760167,1559,0,8.041974558550864,5.282486804792607,65.68644014393018,0.21548226304901572,0.1415426277384779,0.09375,,
2.1833000000002794,1200,,,,-0.09375,0.0703125,-0.96484375,0.03158351144632602,1.138282211223275,22.699223575192455,0.35513246824349204,1559,0,8.06123129546896,5.155177054835277,63.950243652392004,0.22080370841106767,0.14120450952239497,0.09375,,
2.1908199999998326,1200,,,,-0.03125,0.021484375,-0.947265625,0.03158351144632602,1.138282211223275,22.699455850843407,0.35265186750335986,1559,0,8.005005497109996,5.155472112635385,64.4031052133148,0.22079107138093035,0.14219630600306557,0.09375,,
2.199165000000037,1200,,,,-0.0625,0.015625,-0.97265625,0.03158351144632602,1.138282211223275,22.69948266843943,0.35261148795381764,1559,0,8.004098359500322,5.155741514887703,64.41377008777243,0.22077953441544246,0.14221242169921755,0.091796875,,
2.209229999999981,1200,,,,-0.03125,0.0078125,-0.986328125,0.03158351144632602,1.138282211223275,22.69951149723682,0.3530491217668145,1559,0,8.014042598635168,5.155854560955605,64.33525274539561,0.22077469365472205,0.1420359571606383,0.091796875,,
2.2161400000001303,1200,,,,-0.03125,0.03515625,-1.0234375,0.03158351144632602,1.138282211223275,22.699395317201585,0.35298397831330675,1559,0,8.012522864372261,5.155894084674177,64.34794847949696,0.2207730012543902,0.1420628971038142,0.091796875,,
2.223355000000447,1200,,,,0,0.048828125,-0.947265625,0.03158351144632602,1.138282211223275,22.699422364641965,0.3531262784288661,1558,0,8.01576254211099,5.154182028858842,64.30058278025615,0.22084633504402942,0.142005480482148,0.091796875,,
2.23183000000054,1200,,,,-0.0625,0.03125,-0.94921875,0.03158351144632602,1.138282211223275,22.69964565787802,0.3532746071737502,1558,0,8.019208402770182,5.153419118509492,64.26343922835673,0.22087902905760495,0.14194446060661836,0.091796875,,
2.24001500000013,1200,,,,-0.0625,0.078125,-0.9921875,0.03158351144632602,1.138282211223275,22.699662964207587,0.35383606829764164,1558,0,8.031959494936801,5.153117551927865,64.1576635835414,0.22089195516167204,0.14171911747573268,0.091796875,,
2.248055000000168,1200,,,,0,0.09375,-0.98046875,0.03158351144632602,1.1385008120402096,22.69958080479846,0.35523951238707446,1559,0,8.063788016487601,5.155733008640104,63.936861907808705,0.22082229823233318,0.14118684788245636,0.091796875,,
2.256055000000168,1200,,,,-0.0625,0.10546875,-0.94921875,0.03158351144632602,1.1385008120402096,22.699470226841623,0.3554989150557105,1559,0,8.0696370379816,5.156755040109266,63.903184441106994,0.22077853285349888,0.1410845130557414,0.08984375,,
2.263230000000447,1200,,,,-0.125,0.05078125,-0.96875,0.03158351144632602,1.1385008120402096,22.699318994826303,0.35666337582704755,1559,0,8.096015741669772,5.157130911051097,63.69961565795398,0.22076244169030929,0.14062482687384179,0.091796875,,
2.2806450000000185,1200,,,,0,0.04296875,-0.978515625,0.03158351144632602,1.1385008120402096,22.69926996234073,0.35687426033751596,1559,0,8.100785178011941,5.157379261080808,63.6651774827895,0.22075181102768446,0.1405420322872474,0.091796875,,
2.2891049999999815,1200,,,,-0.03125,-0.013671875,-1.017578125,0.03158351144632602,1.1385008120402096,22.699305933802375,0.3581213833834693,1559,0,8.129106842857901,5.15740254267874,63.443655525452336,0.22075081450766015,0.14005238632587017,0.091796875,,
2.2970500000002794,1200,,,,-0.0625,0.0859375,-0.98046875,0.03158351144632602,1.1385008120402096,22.699339770843203,0.3576050107311265,1559,0,8.11739764234187,5.157411634562432,63.53528386561235,0.22075042535106915,0.14025440938134845,0.091796875,,
2.3051150000002236,1200,,,,-0.03125,0.11328125,-0.9765625,0.03158351144632602,1.1385008120402096,22.69927367668218,0.3594638150698204,1559,0,8.159567515134125,5.1578717461499455,63.21256287889373,0.22073073315365682,0.13952955348779844,0.091796875,,
2.3129900000002235,1200,,,,-0.03125,0.068359375,-0.96484375,0.03158351144632602,1.1385008120402096,22.69917833197047,0.35908824297166997,1560,0,8.151008064127877,5.1580517767148555,63.28115168251578,0.22072302902808713,0.13967607479750715,0.091796875,,
2.3237400000002237,1200,,,,-0.125,0.078125,-0.984375,0.03158351144632602,1.1385008120402096,22.699323680347717,0.35726191558151327,1560,0,8.109603860445832,5.158124322618239,63.6051330173687,0.22071992469198803,0.14038920169617503,0.091796875,,
2.331410000000149,1200,,,,-0.0625,0.05859375,-0.9609375,0.030792779973081417,1.1385008120402096,22.699303333595914,0.3594529849350297,1559,0,8.159332339206722,5.02701507915854,61.61061800366968,0.22647650625921345,0.13953357513942108,0.091796875,,
2.339975000000093,1200,,,,0,0.013671875,-0.99609375,0.030792779973081417,1.1385008120402096,22.699136946749494,0.36060033405582065,1558,0,8.18531636577669,5.025555723252903,61.39720810627504,0.2265422720859395,0.1390906302412881,0.091796875,,
2.3479050000002606,1200,,,,-0.0625,-0.00390625,-0.99609375,0.030792779973081417,1.1385008120402096,22.698985495104456,0.3649952242061614,1558,0,8.285021300038055,5.025004923384934,60.65168382079902,0.22656710379366052,0.13741676343487252,0.08984375,,
2.355154999999795,1200,,,,0,0.021484375,-0.99609375,0.030792779973081417,1.1385008120402096,22.698766825372402,0.3686085208285705,1562,0,8.366958864133148,5.035674330989151,60.18524069211936,0.22608706147535465,0.13607104212268206,0.08984375,,
2.363089999999851,1200,,,,-0.0625,0.11328125,-0.93359375,0.030792779973081417,1.1385008120402096,22.698632835992075,0.3721061053719036,1565,0,8.446299861867818,5.046277797422544,59.7454255703705,0.22561199714801958,0.13479284783389645,0.08984375,,
2.370930000000168,1200,,,,-0.0625,0.0234375,-0.96484375,0.030792779973081417,1.1385008120402096,22.698436865510814,0.37131928600083575,1566,0,8.428367370236524,5.050545311328164,59.92317479140009,0.22542136380532998,0.13507963785022578,0.08984375,,
2.3789900000002233,1200,,,,-0.09375,0.025390625,-1.01171875,0.030792779973081417,1.1385008120402096,22.698513283351865,0.3689869610099271,1567,0,8.375455435867467,5.05221105479231,60.32162780254874,0.22534704106636178,0.1359330033761074,0.08984375,,
2.3871949999998323,1200,,,,0,0.01171875,-0.9921875,0.030792779973081417,1.1385008120402096,22.698455145352,0.3662146443110533,1571,0,8.31250667746548,5.066849799509562,60.95453508922133,0.22469598608397842,0.13696239368163052,0.091796875,,
2.3950850000004285,1200,,,,-0.0625,0.0859375,-0.98046875,0.030792779973081417,1.1393525007885767,22.698661969897465,0.3650827224666651,1573,0,8.286889308320722,5.07258445275496,61.21216615819479,0.22460986335472158,0.13748856276438645,0.091796875,,
2.402810000000056,1200,,,,0,0.05078125,-0.98828125,0.030792779973081417,1.1393525007885767,22.69853091483007,0.3659263199297652,1574,0,8.305989885475775,5.074849963776613,61.09867738522921,0.22450959317439423,0.13717239203251372,0.091796875,,
2.4102749999999067,1200,,,,-0.125,0.078125,-0.998046875,0.030792779973081417,1.1393525007885767,22.69850718490651,0.36490465194263905,1573,0,8.282790863925802,5.073763415795137,61.25668870734133,0.22455767197218096,0.13755659408845156,0.091796875,,
2.4182299999999812,1200,,,,-0.03125,-0.00390625,-0.99609375,0.030792779973081417,1.1393525007885767,22.698577622071102,0.36326352618122865,1573,0,8.245565346291876,5.071302388947549,61.503392138274315,0.2246666464361687,0.13817760856154712,0.091796875,,
2.4261550000002607,1200,,,,0.0625,0,-0.9765625,0.030792779973081417,1.1393525007885767,22.69858203975369,0.3622956510340355,1572,0,8.223597557642028,5.070290680635595,61.655384338742024,0.22471147564378915,0.13854672396143689,0.091796875,,
2.433895000000484,1200,,,,-0.09375,0.0859375,-0.978515625,0.030792779973081417,1.1393525007885767,22.69865161801327,0.36071803990993423,1572,0,8.187813120248203,5.069880736707724,61.91983942782071,0.2247296455199159,0.13915223565264256,0.091796875,,
2.441125,1200,,,,0,0.10546875,-0.98828125,0.030792779973081417,1.1393525007885767,22.6988249825164,0.360521658218025,1570,0,8.183418022297545,5.061779370249939,61.8540975966032,0.22508932481036173,0.13922697064773631,0.091796875,,
2.4480600000005217,1200,,,,-0.125,0.076171875,-0.97265625,0.030792779973081417,1.1393525007885767,22.698961946256244,0.35864863259649915,1569,0,8.14095166338477,5.058249402089645,62.13339190846605,0.2252464064579124,0.1399532324842311,0.091796875,,
2.456165000000503,1200,,,,-0.03125,0.015625,-0.9765625,0.030792779973081417,1.1393525007885767,22.69911065257537,0.35884596733490043,1568,0,8.145484319765352,5.056597800209769,62.07854071905493,0.22531997714773985,0.13987535376182494,0.091796875,,
2.464129999999888,1200,,,,0,-0.02734375,-1.01171875,0.030792779973081417,1.1393525007885767,22.69902284531169,0.35914256609048706,1568,0,8.152185312411829,5.0554927415404025,62.01395758071564,0.2253692288837937,0.13976037799998176,0.091796875,,
2.4749849999998697,1200,,,,-0.03125,0.099609375,-0.966796875,0.030792779973081417,1.1393525007885767,22.699070951174054,0.35707473709885795,1568,0,8.105264792278799,5.05461171540178,62.36208001763103,0.22540851106661355,0.14056943603791225,0.091796875,,
2.4914150000000372,1200,,,,-0.03125,0.052734375,-0.955078125,0.030009860675747273,1.1393525007885767,22.699114449013884,0.3556860283371423,1567,0,8.073757865139989,4.92326977497706,60.978665166987845,0.2314219112223818,0.14111799236734004,0.091796875,,
2.4982949999999255,1200,,,,-0.1875,-0.00390625,-0.984375,0.030009860675747273,1.1393525007885767,22.699152475495005,0.356821611176912,1566,0,8.09954815865652,4.921311552687664,60.76032213510496,0.23151399552551086,0.1406686494691529,0.091796875,,
2.5050499999998137,1200,,,,0,-0.0625,-0.97265625,0.030009860675747273,1.1393525007885767,22.699032846456127,0.35753826104747866,1566,0,8.115772731381524,4.920512878822745,60.62901268534093,0.23155157375813473,0.14038743302692608,0.091796875,,
2.512130000000354,1200,,,,-0.03125,0.001953125,-0.96875,0.030009860675747273,1.1393525007885767,22.699074837428267,0.35804340188533085,1566,0,8.12725397444253,4.920099244413213,60.53827356552735,0.23157104037734905,0.14018910992217737,0.091796875,,
2.5202900000000374,1200,,,,0,0.09375,-0.974609375,0.030009860675747273,1.1393525007885767,22.699120109239836,0.35890672194539747,1564,0,8.146866789452123,4.916436628933003,60.34757601902109,0.23174355468827562,0.13985161783468883,0.091796875,,
2.5281650000005027,1200,,,,0,0.1328125,-0.984375,0.030009860675747273,1.1393525007885767,22.699163260807637,0.3587727982115905,1563,0,8.143842320141689,4.913252035356622,60.33088365678401,0.23189376254049185,0.13990355608564312,0.091796875,,
2.536645000000484,1200,,,,-0.0625,-0.02734375,-0.9453125,0.030009860675747273,1.1393525007885767,22.699205358835023,0.35667964916681727,1563,0,8.096344603754815,4.911975831124998,60.669055870559006,0.23195401198210472,0.14072430912342623,0.091796875,,
2.5434599999999628,1200,,,,-0.0625,0.1171875,-0.99609375,0.030009860675747273,1.128550982173683,22.699179898108888,0.35665547457770225,1563,0,8.095786779084664,4.91092997548028,60.66031763790506,0.22980392467585792,0.1393997906527475,0.091796875,,
2.5519799999999813,1200,,,,-0.0625,0.03125,-0.98046875,0.030009860675747273,1.128550982173683,22.699419909614925,0.355011518925286,1562,0,8.058555540835272,4.909329450555003,60.92071247356755,0.22987884466504885,0.14004382999595338,0.091796875,,
2.5592950000003913,1200,,,,-0.03125,0.064453125,-1.021484375,0.030009860675747273,1.128550982173683,22.699274158318147,0.35561597652869265,1562,0,8.072224546302825,4.908756828316894,60.810459374115936,0.2299056607700485,0.13980668844136315,0.091796875,,
2.567475000000093,1200,,,,0,-0.0625,-1.0078125,0.030009860675747273,1.128550982173683,22.699409614544127,0.3540256547283485,1562,0,8.036173350735954,4.908482446891813,61.07984774174008,0.22991851236797492,0.1404338772844329,0.091796875,,
2.575375,1200,,,,-0.03125,-0.00390625,-1.00390625,0.030009860675747273,1.128550982173683,22.699699348339077,0.3554045784525532,1562,0,8.067577077896146,4.907223211658243,60.826480667947244,0.229977511414714,0.13988722652129718,0.091796875,,
2.583160000000149,1200,,,,0,0.06640625,-0.9453125,0.030009860675747273,1.128550982173683,22.699714061062007,0.354810093363798,1561,0,8.05408766533693,4.906153726116907,60.91507728717609,0.23002764388854602,0.140121517056578,0.091796875,,
2.5910550000001678,1200,,,,0,0.080078125,-0.96484375,0.030009860675747273,1.128550982173683,22.69972830999577,0.3558489603081369,1561,0,8.077674718389176,4.905722506837869,60.73186502137528,0.23004786361247415,0.13971235801368528,0.091796875,,
2.598235000000335,1200,,,,-0.125,0.046875,-0.9609375,0.030009860675747273,1.128550982173683,22.699625889279204,0.35530598956980614,1561,0,8.065313039454738,4.905567661428806,60.823028659039515,0.23005512512796097,0.13992649468816895,0.091796875,,
2.606325000000186,1200,,,,-0.0625,0.078125,-0.982421875,0.030009860675747273,1.128550982173683,22.699644408442353,0.35663592729236854,1560,0,8.095508732811867,4.903322980477162,60.56843544129015,0.23016044153466295,0.1394045784423107,0.091796875,,
2.614410000000149,1200,,,,-0.0625,0.0546875,-0.9609375,0.030009860675747273,1.128550982173683,22.699532010396165,0.35619087330394533,1560,0,8.085366130373872,4.902450515730358,60.63362421292931,0.23020140204424963,0.13957945304840488,0.091796875,,
2.624510000000242,1200,,,,-0.0625,0.01171875,-0.97265625,0.030009860675747273,1.128550982173683,22.69955629897603,0.3572017729847391,1560,0,8.108321755961141,4.902092659149434,60.45754974567301,0.2302182069258354,0.13918428697578333,0.091796875,,
2.6316400000001305,1200,,,,-0.03125,-0.03125,-0.958984375,0.029688095546679553,1.128550982173683,22.69950476816645,0.3568897508546623,1560,0,8.101220601235143,4.84908149087492,59.856183772302295,0.23273500028766447,0.1393062894746527,0.091796875,,
2.6392650000001305,1200,,,,-0.03125,0.03125,-1.046875,0.029688095546679553,1.128550982173683,22.69935192516794,0.35742670207098426,1560,0,8.113354497761424,4.848815118492136,59.76338294881587,0.23274778571566468,0.13909795048214205,0.091796875,,
2.6465550000001676,1200,,,,0,0.109375,-0.9765625,0.029688095546679553,1.128550982173683,22.6992873678874,0.357677890366255,1560,0,8.119033218563347,4.848693959338244,59.720090173448206,0.23275360161681746,0.13900066076751177,0.091796875,,
2.6558100000000557,1200,,,,-0.03125,0.099609375,-0.93359375,0.029688095546679553,1.128550982173683,22.69912217740618,0.3582565661406475,1560,0,8.132109565684557,4.848643865584741,59.6234448936201,0.23275600631014404,0.13877714915891964,0.091796875,,
2.663314999999944,1200,,,,-0.0625,0.01953125,-0.94140625,0.029688095546679553,1.128550982173683,22.699295402161372,0.35751877783385366,1560,0,8.115424349870347,4.848624792139837,59.74579495916685,0.23275692192210673,0.13906247332484997,0.08984375,,
2.671420000000391,1200,,,,-0.03125,0.037109375,-1.015625,0.029688095546679553,1.128550982173683,22.6993299108364,0.3574527556411448,1560,0,8.113938027835934,4.848617234297162,59.756646127482625,0.232757284734866,0.13908794697495103,0.08984375,,
2.6802400000002233,1200,,,,-0.0625,0.1328125,-0.99609375,0.029688095546679553,1.128550982173683,22.699294038730475,0.35761877849823975,1560,0,8.117693806903167,4.848614083189792,59.72895995493944,0.232757436003493,0.13902359574267015,0.08984375,,
2.6882750000003726,1200,,,,-0.125,-0.0078125,-0.98828125,0.029688095546679553,1.128550982173683,22.699328982443802,0.3577613278105512,1560,0,8.120942077167623,4.8498989731875115,59.72089108754033,0.23269577127540916,0.13896798812869907,0.091796875,,
2.695464999999851,1200,,,,-0.0625,-0.005859375,-1.015625,0.029688095546679553,1.1015956338089885,22.699358146372646,0.3574093347084476,1560,0,8.112962493403828,4.850369465174978,59.78542941765759,0.22711581905632175,0.13578216769825216,0.091796875,,
2.703500000000466,1200,,,,0,0.013671875,-1.013671875,0.029688095546679553,1.1015956338089885,22.699390524886905,0.3576748850599843,1560,0,8.11900189692062,4.850590928492072,59.743685123805754,0.22710544963465867,0.13568116472873376,0.091796875,,
2.711155000000261,1200,,,,0,0.00390625,-0.95703125,0.029688095546679553,1.1015956338089885,22.699419613997875,0.35698286723366573,1560,0,8.103303898345072,4.849832427037129,59.85006224470497,0.22714096834928743,0.13594401094027414,0.08984375,,
2.718970000000205,1200,,,,-0.03125,0.091796875,-0.970703125,0.029688095546679553,1.1015956338089885,22.69944794757116,0.35694330805792224,1560,0,8.102416041494664,4.848671889033253,59.84229721359522,0.22719533493297048,0.1359589075860113,0.091796875,,
2.7270550000001674,1200,,,,-0.0625,0.09375,-0.982421875,0.029688095546679553,1.1015956338089885,22.699277564384335,0.3575483138195639,1559,0,8.116088418067877,4.848206446502114,59.73575196284372,0.22721714637456666,0.1357298709753627,0.091796875,,
2.735520000000019,1200,,,,-0.125,0.0546875,-0.890625,0.029688095546679553,1.1015956338089885,22.6992475006728,0.3581223892520209,1559,0,8.129108749163906,4.848024302837936,59.63783303226893,0.22722568308169094,0.13551247348269138,0.091796875,,
2.7438700000001117,1200,,,,-0.0625,0.115234375,-0.953125,0.029688095546679553,1.1015956338089885,22.699215984348935,0.35848897250642275,1560,0,8.137418614930617,4.849302252452873,59.59263596879881,0.22716580168864084,0.13537408924591512,0.091796875,,
2.752560000000056,1200,,,,-0.0625,0.06640625,-1.021484375,0.029688095546679553,1.1015956338089885,22.699163129911085,0.35810457146598257,1560,0,8.128674085273241,4.849711226133364,59.66177478956389,0.2271466449121512,0.13551971972953802,0.091796875,,
2.7684750000000933,1200,,,,0,-0.046875,-0.953125,0.029688095546679553,1.1015956338089885,22.699188275228796,0.35982444777892725,1560,0,8.167722886164102,4.849588849149706,59.375041449615985,0.2271523768457474,0.1348718179059504,0.091796875,,
2.7764550000005404,1200,,,,0,0.04296875,-0.98046875,0.029688095546679553,1.1015956338089885,22.69906882829533,0.361151401619749,1560,0,8.197800522802012,4.849448706778587,59.15548558774938,0.22715894123576805,0.13437697474400884,0.091796875,,
2.7857800000002606,1200,,,,-0.03125,0.09375,-0.962890625,0.030044307759560997,1.1015956338089885,22.698880166306086,0.3644484082633485,1560,0,8.272570745970745,4.907545526030626,59.32310132761216,0.2244697737322863,0.13316243132106595,0.091796875,,
2.8042150000003168,1200,,,,-0.03125,0.0078125,-0.97265625,0.030044307759560997,1.1015956338089885,22.699023338203197,0.36285267450725295,1563,0,8.236401326969583,4.917716868713665,59.70710597370854,0.22400550158088597,0.13374720221583694,0.08984375,,
2.8187000000001863,1200,,,,0.0625,-0.05859375,-0.9453125,0.030044307759560997,1.1015956338089885,22.699109165615493,0.3629328919723711,1564,0,8.238253334673386,4.9194821413926,59.71511122008531,0.22392512100819423,0.1337171350597538,0.091796875,,0.3012450000001118,6634,
2.836070000000298,1200,,,,-0.01953125,0.05859375,-0.984375,0.030044307759560997,1.1015956338089885,22.699305957742315,0.36293068118875904,1563,0,8.238274573755474,4.917798361377462,59.69451876542213,0.22400178959359254,0.13371679032382852,0.091796875,,
2.8540950000002048,1500,,,,-0.0625,0.0703125,-0.9375,0.030044307759560997,1.0901752427773612,22.699281082662605,0.3612326093054278,1563,0,8.199720534847549,4.916627985596975,59.96092140826097,0.22173230229559307,0.1329527315161882,0.08984375,,
2.8627000000001863,1500,,,,-0.125,0.1171875,-1.015625,0.030044307759560997,1.0901752427773612,22.69924743117654,0.36381149727471873,1563,0,8.25824719494565,4.916283801904453,59.53180724492479,0.2217478255333943,0.13201048806635243,0.091796875,,
2.8718450000002047,1500,,,,0.09375,-0.234375,-1.080078125,0.030044307759560997,1.0901752427773612,22.677207543748167,1.0010382842045615,1563,0,22.700752930144404,4.916165658732592,21.656399124120682,0.22175315448145677,0.04802374820483218,0.099609375,,
2.8902400000002233,1500,,,,-0.125,0.048828125,-1.353515625,0.030044307759560997,1.0901752427773612,22.6336512064233,2.3163248431169534,1620,0,52.42688857988229,5.096516870628756,9.721188895013762,0.21390594212687586,0.020794200691812426,0.111328125,,
2.898319999999832,1500,,,,-0.5625,-0.21875,-0.87890625,0.030044307759560997,1.0901752427773612,22.618354142285405,2.7258564550940267,1819,0,61.65438664235139,5.722956957086448,9.282319180765732,0.19049160267184123,0.017682038572556364,0.115234375,,
2.9165500000002793,1500,,,,0.34375,-0.4453125,-1.50390625,0.030044307759560997,1.0901752427773612,22.59086282309684,3.459549042914589,2071,0,78.15419785825944,6.515051999814566,8.336151068468867,0.1673317792104177,0.013949029900537199,0.130859375,,
2.9245000000004655,1500,,,,-0.9375,0.26171875,-0.63671875,0.030044307759560997,1.0901752427773612,22.583719178137734,3.646084408448831,2199,0,82.34214638019483,6.917344086373782,8.400733270219394,0.15760026234994678,0.013239577673185031,0.140625,,
2.9334550000000745,1500,,,,0.1875,0.26171875,-1.259765625,0.03144391483785918,1.0901752427773612,22.57812676746216,3.796155393911497,2323,0,85.71007771271903,7.650122067337914,8.925580598560893,0.1425042938114476,0.01271933560055078,0.14453125,,
2.9411500000003725,1500,,,,0,-0.060546875,-0.875,0.03144391483785918,1.0901752427773612,22.571584565138412,3.981240308850439,2473,0,89.86290230535546,8.142435283721776,9.060952934786885,0.13388810654188701,0.012131538319037702,0.1484375,,
2.949314999999944,1500,,,,-0.0625,0.13671875,-1.02734375,0.03144391483785918,1.0901752427773612,22.567555286187677,4.08809743771028,2592,0,92.25836494084892,8.53440358427008,9.250547188584882,0.12773889024731425,0.011816546320502457,0.1484375,,
2.9575650000004097,1500,,,,0.3125,0.01171875,-0.93359375,0.03144391483785918,1.0901752427773612,22.564013041690096,4.178282664121334,2680,0,94.27882452510143,8.823352037359657,9.358784522191902,0.1235556779511192,0.011563309664378617,0.150390625,,
2.965375,1500,,,,-0.25,-0.00390625,-1.0078125,0.03144391483785918,1.0901752427773612,22.561348073862167,4.240945455199036,2769,0,95.68144657700928,9.118637322847215,9.530204286269933,0.11955462249231812,0.011393799757196739,0.15234375,,
2.972425000000279,1500,,,,0.0625,-0.09375,-0.95703125,0.03144391483785918,1.0901752427773612,22.55956431622248,4.290088903362905,2831,0,96.78253653772784,9.32027123290539,9.630116719737094,0.1169681885360243,0.011264173080981281,0.15234375,,
2.9815150000001305,1500,,,,-0.125,0.033203125,-0.947265625,0.03144391483785918,1.0901752427773612,22.557929298457648,4.329970640447413,2939,0,97.67517157161012,9.677712587764825,9.908057935347115,0.11264802843552407,0.011161231920418017,0.15234375,,
2.9915900000003166,1500,,,,-0.03125,0.494140625,-1.0078125,0.03144391483785918,1.0901752427773612,22.556108816247214,4.377075441666145,3005,0,98.7297899591449,9.894384906400097,10.021681308645004,0.110181204096092,0.011042009136538055,0.15625,,
2.999420000000391,1500,,,,-0.09375,0.02734375,-1.091796875,0.03144391483785918,1.1126397355083564,22.554991909751678,4.4001884552775214,3942,0,99.24621501016723,12.97980862115558,13.078391573750062,0.08572081206920747,0.011210903462609355,0.158203125,,
3.0077800000002606,1500,,,,-0.09375,0.07421875,-0.921875,0.03144391483785918,1.1126397355083564,22.55434388400969,4.414902462938114,5428,0,99.57522836346757,17.871934443166026,17.94817319216205,0.06225625653712119,0.011173860746239219,0.158203125,,
3.0156200000005775,1500,,,,-0.0625,0.09375,-1.03125,0.03144391483785918,1.1126397355083564,22.55435961062184,4.412016638984789,5927,0,99.51020988371005,19.516231959724433,19.612291022731796,0.057010991558437425,0.011181161579385805,0.158203125,,
3.023755000000354,1500,,,,-0.03125,-0.169921875,-0.970703125,0.03144391483785918,1.1126397355083564,22.554439945481434,4.405975574481222,6462,0,99.37431149589479,21.27676964973974,21.410734151973166,0.05229364014485001,0.01119645226980335,0.16015625,,
3.033910000000149,1500,,,,-0.125,0.23828125,-0.94140625,0.03144391483785918,1.1126397355083564,22.554913132014736,4.3873789234581,5369,0,98.95695049582977,17.67747895970982,17.863807313317302,0.0629410866812097,0.01124367444563932,0.16015625,,
3.0416400000001302,1500,,,,0,-0.1328125,-0.98046875,0.03144391483785918,1.1126397355083564,22.555764165359726,4.356272919556671,4420,0,98.25906461346337,14.555604178127416,14.81349759982655,0.07644064251075959,0.011323532743623365,0.16015625,,
3.048685000000056,1500,,,,-0.09375,0.138671875,-1.0234375,0.03144391483785918,1.1126397355083564,22.556465617377796,4.332248260313902,3807,0,97.7202089297153,12.534160565127577,12.826579785705022,0.08876858803005382,0.01138597376831865,0.162109375,,
3.056475000000093,1500,,,,0,-0.03125,-0.9765625,0.03144391483785918,1.1126397355083564,22.557153091237943,4.30497542759215,3553,0,97.10798977421365,11.700673978707155,12.049136230615483,0.09509193551868331,0.011457756854975182,0.16015625,,
3.065345000000205,1500,,,,0.03125,-0.05078125,-1.025390625,0.03144391483785918,1.1126397355083564,22.558081346743972,4.276568959876218,3446,0,96.47119048184798,11.34775053747928,11.762838709463704,0.09804936509958839,0.011533388672317778,0.16015625,,
3.073680000000168,1500,,,,0.03125,-0.046875,-0.904296875,0.03144391483785918,1.1126397355083564,22.559592271455216,4.238848717659864,3418,0,95.62669877078731,11.254828535899795,11.769546246573972,0.09885887927651166,0.01163524151529377,0.162109375,,
3.0833650000002235,1500,,,,-0.28125,0.42578125,-1.0546875,0.03144391483785918,1.1126397355083564,22.56038569263569,4.205064683617534,3421,0,94.86788112489265,11.264881174958663,11.874283520814128,0.09877065884917682,0.011728308067127343,0.166015625,,
3.092209999999963,1500,,,,0,-0.1953125,-1.080078125,0.12156541248462245,1.1126397355083564,22.56193323450242,4.161084309450235,3435,0,93.88210637295181,43.72732560690796,46.576847597772,0.02544495278560058,0.011851456880274225,0.16796875,,
3.1017550000003538,1500,,,,-0.0625,-0.19140625,-1.1640625,0.12156541248462245,1.1126397355083564,22.56325135257093,4.120668098779772,3445,0,92.97567005328858,43.86111630119141,47.17483216421308,0.02536733738986332,0.011966998838197691,0.169921875,,
3.1097150000003166,1500,,,,0.0625,-0.056640625,-1.06640625,0.12156541248462245,1.1126397355083564,22.56427024042085,4.086091315937952,3457,0,92.19966867986079,44.01342408515779,47.73707402136431,0.025279554105029533,0.012067719455388787,0.169921875,,
3.1178350000004285,1500,,,,0,-0.107421875,-1.0234375,0.12156541248462245,1.1126397355083564,22.565436296517213,4.051657656804252,3472,0,91.42742274991255,44.20391532384473,48.34863982194775,0.02517061503165467,0.012169650002623754,0.171875,,
3.125700000000186,1500,,,,0.0625,-0.14453125,-1.1953125,0.12156541248462245,1.1126397355083564,22.566481363983456,4.015992973385173,3478,0,90.62683059178502,44.27893752768962,48.8585303475275,0.025127968231228957,0.012277155983972067,0.173828125,,
3.133130000000354,1500,,,,-0.1875,-0.15234375,-1.341796875,0.12156541248462245,1.1126397355083564,22.567135158641793,3.98275343482905,3485,0,89.87933506733202,44.36023901479551,49.35532620658973,0.025081914800712788,0.012379260868750705,0.177734375,,
3.1406699999999255,1500,,,,-0.28125,0.41796875,-1.232421875,0.12156541248462245,1.1126397355083564,22.568129167535538,3.95498535915889,3494,0,89.25662044120976,44.47868886786503,49.832369462343244,0.02501511991087976,0.012465626975437788,0.18359375,,
3.148570000000298,1500,,,,-0.0625,0.03125,-0.984375,0.12156541248462245,2.998682884610517,22.569193946098153,3.931600898518194,3502,0,88.73306319731088,44.5800725425512,50.24065544026235,0.06726509656861383,0.03379442539859701,0.18359375,,
3.1565150000001303,1500,,,,0.15625,-0.083984375,-0.662109375,0.12156541248462245,2.998682884610517,22.570116310355573,3.910149025054755,3511,0,88.25251828630927,44.69151226334797,50.64049517358761,0.06709736889055266,0.0339784398546246,0.1875,,
3.1646150000002233,1500,,,,0.3125,-0.3125,-0.9140625,0.12156541248462245,2.998682884610517,22.570991743837258,3.884049745494034,3518,0,87.66685473819905,44.78889610542724,51.0898859542538,0.06695148006220128,0.03420543480846361,0.189453125,,
3.1729000000003724,1500,,,,-0.28125,0.236328125,-1.23046875,0.12156541248462245,2.998682884610517,22.572023350675202,3.8502014339058297,3526,0,86.90683667092553,44.88111262840475,51.64278708975218,0.06681391589906094,0.034504568334078126,0.193359375,,
3.180695000000298,1500,,,,0.28125,-0.330078125,-0.76953125,0.12156541248462245,2.998682884610517,22.573083029622765,3.8182518592172454,3524,0,86.18971624612237,44.86358829125188,52.052135968448866,0.06684001433731152,0.034791655144188104,0.197265625,,
3.188665000000503,1500,,,,-0.1875,0.03515625,-0.98828125,0.12156541248462245,2.998682884610517,22.574141590837424,3.786201133370988,3527,0,85.47024047610581,44.89710634256552,52.529519154818594,0.06679011475106049,0.03508452612168364,0.19921875,,
3.196774999999907,1500,,,,-0.09375,0.396484375,-1.068359375,0.12156541248462245,2.998682884610517,22.57502013151731,3.7558049966870164,3531,0,84.7873734102627,44.95074100495678,53.015843275923345,0.06671042162085487,0.0353670925752201,0.203125,,
3.2056800000001675,1500,,,,-0.125,-0.36328125,-0.5703125,0.12156541248462245,2.998682884610517,22.57597606434741,3.7276604594282334,3546,0,84.15557330806607,45.14268863712308,53.64194771969581,0.06642676754845636,0.03563261192022681,0.205078125,,
3.2128700000001116,1500,,,,0,0.0078125,-1.197265625,0.12156541248462245,2.998682884610517,22.57677313139881,3.698039936536616,3555,0,83.48980867803962,45.2521865142239,54.200850655592184,0.06626603299418372,0.035916753578562964,0.20703125,,
3.2197299999999816,1500,,,,-0.09375,0.025390625,-0.75390625,0.12156541248462245,2.998682884610517,22.577351184825666,3.6809241453682673,3561,0,83.10551711468365,45.33181272615522,54.547296376964226,0.06614963541663885,0.036082837682995285,0.2109375,,
3.2266850000005216,1500,,,,0,-0.01171875,-1.25,0.12156541248462245,2.998682884610517,22.578066030486536,3.655000727398617,3546,0,82.5228477646823,45.137098298874875,54.6964865143595,0.0664349946634754,0.03633760789692328,0.212890625,,
3.2366349999997763,1500,,,,0,0.00390625,-0.87109375,0.12156541248462245,2.998682884610517,22.578583049689815,3.632239207193774,3539,0,82.01081459596412,45.05138258721283,54.93346555471219,0.06656139528693729,0.03656448115268552,0.21484375,,
3.244285000000149,1500,,,,0.09375,0.056640625,-1.078125,0.15619633437389416,2.998682884610517,22.57963791045946,3.598436291146868,3552,0,81.25138849795296,58.10644240067025,71.51439929193847,0.05160671968063782,0.03690623557388272,0.21875,,
3.252004999999888,1500,,,,-0.5,0.23828125,-1.109375,0.15619633437389416,2.998682884610517,22.580239825014537,3.5761127108794324,3569,0,80.74948265294046,58.38380294081392,72.3023863716208,0.05136155463614465,0.03713562967949642,0.22265625,,
3.2597650000001304,1500,,,,-0.0625,-0.177734375,-0.974609375,0.15619633437389416,2.998682884610517,22.58101466430752,3.5535076207699463,3574,0,80.24180769433468,58.46338870004148,72.85901250224349,0.051291636548744725,0.0373705798856552,0.224609375,,
3.2676699999999257,1500,,,,-0.0625,0.4140625,-1.4296875,0.15619633437389416,2.998682884610517,22.581677619125195,3.532499294698164,3570,0,79.76976026266107,58.400469975583135,73.21128931976928,0.05134689645244716,0.03759172491852344,0.228515625,,
3.2756650000005028,1500,,,,0.0625,-0.046875,-0.68359375,0.15619633437389416,2.998682884610517,22.582385620816996,3.5129176071107313,3567,0,79.33006005793223,58.351621424645295,73.55549886390223,0.051389881058969133,0.037800083378490744,0.23046875,,
3.2828050000001676,1500,,,,0.0625,0.3359375,-1.4140625,0.15619633437389416,2.998682884610517,22.583029179973586,3.498086567695711,3567,0,78.99739103234589,58.35028972368957,73.86356556990312,0.05139105390582293,0.03795926479879178,0.232421875,,
3.290435000000056,1500,,,,-0.0625,-0.181640625,-0.76171875,0.15619633437389416,2.998682884610517,22.583569927773965,3.478335024627372,3569,0,78.55322226089764,58.37914855883946,74.31795523924616,0.05136564952789933,0.03817390042449228,0.234375,,
3.2977600000002423,1500,,,,-0.25,0.421875,-1.41015625,0.15619633437389416,4.68830789352475,22.58401653523961,3.4636737412880025,3569,0,78.2236650459235,58.37871787944486,74.63050707886407,0.08030851076939295,0.05993464881468212,0.23828125,,
3.306385000000242,1500,,,,-0.21875,0.009765625,-0.73828125,0.15619633437389416,4.68830789352475,22.584665999307344,3.4445214753423676,3568,0,77.79336704804874,58.36611270485471,75.02710696248066,0.08032585478550797,0.06026616498844994,0.240234375,,
3.315564999999944,1500,,,,0.03125,0.15625,-1.240234375,0.15619633437389416,4.68830789352475,22.58503076192895,3.428851588659755,3569,0,77.44071860796953,58.38545783447928,75.39374489801126,0.08029924004048984,0.06054060419116862,0.2421875,,
3.3240600000000557,1500,,,,0.125,-0.1953125,-0.31640625,0.15619633437389416,4.68830789352475,22.58566297191493,3.407853711532909,3565,0,76.96863538627169,58.30762394185872,75.75504444016505,0.08040643018140617,0.06091192691667453,0.24609375,,
3.3324300000001674,1500,,,,-0.03125,0.0390625,-1.037109375,0.15619633437389416,4.68830789352475,22.586341918514925,3.3942426634714153,3565,0,76.66352535157618,58.31551954138448,76.0668378788369,0.0803955435944907,0.06115434780783088,0.248046875,,
3.3395449999999256,1500,,,,-0.1875,0.013671875,-0.87109375,0.15619633437389416,4.68830789352475,22.586760652570785,3.3807942477990824,3569,0,76.36119049062596,58.37306745945959,76.44337009992717,0.08031628450536381,0.06139647461494571,0.251953125,,
3.347635000000242,1500,,,,-0.1875,0.2890625,-1.01171875,0.15619633437389416,4.68830789352475,22.58734538574458,3.3669600576857412,3581,0,76.05068972295433,58.56587800595567,77.00900309951925,0.08005186728435947,0.061647144958235416,0.25390625,,
3.3547949999999256,1500,,,,-0.125,0.017578125,-1.03125,0.15619633437389416,4.68830789352475,22.587894395480518,3.3535561661103257,3585,0,75.74977252941255,58.63676347013408,77.40850105835798,0.07995509329079328,0.061892039236214835,0.255859375,,
3.362755000000354,1500,,,,0.34375,-0.076171875,-0.912109375,0.15619633437389416,4.68830789352475,22.588095548040744,3.3400352157321946,3577,0,75.4450345867797,58.503956681183844,77.54513865838368,0.08013659518916971,0.06214203385554928,0.259765625,,
3.370779999999795,1500,,,,-0.25,0.171875,-1.1640625,0.15619633437389416,4.68830789352475,22.588286964120307,3.3278143735105075,3579,0,75.16962603217958,58.546032715163044,77.88522546340712,0.0800790023866213,0.06236971155766718,0.26171875,,
3.379975000000093,1500,,,,0.0625,-0.11328125,-0.9296875,0.15619633437389416,4.68830789352475,22.588563892371344,3.3140793575669987,3580,0,74.86029331279113,58.563635092975865,78.23057124325919,0.08005493316939041,0.06262743152682351,0.263671875,,
3.3899200000003913,1500,,,,-0.3125,0.259765625,-1.037109375,0.1510739660804596,4.68830789352475,22.588833340788486,3.3068742576772663,3574,0,74.69843148561542,56.54547019351143,75.69833672397836,0.08291217452928232,0.06276313706034874,0.267578125,,
3.4077299999999813,1500,,,,-0.1875,-0.171875,-0.7421875,0.1510739660804596,4.68830789352475,22.589155765782433,3.292279138933824,3579,0,74.36980629381222,56.62427774941918,76.13879956297598,0.08279678046000048,0.06304047471903704,0.271484375,,
3.415910000000615,1500,,,,-0.03125,0.078125,-0.955078125,0.1510739660804596,4.68830789352475,22.589747981782565,3.2794779632504136,3580,0,74.08258070163643,56.64330616742071,76.4596827364162,0.08276896619818608,0.06328488895934464,0.271484375,,
3.4228700000001115,1500,,,,-0.03125,-0.177734375,-0.716796875,0.1510739660804596,4.68830789352475,22.59001886560377,3.269741568911938,3571,0,73.86352372736954,56.488760876670746,76.4772082701753,0.08299541042793472,0.06347257288765841,0.275390625,,
3.430375,1500,,,,0.03125,0.279296875,-0.9375,0.1510739660804596,4.68830789352475,22.590307942611048,3.258414395588239,3587,0,73.60858460097518,56.747196838716114,77.09317757750271,0.0826174358329912,0.06369240651670727,0.279296875,,
3.437965000000317,1500,,,,-0.5,-0.1484375,-1.01953125,0.1510739660804596,4.68830789352475,22.590499557105467,3.250839998370803,3593,0,73.43809954341636,56.845042411260465,77.40538326111485,0.0824752290552613,0.06384026714570737,0.28125,,
3.4458650000002233,1500,,,,0.125,0.1875,-1.01953125,0.1510739660804596,5.568261759663692,22.590670060684694,3.2436743967229296,3576,0,73.27677808065818,56.569830825059555,77.20021582115861,0.09843164949323198,0.07598944584510146,0.28125,,
3.4530300000002607,1500,,,,0.15625,-0.09765625,-1.0234375,0.1510739660804596,5.568261759663692,22.590897473338288,3.2371416231880956,3576,0,73.12993451611815,56.574006922003996,77.36094295221177,0.09842438361031067,0.07614203125583852,0.28125,,
3.460870000000112,1500,,,,0,-0.072265625,-0.88671875,0.1510739660804596,5.568261759663692,22.591348796706768,3.2301961108024697,3580,0,72.97448702090426,56.63340981340077,77.60713658347139,0.09832114608691835,0.07630422613410916,0.283203125,,
3.4678000000002793,1500,,,,-0.3125,0.32421875,-1.33984375,0.1510739660804596,5.568261759663692,22.59171892784442,3.2226843710484725,3581,0,72.80597950388416,56.65480979730094,77.81614941981302,0.09828400765240883,0.0764808302505789,0.28515625,,
3.4758400000003165,1500,,,,-0.3125,0.16796875,-0.76953125,0.1510739660804596,5.568261759663692,22.5918624745057,3.215199280411568,3584,0,72.63733997118783,56.70499874369319,78.06590765326163,0.09819701760037518,0.07665839307816595,0.287109375,,
3.483714999999851,1500,,,,0.125,0.056640625,-1.17578125,0.1510739660804596,5.568261759663692,22.592361522293633,3.20810214574568,3588,0,72.47860347713234,56.76535585909695,78.32015675772084,0.09809260728471851,0.07682628379312703,0.287109375,,
3.4920550000001676,1500,,,,-0.09375,-0.146484375,-0.73046875,0.1510739660804596,5.568261759663692,22.592673120750263,3.201218446554598,3582,0,72.32408195112399,56.673788651663614,78.36088218854032,0.09825109441488239,0.0769904243433975,0.2890625,,
3.5001250000004656,1500,,,,-0.0625,0.296875,-1.25390625,0.1510739660804596,5.568261759663692,22.592770927633616,3.19430065094165,3577,0,72.16810288071565,56.596220887508395,78.42276383661418,0.09838575212877311,0.07715682604082436,0.291015625,,
3.5079799999999812,1500,,,,-0.03125,-0.138671875,-0.76953125,0.1510739660804596,5.568261759663692,22.592927780293806,3.1898913724349396,3570,0,72.06898540440488,56.4825176936113,78.37284981419909,0.09858380941636946,0.0772629408950075,0.291015625,,
3.516225000000093,1500,,,,0.0625,0.228515625,-0.96875,0.1510739660804596,5.568261759663692,22.593204746922314,3.1823370531163455,3573,0,71.89919261477499,56.530836521011814,78.62513397597591,0.09849954648369723,0.07744540038853562,0.294921875,,
3.5238900000001303,1500,,,,-0.375,-0.23828125,-1.04296875,0.1510739660804596,5.568261759663692,22.59338536979269,3.176324105200623,3578,0,71.7639145681596,56.60016662840163,78.86995430641423,0.09837889340893868,0.07759138827878591,0.296875,,
3.532770000000019,1500,,,,0.21875,0.080078125,-1.03515625,0.1510739660804596,5.568261759663692,22.593709986460237,3.16764188429699,3583,0,71.56878207477062,56.689368250178426,79.20963108042399,0.09822409265684781,0.07780294142558299,0.296875,,
3.543825000000186,1500,,,,-0.28125,-0.025390625,-1.068359375,0.14614473759890875,5.568261759663692,22.59376771058712,3.1589377788756177,3573,0,71.37230638811373,54.68147956108296,76.61442137477226,0.10183085396296862,0.07801711954471777,0.296875,,
3.5512400000002233,1500,,,,0.125,0.01171875,-1.05078125,0.14614473759890875,5.568261759663692,22.594226309926338,3.1558445231707672,3583,0,71.3038653554619,54.83199518591553,76.89905016028052,0.1015513249296095,0.07809200429604989,0.30078125,,
3.5590800000000744,1500,,,,-0.4375,0.44140625,-0.96875,0.14614473759890875,5.568261759663692,22.594126828841095,3.153313420620519,3583,0,71.24636335658676,54.8425966735687,76.97599440841984,0.10153169429242774,0.0781550313213131,0.302734375,,
3.5664350000000558,1500,,,,0.21875,-0.048828125,-1.0703125,0.14614473759890875,5.568261759663692,22.594120837568337,3.148437962624535,3578,0,71.13618777712621,54.75402357414753,76.97070265515922,0.10169593750718958,0.07827607767103544,0.302734375,,
3.5741100000003354,1500,,,,-0.375,0.01171875,-1.12890625,0.14614473759890875,5.568261759663692,22.59432279461943,3.147409071212138,3571,0,71.11357652168039,54.64683961473569,76.84445402359353,0.10189540326431235,0.07830096631359972,0.3046875,,
3.5810699999998326,1500,,,,0,0.0546875,-0.923828125,0.14614473759890875,5.568261759663692,22.594307779972862,3.144749458214168,3568,0,71.05343714979382,54.59973777317,76.84320416205007,0.1019833059051779,0.0783672399679239,0.306640625,,
3.588120000000112,1500,,,,-0.09375,-0.138671875,-0.80859375,0.14614473759890875,5.568261759663692,22.594208258026114,3.1422687498347566,3584,0,70.99707453645385,54.84985286510895,77.25649714897193,0.10151826247114276,0.07842945355170426,0.306640625,,
3.595195000000298,1500,,,,-0.125,0.6328125,-1.11328125,0.14614473759890875,5.9694195708652105,22.59428612569807,3.1373348020771488,3574,0,70.88584019024142,54.68981633122415,77.15196178030642,0.10915047757176466,0.0842117347391898,0.310546875,,
3.6029250000002793,1500,,,,0.125,-0.03515625,-0.98046875,0.14614473759890875,5.9694195708652105,22.59427365290974,3.135282424094315,3569,0,70.83942906914517,54.61990511474964,77.10381892185505,0.10929018566261146,0.08426690685265914,0.310546875,,
3.612035000000149,1500,,,,-0.1875,-0.04296875,-0.95703125,0.14614473759890875,5.9694195708652105,22.594258636213127,3.1335315557817576,3569,0,70.79982241606832,54.61710386458741,77.1429955623615,0.1092957910339815,0.08431404722719227,0.310546875,,
3.6201049999999815,1500,,,,0.1875,-0.1875,-0.9453125,0.14614473759890875,5.9694195708652105,22.59447506735268,3.1300355072910393,3574,0,70.72150922941599,54.691747271498535,77.33396510824177,0.10914662391808515,0.08440741205763583,0.3125,,
3.6278700000001116,1500,,,,-0.5625,0.2265625,-1.1640625,0.14614473759890875,5.9694195708652105,22.594614760936402,3.1248217450542333,3580,0,70.60414352609743,54.78180040131792,77.59006435800599,0.10896720310640977,0.08454772301938245,0.314453125,,
3.6351750000002796,1500,,,,0.21875,-0.150390625,-0.95703125,0.14614473759890875,5.9694195708652105,22.594850183690685,3.1221850091045,3580,0,70.54530252648111,54.79449885218683,77.67278173003541,0.1089419503035928,0.08461824327175328,0.31640625,,
3.643530000000261,1500,,,,-0.625,0.50390625,-1.0390625,0.14614473759890875,5.9694195708652105,22.595033980140908,3.1190905008246745,3577,0,70.47595585326825,54.73838592759784,77.66958995428709,0.10905362790128537,0.08470150562120238,0.318359375,,
3.6516150000002234,1500,,,,0.21875,-0.083984375,-0.998046875,0.14614473759890875,5.9694195708652105,22.594868439361086,3.116111127455957,3566,0,70.4081209672965,54.58241994409608,77.5229038841255,0.10936524208672234,0.08478311150553094,0.3203125,,
3.6595450000003913,1500,,,,-0.15625,0.078125,-0.9609375,0.14614473759890875,5.9694195708652105,22.59485860552143,3.1113595949763915,3580,0,70.30073011942399,54.783034496427796,77.92669351138264,0.10896474840681662,0.08491262552642918,0.32421875,,
3.666700000000186,1500,,,,0.0625,-0.125,-1.08203125,0.14614473759890875,5.9694195708652105,22.594820841806897,3.1078597722666963,3580,0,70.22153475582479,54.78842683460965,78.02225773777327,0.1089540239745367,0.0850083894010883,0.322265625,,
3.675,1500,,,,-0.125,-0.03125,-0.939453125,0.14614473759890875,5.9694195708652105,22.59497654608531,3.1076494139798494,3570,0,70.21726562233046,54.64348812710348,77.82058677848285,0.10924301825278873,0.08501355781884531,0.322265625,,
3.683155000000261,1500,,,,-0.0625,0.298828125,-1.11328125,0.1439777662368454,5.9694195708652105,22.595026558070995,3.1061773626606857,3578,0,70.18416000339711,53.95116327024148,76.87085414661954,0.11064487230728236,0.08505365841204444,0.322265625,,
3.6911200000001116,1500,,,,-0.0625,-0.18359375,-0.4140625,0.1439777662368454,5.9694195708652105,22.59527063715286,3.1034933011017882,3578,0,70.12427105898584,53.94888397449616,76.93325457760044,0.11064954696166093,0.08512629765297615,0.326171875,,
3.7009950000005776,1500,,,,-0.0625,0.150390625,-1.236328125,0.1439777662368454,5.9694195708652105,22.595306440128333,3.1073283050307072,3569,0,70.21103526225339,53.81162702463702,76.6426913143197,0.11093178000606044,0.08502110171952511,0.326171875,,
3.7092700000000187,1500,,,,-0.09375,-0.154296875,-0.796875,0.1439777662368454,5.9694195708652105,22.59528765177114,3.1133084691713786,3588,0,70.34610040962257,54.092416057969935,76.89469031402157,0.11035594277149469,0.08485786043725972,0.328125,,
3.716875000000466,1500,,,,0.1875,-0.01953125,-0.994140625,0.1439777662368454,5.9694195708652105,22.594935528860184,3.1175569590958627,3582,0,70.44099849832043,54.01411685073417,76.67994208234012,0.11051591544783486,0.08474353995716774,0.328125,,
3.7252549999998883,1500,,,,-0.6875,0.26171875,-1.06640625,0.1439777662368454,5.9694195708652105,22.594790295325808,3.1198717411012282,3575,0,70.49284773849526,53.901897489873264,76.4643495320705,0.11074600058349905,0.08468120897895554,0.33203125,,
3.733180000000633,1500,,,,0.15625,0.078125,-0.943359375,0.1439777662368454,5.9694195708652105,22.59484857099946,3.1146982542003445,3581,0,70.37613539801316,53.99900811446948,76.72914661920179,0.11054683741988318,0.08482164496679277,0.333984375,,
3.7408350000004282,1500,,,,-0.3125,0.265625,-1.37109375,0.1439777662368454,5.9694195708652105,22.594774214725092,3.1119104583689845,3579,0,70.31291418328887,53.95643556373735,76.73758965968312,0.11063406076581335,0.08489791157431432,0.3359375,,
3.7491150000002236,1500,,,,0.09375,-0.10546875,-0.86328125,0.1439777662368454,6.140942962059482,22.594736285695063,3.110861323710672,3572,0,70.2890912306109,53.85787413407647,76.62337525089721,0.11402126542855949,0.08736694207514668,0.333984375,,
3.758730000000447,1500,,,,-0.15625,-0.01953125,-0.966796875,0.1439777662368454,6.140942962059482,22.59469730882288,3.1075376319201657,3578,0,70.21387216901239,53.953542841591094,76.84171400164213,0.11381908654431533,0.08746053696166434,0.3359375,,
3.7665550000001677,1500,,,,-0.0625,0.275390625,-1.091796875,0.1439777662368454,6.140942962059482,22.594771381909574,3.1050918483631005,3585,0,70.15884043359529,54.045121187663845,77.03251771787343,0.11362622244357541,0.08752913993599751,0.333984375,,
3.775020000000484,1500,,,,-0.0625,-0.1484375,-0.3984375,0.1439777662368454,6.140942962059482,22.595001685112827,3.104833445913322,3588,0,70.15371694240618,54.09714323386565,77.11229795318981,0.11351695477729323,0.08753553239525409,0.337890625,,
3.7832100000004285,1500,,,,0,0.091796875,-1.189453125,0.1439777662368454,6.140942962059482,22.595056594666772,3.1042869048411963,3587,0,70.14153830096977,54.07575728947915,77.09519722456886,0.11356184859669545,0.08755073114748865,0.337890625,,
3.7909350000000557,1500,,,,-0.15625,-0.130859375,-0.865234375,0.1439777662368454,6.140942962059482,22.595102133530165,3.102366672525883,3582,0,70.09829182138246,54.014366246335264,77.05518186373119,0.1136909194500848,0.08760474474481099,0.33984375,,
3.799165000000037,1500,,,,0,0,-1.16015625,0.1439777662368454,6.140942962059482,22.595344550801816,3.1003853660670138,3579,0,70.05427558654799,53.962117029367164,77.02901297252029,0.11380100151959327,0.0876597882233855,0.337890625,,
3.8070500000002796,1500,,,,-0.125,0.1015625,-0.91796875,0.1439777662368454,6.140942962059482,22.595570244188604,3.1002240252283513,3576,0,70.05132973476836,53.91481544832753,76.96472808219679,0.11390084359919621,0.0876634745594496,0.341796875,,
3.8151200000001118,1500,,,,0.0625,0.30078125,-0.65234375,0.1439777662368454,6.140942962059482,22.59552548277642,3.099528497465682,3569,0,70.03547514907753,53.80836537773109,76.8301568072389,0.114126175715439,0.08768331976027677,0.34375,,
3.8232100000004285,1500,,,,0.03125,-0.037109375,-1.2265625,0.1439777662368454,6.140942962059482,22.5955487873906,3.099407264492454,3566,0,70.0328080568321,53.76702995510455,76.77405982560666,0.1142139144971773,0.08768665904523014,0.345703125,,
3.8311949999998323,1500,,,,0.03125,-0.1015625,-0.845703125,0.1439777662368454,6.140942962059482,22.59576803660172,3.0949599428282317,3583,0,69.93299695072083,54.02418649114793,77.25135321916312,0.11367025328675147,0.08781180887166576,0.345703125,,
3.8389600000004283,1500,,,,-0.125,0.08203125,-1.27734375,0.14273998396132,6.140942962059482,22.595649598967768,3.0930568777338587,3575,0,69.88962939895156,53.44346850685895,76.46838159891671,0.1149053969293058,0.08786629740165147,0.345703125,,
3.845845000000205,1500,,,,-0.125,0.01953125,-0.779296875,0.14273998396132,6.140942962059482,22.595837171918443,3.0951925115227463,3577,0,69.93846600610928,53.47077037518827,76.45402226940105,0.11484672689340994,0.08780494215476582,0.34375,,
3.854685000000056,1500,,,,-0.0625,0.4453125,-1.3203125,0.14273998396132,6.140942962059482,22.595927797737566,3.0971819415184663,3583,0,69.98369952700791,53.551853590098766,76.52046684018495,0.11467283670634483,0.08774818998657805,0.345703125,,
3.8705500000002795,1500,,,,0.09375,-0.00390625,-0.9921875,0.14273998396132,6.140942962059482,22.595624494578995,3.097001502516458,3575,0,69.97868301000882,53.43764746610915,76.36275100871237,0.1149179137415087,0.08775448033483516,0.345703125,,
3.877689999999944,1500,,,,-0.375,0.0390625,-0.796875,0.14273998396132,6.140942962059482,22.59558050564589,3.097003952594303,3573,0,69.9786021371481,53.40664452598254,76.31853580229156,0.11498462441451249,0.0877545817509202,0.34765625,,
3.89514000000013,1500,,,,-0.28125,0.259765625,-0.87890625,0.14273998396132,6.22641966672273,22.595201427570576,3.103224253587126,3575,0,70.11797708472346,53.43682891900408,76.20988388532149,0.11651925820973238,0.08879919138567496,0.349609375,,
3.903405000000261,1500,,,,0.4375,-0.29296875,-1.078125,0.14273998396132,6.22641966672273,22.594978134345716,3.111364196084966,3578,0,70.30120597852594,53.48092279305785,76.07397632608752,0.11642319057985585,0.08856775043979528,0.3515625,,
3.911709999999963,1500,,,,-0.21875,0.0546875,-1.03125,0.14273998396132,6.22641966672273,22.595230080107616,3.1106466229418053,3579,0,70.28577614327985,53.498429795465526,76.11558515965909,0.11638509187143424,0.08858719371654901,0.3515625,,
3.919040000000037,1500,,,,0.125,-0.029296875,-1.087890625,0.14273998396132,6.22641966672273,22.595076346083395,3.106437735447316,3582,0,70.19019779678652,53.54238151269754,76.28185016334123,0.11628955400958658,0.08870782334521062,0.3515625,,
3.92725,1500,,,,-0.25,-0.19140625,-0.6328125,0.14273998396132,6.22641966672273,22.595056401787595,3.103969006338488,3586,0,70.13435476761873,53.59825518198611,76.42225462767443,0.11616832759913001,0.08877845511451814,0.3515625,,
3.9352350000003353,1500,,,,-0.0625,0.28125,-1.09375,0.14273998396132,6.22641966672273,22.595298721138846,3.1028323888637424,4139,0,70.10942470800111,61.86989254837271,88.24761122495978,0.10063731178868027,0.08881002365452517,0.349609375,,
3.942895000000484,1500,,,,-0.1875,-0.111328125,-0.833984375,0.14273998396132,6.22641966672273,22.595200887406303,3.1009205541378395,3790,0,70.06592285663176,56.65342195476239,80.85731214971092,0.10990368192930182,0.08886516316160101,0.353515625,,
3.951314999999944,1500,,,,0.375,0.24609375,-1.07421875,0.14273998396132,6.22641966672273,22.59504395384009,3.0962637523655894,3656,0,69.96021557738234,54.642494133239026,78.1050968500797,0.11394830645066034,0.08899943511231387,0.353515625,,
3.95925,1500,,,,-0.1875,-0.126953125,-0.900390625,0.14273998396132,6.22641966672273,22.595155849515592,3.09216679969531,3618,0,69.8679907518134,54.08795439962468,77.41449813800585,0.11511656774296378,0.08911691319191294,0.35546875,,
3.9671400000001302,1500,,,,0.0625,-0.06640625,-1.04296875,0.14273998396132,6.22641966672273,22.59513176502855,3.0895168822148626,3596,0,69.80804104392502,53.75839943990385,77.00889272351544,0.11582226650336201,0.08919344496151821,0.353515625,,
3.9753150000004096,1500,,,,-0.1875,0.154296875,-0.98046875,0.14273998396132,6.22641966672273,22.595271811132992,3.0886138319015366,3588,0,69.78806905144025,53.629638059127934,76.84642774626411,0.1161003484651147,0.08921897039640522,0.35546875,,
3.9847400000002233,1500,,,,0.25,-0.08984375,-0.93359375,0.1424696153872313,6.22641966672273,22.595384359440516,3.089666772145899,3570,0,69.81220825922851,53.25858137584781,76.2883494217611,0.11690922863270901,0.08918812084560665,0.357421875,,
3.993095000000205,1500,,,,-0.15625,0.103515625,-0.953125,0.1424696153872313,6.22641966672273,22.59530857012665,3.0882873586791404,3590,0,69.78080582257658,53.561532271138866,76.75682680897015,0.11624797504304743,0.08922825687272676,0.361328125,,
4.001260000000242,1500,,,,0,-0.0546875,-1.16015625,0.1424696153872313,6.22641966672273,22.59560531484452,3.0845484630428994,3588,0,69.69723964542763,53.534065577423746,76.80944876693658,0.11630761832795528,0.08933524051165496,0.361328125,,
4.011854999999981,1500,,,,-0.09375,-0.048828125,-0.947265625,0.1424696153872313,6.22641966672273,22.595722307184936,3.0848412734196096,3579,0,69.70421677593225,53.39338240654223,76.59993164858014,0.11661407062235139,0.08932629838934815,0.359375,,
4.018725000000093,1500,,,,-0.0625,0.3359375,-1.111328125,0.1424696153872313,6.22641966672273,22.595800363179762,3.0814099186570045,3572,0,69.62692335909567,53.29543661701545,76.54429356607962,0.11682838272751561,0.08942546024345259,0.359375,,
4.026480000000447,1500,,,,-0.0625,-0.16015625,-0.41796875,0.1424696153872313,6.22641966672273,22.595545946600687,3.08238172624492,3579,0,69.64809792032943,53.39009934783706,76.656938153444,0.11662124144324101,0.08939827292692389,0.361328125,,
4.0342999999998135,1500,,,,0,0.095703125,-1.212890625,0.1424696153872313,6.22641966672273,22.595567975994623,3.082777177113112,3581,0,69.65710126030413,53.43318312344591,76.70888130094521,0.11652720842660494,0.08938671799526941,0.36328125,,
4.042360000000335,1500,,,,-0.15625,-0.134765625,-0.796875,0.1424696153872313,6.264109722040945,22.595589222455892,3.0825193777106303,3572,0,69.65134162900976,53.28882641440738,76.5079683579456,0.11755015344731545,0.0899352342041886,0.36328125,,
4.050240000000223,1500,,,,-0.0625,0.07421875,-1.19140625,0.1424696153872313,6.264109722040945,22.59560960986994,3.079689388124248,3588,0,69.58745913371473,53.52531330406596,76.91804524895097,0.11703079039361929,0.09001779631016904,0.36328125,,
4.058314999999944,1500,,,,-0.09375,0.02734375,-0.853515625,0.1424696153872313,6.264109722040945,22.595498517988773,3.0776748286526554,3594,0,69.54159702967243,53.61703871271574,77.10067211979343,0.11683057983870634,0.09007716229709445,0.365234375,,
4.0662250000000935,1500,,,,-0.0625,0.42578125,-0.76171875,0.1424696153872313,6.264109722040945,22.595522905092615,3.0801969062423677,3574,0,69.59865974719483,53.32003835706037,76.61072576790451,0.11748134313207004,0.09000330961536109,0.3671875,,
4.073455000000075,1500,,,,0.0625,-0.0859375,-1.220703125,0.1424696153872313,6.264109722040945,22.59536852663343,3.0869240669320734,3585,0,69.75018690606424,53.49244766428816,76.69147573228568,0.11710269384855422,0.08980778403471674,0.3671875,,
4.081209999999963,1500,,,,-0.3125,-0.03515625,-0.97265625,0.1424696153872313,6.264109722040945,22.59495040533781,3.0950291880909284,3591,0,69.93203100798748,53.57074655770659,76.60401933927511,0.11693153679113329,0.08957425705719133,0.3671875,,
4.089735000000335,1500,,,,0.15625,-0.0078125,-0.998046875,0.1424696153872313,6.264109722040945,22.594800301886266,3.094800953633793,3583,0,69.92640952144274,53.45934344092324,76.45086285251081,0.11717520865109905,0.08958145806299513,0.369140625,,
4.098305000000168,1500,,,,-0.03125,-0.01171875,-0.83203125,0.1424696153872313,6.264109722040945,22.594722561174752,3.0900839149801063,3578,0,69.8195887497242,53.38585233709027,76.46257059527746,0.11733651234952563,0.0897185135892925,0.369140625,,
4.1061650000005026,1500,,,,-0.0625,0.5,-1.265625,0.1424696153872313,6.264109722040945,22.594915568183044,3.088725400678618,3576,0,69.78948964163571,53.34544758762584,76.43765251981507,0.11742538501999532,0.08975720777163901,0.369140625,,
