Time (s),ESC signal (µs),Servo 1 (µs),Servo 2 (µs),Servo 3 (µs),AccX (g),AccY (g),AccZ (g),Torque (N·m),Thrust (N),Voltage (V),Current (A),Motor Electrical Speed (RPM),Motor Optical Speed (RPM),Electrical Power (W),Mechanical Power (W),Motor Efficiency (%),Propeller Mech. Efficiency (N/W),Overall Efficiency (N/W),Vibration (g),App message,90% settling time (s),Max acceleration (RPM/s),
0,1000,,,,-0.0625,0.05078125,-0.95703125,-0.0014621016864881247,0.008994341822123816,22.686549782121304,0.05235355161029215,0,0,1.1877214548777497,0,0,0,0,0.05859375,,
0,1200,,,,-0.0625,0.05078125,-0.95703125,-0.0013884741410613872,0.008994341822123816,22.686658306048233,0.0513336098687234,0,0,1.1645880667077133,0,0,0,0,0.05859375,,
0.00872000000020489,1200,,,,-0.0625,0.052734375,-0.955078125,-0.0013884741410613872,0.008994341822123816,22.686728150894094,0.05014595284182255,0,0,1.1376475999899833,0,0,0,0,0.05859375,,
0.01634499999973923,1200,,,,-0.0625,0.046875,-0.953125,-0.0013884741410613872,0.008994341822123816,22.686595006987897,0.049935648396450205,0,0,1.1328698315816104,0,0,0,0,0.05859375,,
0.02431000000005588,1200,,,,-0.0625,0.046875,-0.953125,-0.0013884741410613872,0.008994341822123816,22.68666399195216,0.05026670509281815,0,0,1.1403838484233157,0,0,0,0,0.05859375,,
0.03243999999994412,1200,,,,-0.15625,0.03125,-0.95703125,-0.0013884741410613872,0.008994341822123816,22.686138481715098,0.07058256035613564,0,0,1.6012457386333072,0,0,0,0,0.060546875,,
0.04033000000007451,1200,,,,0.25,0.03515625,-1.0546875,-0.0013884741410613872,0.008994341822123816,22.684564204518953,0.11712773186428604,0,0,2.656991553605077,0,0,0,0,0.0625,,
0.049434999999590216,1200,,,,-0.15625,0.087890625,-0.94140625,-0.0013884741410613872,0.008157619357478286,22.6830018001425,0.16652593920165695,0,0,3.777308178681605,0,0,0,0,0.0625,,
0.05870499999960885,1200,,,,0.09375,0.0625,-1.05859375,-0.0013884741410613872,0.008157619357478286,22.68149842942374,0.2147826546560029,0,0,4.871592444247591,0,0,0,0,0.06640625,,
0.06736499999975785,1200,,,,0.03125,-0.01953125,-0.98828125,-0.0013884741410613872,0.008157619357478286,22.68009993468613,0.25655570512861225,0,0,5.818709031130792,0,0,0,0,0.0703125,,
0.07583999999985098,1200,,,,-0.09375,0.076171875,-0.9609375,-0.0013884741410613872,0.008157619357478286,22.679056556304808,0.2891918730831151,0,0,6.558598845275689,0,0,0,0,0.078125,,
0.090625,1200,,,,-0.0625,0.140625,-0.921875,-0.0013884741410613872,0.008157619357478286,22.67758218166269,0.33485047665187584,0,0,7.593599202841838,0,0,0,0,0.078125,,
0.09760000000009313,1200,,,,-0.103515625,0.04296875,-0.9375,-0.0013884741410613872,0.008157619357478286,22.67686278621806,0.35876613964518356,0,0,8.135690521074974,0,0,0,0,0.08203125,,
0.10685000000009313,1200,,,,0,-0.009765625,-0.90625,-0.0013884741410613872,0.008157619357478286,22.67602480174958,0.36850579045912946,0,0,8.356246444039554,0,0,0,0,0.0859375,,
0.11416500000003725,1200,,,,0,0.0078125,-1.06640625,-0.0013884741410613872,0.008157619357478286,22.675497337377006,0.3844941311555179,0,0,8.718595647254032,0,0,0,0,0.087890625,,
0.12255499999970197,1200,,,,0,0.0390625,-0.96875,-0.0013884741410613872,0.008157619357478286,22.675031011565025,0.40036593441812035,0,0,9.078309978905088,0,0,0,0,0.087890625,,
0.13048499999986962,1200,,,,0,0.060546875,-0.95703125,-0.0013884741410613872,0.008157619357478286,22.67439322605394,0.4131737466429973,0,0,9.368464002065304,0,0,0,0,0.087890625,,
0.13875,1200,,,,-0.25,-0.05859375,-0.8984375,-0.0012044119001524147,0.008157619357478286,22.673675401453576,0.4361060456684916,0,0,9.888126920098868,0,0,0,0,0.087890625,,
0.14831000000005587,1200,,,,0.09375,0.138671875,-1.072265625,-0.0012044119001524147,0.008157619357478286,22.673211656823046,0.45473317211200226,0,0,10.31026145867397,0,0,0,0,0.08984375,,
0.1564499999997206,1200,,,,-0.1875,0.103515625,-0.951171875,-0.0012044119001524147,0.008157619357478286,22.672768389431464,0.46298123635387856,1,0,10.497066340504116,0.00015826986135201302,0.0015077532733246705,0,0.0007771332573179222,0.091796875,,
0.16467499999981375,1200,,,,-0.0625,-0.06640625,-0.94140625,-0.0012044119001524147,0.008157619357478286,22.672341314009593,0.46745380447660306,3,0,10.59827220362585,0.00034937851195093267,0.0032965610359715456,0,0.0007697121946620153,0.09375,,
0.17286999999964608,1200,,,,0.1875,-0.0234375,-1.00390625,-0.0012044119001524147,0.008157619357478286,22.672454764792228,0.4748334422075064,3,0,10.765639739260273,0.00042510664720403864,0.003948735583764282,0,0.0007577458985302077,0.095703125,,
0.18971999999973924,1200,,,,-0.0625,0.02734375,-0.970703125,-0.0012044119001524147,0.008157619357478286,22.672115036149037,0.48362838543963554,4,0,10.964878389434443,0.0004684475990052626,0.0042722553079717705,0,0.0007439771849488836,0.09765625,,
0.19700999999977648,1200,,,,0,0.02734375,-1.0234375,-0.0012044119001524147,0.009398602455060107,22.671991149303377,0.4787231238625324,4,0,10.8536064271782,0.0004721018599062611,0.0043497234128932905,0,0.0008659428106334628,0.09765625,,
0.2050050000003539,1200,,,,-0.0625,0.052734375,-1.015625,-0.0012044119001524147,0.009398602455060107,22.671991622118426,0.4783044186149499,4,0,10.844113771660368,0.0004737328853843882,0.004368571700367302,0,0.0008667008344768652,0.09765625,,
0.21489500000001863,1200,,,,-0.0625,0.064453125,-0.9765625,-0.0012044119001524147,0.009398602455060107,22.672207692523433,0.47803775710188523,4,0,10.838171313882011,0.0004744170853358547,0.004377279815905846,0,0.0008671760376237973,0.09765625,,
0.22289999999990687,1200,,,,0.0625,-0.03515625,-0.95703125,-0.0012044119001524147,0.009398602455060107,22.67208419027834,0.4737717622350647,4,0,10.741393280369918,0.0004746709836685896,0.004419082062064136,0,0.0008749891387215302,0.099609375,,
0.23679000000003725,1200,,,,-0.0625,0.10546875,-0.96875,-0.0012044119001524147,0.009398602455060107,22.672242911877177,0.46747959212386186,4,0,10.598810868977461,0.00047478271778164075,0.004479584772772214,0,0.0008867600876405537,0.09765625,,
0.25254499999992547,1200,,,,0,0.0390625,-0.9609375,-0.0012044119001524147,0.009398602455060107,22.67240866027771,0.4576233413325238,347,0,10.375423407172736,0.04379774777562479,0.4221297392581255,0.21459099913559498,0.0009058524251224934,0.09765625,,
0.28418000000016763,1200,,,,-0.046875,0.037109375,-0.974609375,-0.0012044119001524147,0.009398602455060107,22.673219779929802,0.4373601867222891,477,0,9.916363636545597,0.06012449739767595,0.6063159803468092,0.1563190190663182,0.000947787192920463,0.09765625,,
0.29175,1200,,,,-0.0625,0.06640625,-0.90625,0.03934498720084725,0.009398602455060107,22.673499461004674,0.43172455084094685,480,0,9.788706370794694,1.979136411338666,20.218569608376047,0.004748840151297604,0.0009601475515806163,0.09765625,,
0.30241500000003724,1200,,,,-0.03125,0.029296875,-1.01171875,0.03934498720084725,0.009398602455060107,22.673824100999994,0.4266540206687152,482,0,9.673878216626864,1.9866775468013038,20.536515989902842,0.004730814253270514,0.0009715444255755019,0.09765625,,
0.32025499999988827,1200,,,,-0.0625,0.013671875,-0.998046875,0.03934498720084725,0.009398602455060107,22.67458873180816,0.4089944091152118,542,0,9.273780020296318,2.233937117503147,24.08874388452194,0.0042071920384065455,0.0010134597148617507,0.09765625,,
0.3285500000002794,1200,,,,0,0.060546875,-0.9765625,0.03934498720084725,0.009398602455060107,22.67475935783937,0.4004890839601529,574,0,9.080993604237994,2.3637630329293438,26.029784139768612,0.003976118724309132,0.0010349751210785886,0.09765625,,
0.33657500000018625,1200,,,,-0.125,0.04296875,-0.9609375,0.03934498720084725,0.009398602455060107,22.67488263214634,0.39296898011452,586,0,8.910525502170989,2.412954628860155,27.079824060570335,0.0038950597506675335,0.0010547753275348575,0.09765625,,
0.3448849999997765,1200,,,,-0.03125,0.04296875,-0.984375,0.03934498720084725,0.0835540249790406,22.675135450713814,0.38665215219304566,591,0,8.767389923287322,2.433102391874115,27.7517301404775,0.034340529711403764,0.009530091134319268,0.09765625,,
0.3540449999999255,1200,,,,-0.03125,0.099609375,-0.998046875,0.03934498720084725,0.0835540249790406,22.675293233656795,0.3799523663326467,593,0,8.61553132141455,2.441457379801639,28.337862039143342,0.03422301190685914,0.009698069899805341,0.09765625,,
0.3629550000000745,1200,,,,-0.09375,0.08984375,-0.974609375,0.03934498720084725,0.0835540249790406,22.675554750975053,0.3729642541826149,593,0,8.45717136587446,2.444459515852661,28.903984678805276,0.03418098129143931,0.009879665595542918,0.09765625,,
0.37066500000003727,1200,,,,0,0.0078125,-1.046875,0.03934498720084725,0.0835540249790406,22.67557652326171,0.3652556348239649,594,0,8.282382098003351,2.445457120426497,29.526011858545232,0.03416703743489416,0.010088163524740438,0.09765625,,
0.3788100000000559,1200,,,,0,0.064453125,-0.951171875,0.03934498720084725,0.0835540249790406,22.674013831748734,0.4142643415017984,619,0,9.39303540921206,2.551683148503189,27.165692849413396,0.03274467091576522,0.008895316725527982,0.09765625,,
0.3868299999996088,1200,,,,-0.09375,-0.00390625,-0.9609375,0.03934498720084725,0.0835540249790406,22.672415048102494,0.44454737830901303,655,0,10.07896266956778,2.6982572544540333,26.77118015925486,0.03096592248241614,0.008289942895742829,0.09765625,,
0.39478499999968336,1200,,,,0.0625,0.02734375,-1.0703125,0.03934498720084725,0.0835540249790406,22.669586410086165,0.4912140079669727,669,0,11.13561839945204,2.7561654189488545,24.750896807711005,0.030315315766100283,0.007503312522199226,0.099609375,,
0.40271999999973923,1200,,,,-0.21875,0.181640625,-0.947265625,0.03934498720084725,0.0835540249790406,22.66717976568965,0.550578812587278,674,0,12.480068920095782,2.7789467500297387,22.267078553989357,0.03006679598237946,0.006694997080064149,0.099609375,,
0.410714999999851,1200,,,,0,0.01953125,-1.19140625,0.03934498720084725,0.0835540249790406,22.665477655378197,0.6500612098762399,677,0,14.733947827078033,2.7879875978366266,18.922203543525963,0.029969295790223522,0.005670851149987453,0.1015625,,
0.41881000000005586,1200,,,,0,-0.1171875,-0.88671875,0.03934498720084725,0.0835540249790406,22.66271385493392,0.7004502817290583,678,0,15.874104304433498,2.791649604619406,17.586186603547283,0.029929982917906977,0.005263542646352947,0.103515625,,
0.4270449999999255,1200,,,,-0.03125,0.017578125,-0.939453125,0.03934498720084725,0.0835540249790406,22.66099171455176,0.7605631081866169,678,0,17.235114293010657,2.7930726475076417,16.205710040694736,0.02991473388764121,0.0048478950332765825,0.103515625,,
0.43558499999996275,1200,,,,0.0625,-0.0234375,-1.02734375,0.09105209041499487,0.0835540249790406,22.65953529053475,0.7930455999095569,761,0,17.970044758153907,7.25946801170116,40.39760673610552,0.011509662256843642,0.004649628095173662,0.10546875,,
0.44285999999986964,1200,,,,-0.15625,0.00390625,-0.951171875,0.09105209041499487,0.0835540249790406,22.65816109666242,0.8353419771485107,797,0,18.92731308903545,7.602837783986407,40.168605803803786,0.010989847127217095,0.004414468370972489,0.10546875,,
0.454070000000298,1200,,,,0,0.03515625,-0.96484375,0.09105209041499487,0.0835540249790406,22.657376546107834,0.8768004629407473,809,0,19.86599824465018,7.710227684175028,38.811176711199785,0.010836777900934404,0.004205881020931898,0.107421875,,
0.46425499999988823,1200,,,,-0.09375,0.048828125,-0.9375,0.09105209041499487,0.0835540249790406,22.655499715830214,0.9235214108868055,815,0,20.92283906190914,7.770475734886981,37.138725351252354,0.010752755407742853,0.003993436298573553,0.109375,,
0.47354000000003726,1200,,,,-0.0625,0.05859375,-0.927734375,0.09105209041499487,0.0835540249790406,22.654253468119535,0.9575795950963762,817,0,21.693250863212583,7.7860418243280884,35.8915400620368,0.01073125817510633,0.003851613827078888,0.109375,,
0.4815299999997951,1200,,,,-0.125,-0.013671875,-1.02734375,0.09105209041499487,0.0835540249790406,22.653535791208053,0.9712252407250185,930,0,22.001685752088864,8.871477518312538,40.3218081481337,0.009418276133436404,0.0037976192333856913,0.109375,,
0.48989999999990685,1200,,,,0.125,0.21875,-0.8203125,0.09105209041499487,0.0835540249790406,22.653008077886362,0.9808773575088348,974,0,22.219822703063464,9.282561504543617,41.77603767857168,0.009001181940797557,0.0037603371591043767,0.111328125,,
0.4974199999999255,1200,,,,-0.0625,-0.12109375,-0.947265625,0.09105209041499487,0.1912837797198622,22.652665004874358,0.9936399067244521,991,0,22.508591942503617,9.446720077175609,41.96939595913637,0.020248697765696096,0.008498256141853795,0.111328125,,
0.5058450000002049,1200,,,,0.03125,0.111328125,-1.04296875,0.09105209041499487,0.1912837797198622,22.652533505631457,0.9991313390115886,998,0,22.63285613348643,9.511847392861101,42.02672140343724,0.020110055577996958,0.008451597031841172,0.111328125,,
0.5137700000000186,1200,,,,0,0.05078125,-1.0390625,0.09105209041499487,0.1912837797198622,22.652441920459523,1.0050655515521298,1037,0,22.76718903278924,9.888058265661362,43.43117743442376,0.019344928456190503,0.00840173020237043,0.111328125,,
0.5222800000002608,1200,,,,0.09375,0.01171875,-1.064453125,0.09105209041499487,0.1912837797198622,22.65242021564233,1.0061305817304997,1089,0,22.79129272916795,10.387597900525465,45.57704569004801,0.018414630750212803,0.008392844670678119,0.11328125,,
0.5300649999999442,1200,,,,0.0625,0.060546875,-0.88671875,0.09105209041499487,0.1912837797198622,22.652397216584678,1.0069035725965738,1111,0,22.808779685255796,10.59544590762304,46.453366001304396,0.018053395901180568,0.008386410073639895,0.11328125,,
0.5386299999998883,1200,,,,-0.125,-0.015625,-0.90234375,0.09105209041499487,0.1912837797198622,22.652377899083405,1.0073408764832792,1119,0,22.818666207293138,10.665736775786648,46.74128048894349,0.017934417822321903,0.00838277653839055,0.11328125,,
0.5459300000001677,1200,,,,-0.15625,0.130859375,-1.00390625,0.09105209041499487,0.1912837797198622,22.65248890360252,1.0079669237136573,1122,0,22.83295955462199,10.693585863008229,46.83398942404541,0.017887711584339574,0.008377528951613342,0.115234375,,
0.5543599999998696,1200,,,,0.09375,-0.0703125,-0.958984375,0.09105209041499487,0.1912837797198622,22.652861391739556,1.003410421859395,1171,0,22.730117205407794,11.163864622844873,49.11485727046248,0.017134190191489228,0.008415433056999516,0.1171875,,
0.5612900000000373,1200,,,,-0.25,0.42578125,-0.8125,0.09105209041499487,0.1912837797198622,22.652910485192137,1.0004847547939955,1189,0,22.663891592147785,11.334112836620065,50.00956164362754,0.01687681978088589,0.008440023591806055,0.12109375,,
0.569820000000298,1200,,,,0.03125,-0.060546875,-1.046875,0.09105209041499487,0.1912837797198622,22.653061826109173,0.9969874195099653,1197,0,22.584817654012287,11.41379439920098,50.537465363034585,0.016758999945999817,0.00846957379290064,0.123046875,,
0.5783999999999069,1200,,,,-0.0625,0.169921875,-0.94921875,0.09105209041499487,0.1912837797198622,22.653449043107923,0.9900506368758724,1201,0,22.42806165256412,11.447387956672594,51.04046945298036,0.016709818907497093,0.00852877001512939,0.125,,
0.5857599999997765,1200,,,,0,-0.05078125,-0.95703125,0.09957177021802797,0.1912837797198622,22.653728198626066,0.9869009665196846,1236,0,22.3569862544983,12.884641150625987,57.631386466651136,0.014845875603649923,0.008555883943497765,0.125,,
0.5948950000000186,1200,,,,-0.03125,0.080078125,-0.962890625,0.09957177021802797,0.1912837797198622,22.654150023426094,0.9780363085005472,1254,0,22.156581261129244,13.070437908549007,58.99122140959238,0.014634840933274993,0.008633271417889906,0.125,,
0.6049000000003726,1200,,,,0,-0.01171875,-0.98828125,0.09957177021802797,0.1912837797198622,22.654506564087434,0.9708708208174676,1259,0,21.994599383090275,13.132850333693598,59.70943186985392,0.014565290463191006,0.008696852185765365,0.123046875,,
0.6125200000000186,1200,,,,-0.125,0.03125,-1.001953125,0.09957177021802797,0.1912837797198622,22.654679074656336,0.9640828811967392,1262,0,21.840988274882157,13.159803431811877,60.252783739397344,0.014535458733180009,0.008758018516032296,0.125,,
0.6207299999999814,1200,,,,0,0.01953125,-0.98046875,0.09957177021802797,0.1912837797198622,22.655063010126817,0.954996404585295,1278,0,21.635503720324422,13.329032705366076,61.60722152655389,0.014350912324106919,0.008841198346594073,0.125,,
0.628839999999851,1200,,,,-0.0625,0.1015625,-0.986328125,0.09957177021802797,0.1912837797198622,22.655503779093234,0.9444150091515539,1285,0,21.3961978088654,13.39783829817978,62.617846487792605,0.014277212148906877,0.008940082786138984,0.125,,
0.6375800000000745,1200,,,,-0.09375,0.033203125,-0.892578125,0.09957177021802797,0.1912837797198622,22.655893748229495,0.9349524884661587,1288,0,21.182184238332056,13.42625250848641,63.38464606586592,0.014246997038001209,0.009030408647551467,0.125,,
0.6459399999999441,1200,,,,-0.0625,-0.01953125,-1.05859375,0.09957177021802797,0.5477829921651514,22.656093283787282,0.9267580778332153,1289,0,20.99671746289272,13.435947468644155,63.99070470129137,0.040769956375873585,0.026088982391330576,0.125,,
0.6538950000000187,1200,,,,-0.03125,0.109375,-0.927734375,0.09957177021802797,0.5477829921651514,22.65615480462488,0.916215172521907,1322,0,20.757912783002414,13.780580970448442,66.38712241691587,0.03975035547048678,0.026389117147351284,0.126953125,,
0.661625,1200,,,,0,0.037109375,-1.021484375,0.09957177021802797,0.5477829921651514,22.65643880131381,0.9057739896864542,1334,0,20.521612965152997,13.913751900092517,67.80047905454096,0.03936989793252738,0.026692979401537382,0.126953125,,
0.669660000000149,1200,,,,-0.1875,0.13671875,-1.04296875,0.09957177021802797,0.5477829921651514,22.656813082134615,0.8969447036695418,1340,0,20.32190849605143,13.967222297112228,68.7298749515877,0.039219179054550274,0.026955292721231677,0.126953125,,
0.678589999999851,1200,,,,0.0625,-0.029296875,-0.98046875,0.09957177021802797,0.5477829921651514,22.65737112710957,0.8865328660657843,1347,0,20.086504162832597,14.042498095222475,69.91011467892083,0.039008941888446294,0.027271196009246393,0.126953125,,
0.6874550000000745,1200,,,,-0.15625,0,-0.966796875,0.09957177021802797,0.5477829921651514,22.657903229434393,0.8761675131044314,1361,0,19.852118724694396,14.19014006062018,71.47922223016336,0.038603071557083035,0.027593175305956362,0.12890625,,
0.6957749999999069,1200,,,,-0.0625,0.0390625,-0.96484375,0.09957177021802797,0.5477829921651514,22.658569660338145,0.8668083601467609,1366,0,19.640637610548858,14.238900444923356,72.49713948836232,0.03847087731837147,0.027890285591896505,0.12890625,,
0.7037749999999069,1200,,,,0.0625,-0.03125,-0.96875,0.09957177021802797,0.5477829921651514,22.658903053013255,0.8588618515355577,1367,0,19.460867429875666,14.256623864837648,73.25790546700586,0.038423051443209934,0.028147922703805763,0.130859375,,
0.7119950000001117,1200,,,,-0.09375,0.0703125,-0.92578125,0.09957177021802797,0.5477829921651514,22.65915233261179,0.850840831973747,1376,0,19.279332022499286,14.351550503209813,74.44008167119756,0.038168906700543355,0.028412965320887672,0.130859375,,
0.7207750000003725,1200,,,,0.125,-0.109375,-0.9375,0.09957177021802797,0.5477829921651514,22.65948921301259,0.8403172280289345,1385,0,19.041159164030283,14.437715928819584,75.8237237788189,0.037941111659615376,0.028768363703400017,0.130859375,,
0.7288549999999814,1200,,,,-0.09375,0.037109375,-0.939453125,0.09957177021802797,0.5477829921651514,22.65991225307979,0.83081572148857,1387,0,18.826211347410172,14.467423736153082,76.84723957028822,0.03786320233341061,0.02909682580613901,0.130859375,,
0.7380400000000372,1200,,,,0,0.03515625,-1.017578125,0.10310202419136609,0.5477829921651514,22.660503107253952,0.8206022322713191,1389,0,18.595259434203754,14.992966693834457,80.62789737827852,0.036535997401395924,0.02945820649092801,0.130859375,,
0.7470449999999255,1200,,,,-0.09375,0.107421875,-1.056640625,0.10310202419136609,0.5477829921651514,22.660994807505368,0.8095998486061796,1398,0,18.346337965421768,15.097799105273593,82.29325729052384,0.03628230766256608,0.029857892795694948,0.1328125,,
0.7578100000000558,1200,,,,0.125,0.02734375,-0.90234375,0.10310202419136609,0.5477829921651514,22.661283597051796,0.7976785467409098,1402,0,18.076419766979893,15.133280500534767,83.71835073325005,0.036197240389867505,0.030303732665346923,0.1328125,,
0.7692150000003166,1200,,,,-0.103515625,0.0390625,-1.0234375,0.10310202419136609,0.5477829921651514,22.661826881185277,0.7825061519295183,1403,0,17.73301894848921,15.14974989513943,85.43243504755931,0.03615789012734127,0.03089056599760869,0.13671875,,
0.7773499999996275,1200,,,,0.0625,-0.08203125,-0.90234375,0.10310202419136609,0.5477829921651514,22.662082369569262,0.7756001778076211,1412,0,17.576715115328877,15.245752608028532,86.7383496176286,0.03593020339820315,0.03116526544185852,0.140625,,
0.7857549999998883,1200,,,,-0.1875,0.212890625,-1.048828125,0.10310202419136609,0.5477829921651514,22.662334719676856,0.7695904669754146,1416,0,17.44071675966926,15.285520835698604,87.6427330730212,0.035836724051026794,0.03140828440215661,0.142578125,,
0.7942550000003539,1200,,,,0.1875,-0.01953125,-1.0546875,0.10310202419136609,0.9729531936628928,22.662616001416808,0.7626458805499582,1417,0,17.283550735966095,15.29902565579016,88.51783924210521,0.06359576194936722,0.05629359432713279,0.14453125,,
0.8012400000002236,1200,,,,-0.1875,0.11328125,-0.9765625,0.10310202419136609,0.9729531936628928,22.662810391945808,0.7549062719308218,1421,0,17.108297704458895,15.34210871828991,89.67641891274391,0.06341717501343204,0.056870251527673284,0.14453125,,
0.8091099999998697,1200,,,,-0.03125,0.037109375,-0.90234375,0.10310202419136609,0.9729531936628928,22.663160511186025,0.7478509299331705,1426,0,16.948665663515175,15.39774178463912,90.84928625257693,0.06318804453738254,0.05740588745917247,0.146484375,,
0.8163800000003539,1200,,,,-0.0625,-0.16015625,-0.953125,0.10310202419136609,0.9729531936628928,22.663369349568285,0.7410643261629861,1428,0,16.795014535620695,15.418364854033568,91.80322423259963,0.06310352640334363,0.05793107184273927,0.146484375,,
0.8238300000000746,1200,,,,-0.0625,0.103515625,-1.025390625,0.10310202419136609,0.9729531936628928,22.66366346428426,0.7343897288857942,1429,0,16.643961667094597,15.427498827713627,92.69126627594957,0.06306616545742987,0.05845682735417723,0.1484375,,
0.8321899999999441,1200,,,,0.0625,-0.01171875,-1.1015625,0.10310202419136609,0.9729531936628928,22.6640072722996,0.7278633150069612,1432,0,16.496299464557865,15.459862182882926,93.71715284448058,0.06293414405337593,0.058980087973867903,0.150390625,,
0.8409350000000558,1200,,,,-0.15625,0.134765625,-0.951171875,0.10310202419136609,0.9729531936628928,22.664224190747113,0.7198202610227524,1436,0,16.31416777286177,15.50303344032632,95.0280373241916,0.06275889150390772,0.05963854284258234,0.15234375,,
0.8491099999998696,1200,,,,0.25,-0.1015625,-1.0703125,0.10310202419136609,0.9729531936628928,22.664478166059016,0.7128560395403277,1437,0,16.15651014370506,15.517983819611676,96.04786975396313,0.06269842815748213,0.06022050461448057,0.154296875,,
0.8572299999999814,1200,,,,-0.1875,0.091796875,-0.935546875,0.10310202419136609,0.9729531936628928,22.664651680737407,0.7044219763852249,1438,0,15.965478731027753,15.52378535018129,97.23344731286971,0.06267499657559555,0.060941059773674595,0.154296875,,
0.8647199999997393,1200,,,,0,0.05859375,-0.97265625,0.10310202419136609,0.9729531936628928,22.664814249026584,0.6979509349513453,1441,0,15.818928295606678,15.560045824450661,98.3634639065409,0.06252894140800143,0.0615056327130016,0.15625,,
0.8726350000002422,1200,,,,0.0625,0.02734375,-0.97265625,0.10310202419136609,0.9729531936628928,22.664969783728626,0.6913322143626196,1443,0,15.669023749046975,15.574526185324707,99.39691479676253,0.062470805344927285,0.06209405316154875,0.15625,,
0.8805,1200,,,,-0.03125,0.1015625,-0.96875,0.10310202419136609,0.9729531936628928,22.66511754665173,0.6840392900300529,1443,0,15.503830915059343,15.580257536311159,100.49295313958552,0.062447824844701044,0.06275566335787587,0.158203125,,
0.8887049999996088,1200,,,,0.03125,-0.029296875,-0.9453125,0.0828570082544574,0.9729531936628928,22.665459850340028,0.6777672950734293,1444,0,15.361907414360374,12.531383274024193,81.57439656425612,0.07764132437635109,0.06333544184450507,0.158203125,,
0.896839999999851,1200,,,,-0.1875,0.1484375,-0.98046875,0.0828570082544574,0.9729531936628928,22.66580547854511,0.6720376141165707,1447,0,15.232273835831753,12.55125010728772,82.39905770182973,0.07751842926769185,0.06387445526183747,0.158203125,,
0.9080400000000373,1200,,,,0.09375,0.005859375,-0.98046875,0.0828570082544574,0.9729531936628928,22.666097756098665,0.6645261053871615,1448,0,15.062213666184926,12.561307882892432,83.39616049328065,0.07745636065397161,0.06459563084324045,0.16015625,,
0.9160400000000373,1200,,,,-0.0625,0.13671875,-1.087890625,0.0828570082544574,0.9729531936628928,22.66630042430387,0.6582629816451893,1448,0,14.920386500167885,12.5646932583639,84.21158029802058,0.07743549115416966,0.06520965081246019,0.16015625,,
0.9240399999995715,1200,,,,-0.1875,0.05078125,-0.908203125,0.0828570082544574,0.9729531936628928,22.666563544602017,0.6540368011044527,1450,0,14.824766712742308,12.585585640122147,84.89567413768798,0.07730694633400069,0.06563025324551056,0.1640625,,
0.9410049999998883,1200,,,,-0.25,0.017578125,-0.916015625,0.0828570082544574,1.2356598735242925,22.666959843431417,0.6535731046626734,1452,0,14.814515318135616,12.598268785003546,85.0400334702885,0.09808172016421578,0.08340872765588382,0.16796875,,
0.9489050000002608,1200,,,,-0.03125,0.0859375,-1.03125,0.0828570082544574,1.2356598735242925,22.667207221092717,0.653675013099235,1454,0,14.816986977170856,12.61302158006826,85.12541449554935,0.09796699907950251,0.08339481403527753,0.171875,,
0.9571949999998324,1200,,,,0.125,0.01171875,-1.04296875,0.0828570082544574,1.2356598735242925,22.66737640362867,0.6477271052246798,1456,0,14.68227410096061,12.63228997913841,86.03769342728673,0.09781756716833785,0.08415997855832481,0.173828125,,
0.9650299999997951,1200,,,,-0.15625,0.087890625,-0.9921875,0.0828570082544574,1.2356598735242925,22.667799358746578,0.6418929994654624,1457,0,14.550301721667127,12.63992868425844,86.87056066635432,0.09775845294627043,0.0849233161731793,0.17578125,,
0.9727799999997951,1200,,,,0.09375,-0.03515625,-0.998046875,0.0828570082544574,1.2356598735242925,22.667940121446577,0.6355432362982009,1457,0,14.40645602499799,12.642942078262017,87.75886350066988,0.09773515261521744,0.08577125917576006,0.177734375,,
0.9808499999996275,1200,,,,-0.3125,0.1015625,-0.87890625,0.0828570082544574,1.2356598735242925,22.6682024035731,0.6332482396321435,1167,0,14.35459926768779,10.122126926436296,70.51486939953251,0.12207512141515224,0.08608111243521534,0.177734375,,
0.9894549999996088,1200,,,,0,0.0390625,-1.001953125,0.0828570082544574,1.2356598735242925,22.668390619431715,0.6295192817072335,1347,0,14.270188980203644,11.686963943502134,81.89775173766027,0.10572975834423708,0.08659029500159142,0.181640625,,
0.9974950000001117,1200,,,,0.0625,0.0703125,-1.0390625,0.0828570082544574,1.2356598735242925,22.668441794995385,0.62587619035723,1421,0,14.18763799198632,12.328317846753933,86.89478723461512,0.10022939778841312,0.0870941219547776,0.181640625,,
1.0057799999997952,1200,,,,-0.0625,0.14453125,-0.98828125,0.0828570082544574,1.2356598735242925,22.668685378950087,0.622064119127131,1447,0,14.10137580202666,12.555361036468598,89.03642603911126,0.09841691289761925,0.0876269018620653,0.181640625,,
1.0132549999998883,1200,,,,0,-0.068359375,-0.94140625,0.0828570082544574,1.2356598735242925,22.6687427342773,0.6175712690108688,1457,0,13.999564217288542,12.641385480599983,90.29842132506312,0.09774718723834423,0.08826416696587838,0.181640625,,
1.0212900000000373,1200,,,,-0.25,0.16015625,-0.94921875,0.0828570082544574,1.2356598735242925,22.668706676110055,0.6132496956382572,1461,0,13.90157746963742,12.681012237144182,91.21995158348693,0.09744173812125967,0.0888863063363212,0.18359375,,
1.029410000000149,1200,,,,0.0625,-0.00390625,-0.978515625,0.0828570082544574,1.2356598735242925,22.668867053112226,0.6089747294738298,1463,0,13.80476718114723,12.696769200134387,91.97380175649754,0.09732081083361063,0.08950964962392104,0.18359375,,
1.0383849999997765,1200,,,,-0.125,0.083984375,-1,0.06584522879126434,1.2356598735242925,22.668892852501354,0.6031654336115256,1465,0,13.673092586872194,10.099368222003765,73.86308662679845,0.12235021501960165,0.09037164530800251,0.185546875,,
1.0471550000002607,1200,,,,-0.1875,0.1015625,-0.9375,0.06584522879126434,1.2356598735242925,22.669138153675487,0.5988724933963187,1465,0,13.575923289237258,10.104815399010025,74.43188344339671,0.1222842600019542,0.09101847787427475,0.185546875,,
1.055314999999944,1200,,,,0.4375,-0.1796875,-1.00390625,0.06584522879126434,1.2356598735242925,22.66921480747575,0.5966061706043227,1466,0,13.524593436894918,10.106665077132517,74.72805097091987,0.12226188006567211,0.09136392005348036,0.189453125,,
1.065660000000149,1200,,,,-0.28125,0.07421875,-0.90625,0.06584522879126434,1.2356598735242925,22.669348864790678,0.5953747088124157,1466,0,13.496756979341816,10.10764337325233,74.88942261258111,0.12225004661266507,0.09155235405183615,0.19140625,,
1.0827800000002608,1200,,,,0.1875,-0.00390625,-1.037109375,0.06584522879126434,1.2356598735242925,22.669391660327133,0.5902676039311859,1466,0,13.381007497918905,10.109026886122194,75.54757657593728,0.12223331557467938,0.09234430768508797,0.197265625,,
1.0914550000000744,1200,,,,-0.125,0.015625,-0.951171875,0.06584522879126434,1.4933229312635052,22.669307090616435,0.5863247801039027,1466,0,13.291576495013523,10.109156019730241,76.05686220534335,0.14771984212618317,0.11235107677586188,0.201171875,,
1.099619999999646,1200,,,,0,0.01953125,-0.94921875,0.06584522879126434,1.4933229312635052,22.6694268703339,0.5834285595245908,1467,0,13.22599106420696,10.113160159235656,76.46428997373626,0.147661354883197,0.11290820657703551,0.201171875,,
1.1087250000000932,1200,,,,-0.03125,-0.04296875,-0.958984375,0.06584522879126434,1.4933229312635052,22.669349776025815,0.5774731742995897,1467,0,13.090941374469319,10.115057649822353,77.26761094163403,0.1476336549885835,0.11407299815549297,0.203125,,
1.1156999999997206,1200,,,,-0.15625,0.20703125,-1.017578125,0.06584522879126434,1.4933229312635052,22.669479491487863,0.5763091794274904,1467,0,13.064629123787691,10.115712278719496,77.42823912468441,0.1476241010141244,0.11430274193888192,0.20703125,,
1.1239500000001863,1200,,,,0,0.111328125,-0.9921875,0.06584522879126434,1.4933229312635052,22.669604427269327,0.5747554482826586,1467,0,13.029478654985724,10.117943692069899,77.65424818588788,0.14759154396499766,0.11461110385196312,0.205078125,,
1.1321650000000372,1200,,,,-0.25,-0.07421875,-0.984375,0.06584522879126434,1.4933229312635052,22.66959125749202,0.5721384438294597,1468,0,12.970144664311407,10.122713129004193,78.0462623278043,0.14752200445004696,0.11513541058431878,0.205078125,,
1.141035000000149,1200,,,,-0.03125,0.056640625,-0.900390625,0.06584522879126434,1.4933229312635052,22.669577048472842,0.569916395531866,1468,0,12.91976363969756,10.12472883987865,78.36620794492846,0.14749263460584724,0.11558438473867179,0.20703125,,
1.149304999999702,1200,,,,0,-0.1328125,-1.046875,0.06584522879126434,1.4933229312635052,22.669499621965745,0.5664495725694204,1468,0,12.841128371225134,10.125405648495356,78.85137003368592,0.14748277581208952,0.11629218929154213,0.20703125,,
1.1573400000003167,1200,,,,-0.09375,0.150390625,-1.01953125,0.06584522879126434,1.4933229312635052,22.669620889440864,0.5634115123106889,1468,0,12.772325388829861,10.124835841230746,79.27167162594763,0.1474910758732836,0.11691864134384666,0.20703125,,
1.1655649999999442,1200,,,,0.09375,0.11328125,-1.05078125,0.06584522879126434,1.4933229312635052,22.66973810860811,0.5609000507904367,1468,0,12.715457256524187,10.124606544102402,79.62439997120478,0.14749441617890505,0.11744154387348475,0.20703125,,
1.1741999999997206,1200,,,,-0.0625,0.021484375,-0.99609375,0.06584522879126434,1.4933229312635052,22.670084742516,0.5603787447260513,1468,0,12.703833630844324,10.124511002911165,79.69650183649539,0.14749580802807374,0.11754899935384748,0.208984375,,
1.182310000000056,1200,,,,-0.25,0.1171875,-0.85546875,0.05809169319357648,1.4933229312635052,22.67011328373145,0.5596272649819453,1468,0,12.686813493805497,8.930805085818632,70.39439091761864,0.16721033735634613,0.1177066985332952,0.208984375,,
1.190375,1200,,,,0.0625,0.015625,-1.017578125,0.05809169319357648,1.4933229312635052,22.670107818609633,0.5581084275349231,1468,0,12.652378226691388,8.928723120029915,70.56952424322827,0.16724932682854904,0.118027054242909,0.2109375,,
1.1984099999996833,1200,,,,-0.5,0.21875,-0.94921875,0.05809169319357648,1.4933229312635052,22.670004439857575,0.5562912112695743,1468,0,12.611124229334997,8.927903289645817,70.793873149536,0.167264684978767,0.11841314890783931,0.212890625,,
1.2059499999997205,1200,,,,0.15625,0.05078125,-1.02734375,0.05809169319357648,1.4933229312635052,22.67010187434824,0.5549444225819264,1468,0,12.580646594533633,8.927581240751955,70.96281716260151,0.16727071879748306,0.11870001434682723,0.212890625,,
1.218679999999702,1200,,,,-0.09375,-0.021484375,-0.943359375,0.05809169319357648,1.4933229312635052,22.66999897545776,0.5537125627082966,1468,0,12.552663229295174,8.9289325592465,71.13177814257233,0.1672454037876085,0.11896462957585095,0.216796875,,
1.2267900000000374,1200,,,,-0.1875,0.064453125,-0.896484375,0.05809169319357648,1.4933229312635052,22.669999206577877,0.550914080901666,1468,0,12.48922177693335,8.929583125141425,71.4983149841545,0.16723321910280714,0.11956893375226631,0.216796875,,
1.2352650000001304,1200,,,,0,0.10546875,-0.99609375,0.05809169319357648,1.4933229312635052,22.669897105819636,0.551497570043701,1468,0,12.50239316700026,8.92972709278103,71.42414235020868,0.16723052292054227,0.11944296674376649,0.220703125,,
1.243524999999907,1200,,,,0.09375,-0.01171875,-1.0546875,0.05809169319357648,1.600064425026791,22.670007240778475,0.5494517820871845,1468,0,12.456075878375108,8.930804539546024,71.69837938327528,0.1791624055751786,0.1284565412614939,0.220703125,,
1.2522400000002236,1200,,,,-0.25,0.125,-0.89453125,0.05809169319357648,1.600064425026791,22.669972858757003,0.5496664121119335,1468,0,12.460922643947873,8.931706957289668,71.67773376418235,0.17914430384674548,0.12840657716496812,0.220703125,,
1.2614549999996088,1200,,,,0.0625,-0.0625,-0.921875,0.05809169319357648,1.600064425026791,22.67019491662937,0.547612484099482,1468,0,12.41448175331486,8.932064310396244,71.94874895209576,0.17913713665993622,0.1288869287354302,0.220703125,,
1.2692150000003166,1200,,,,-0.125,-0.013671875,-1,0.05809169319357648,1.600064425026791,22.67041439154698,0.5471633940508638,1468,0,12.404420883018394,8.9307028796482,71.99612915323034,0.17916444501508497,0.12899146522972896,0.22265625,,
1.2769399999999442,1200,,,,0,0.25390625,-0.953125,0.05809169319357648,1.600064425026791,22.670296184577346,0.5504576330709567,1467,0,12.479037578779987,8.92720547476661,71.53761192246829,0.1792346361411181,0.12822017843328115,0.220703125,,
1.2842449999996461,1200,,,,-0.03125,-0.009765625,-1.025390625,0.05809169319357648,1.600064425026791,22.670112272233933,0.5569121233297959,1467,0,12.625260361654663,8.925925347627503,70.6989407896668,0.17926034138881586,0.1267351626178335,0.22265625,,
1.2923449999997392,1200,,,,-0.125,-0.015625,-0.91796875,0.05809169319357648,1.600064425026791,22.669808932939876,0.5614874475383577,1467,0,12.72881315393867,8.92531596390028,70.11899582435558,0.17927258054487716,0.12570413326647692,0.220703125,,
1.3006850000000558,1200,,,,0.1875,-0.00390625,-0.94140625,0.05809169319357648,1.600064425026791,22.669917115526125,0.5585309689637701,1469,0,12.661850772863163,8.935508130609996,70.57031622707596,0.17906809569626123,0.12636892139465455,0.220703125,,
1.3090800000000744,1200,,,,-0.21875,0.037109375,-0.939453125,0.05809169319357648,1.600064425026791,22.669811919004776,0.5557608586720121,1471,0,12.598994138039108,8.950748601628462,71.04335872817181,0.1787631958220435,0.12699937848179862,0.22265625,,
1.3163250000001863,1200,,,,-0.0625,0.111328125,-0.97265625,0.05809169319357648,1.600064425026791,22.66973385336727,0.5538922963509467,1472,0,12.556590941706393,8.955554536187291,71.32154402228433,0.17866726382618817,0.12742825122320567,0.22265625,,
1.3240500000002795,1200,,,,0.1875,-0.0625,-1.02734375,0.05809169319357648,1.600064425026791,22.669649861037357,0.551250684481622,1473,0,12.496660002855549,8.957794215595829,71.68150700706371,0.17862259240573128,0.12803936609151312,0.224609375,,
1.332635000000242,1200,,,,-0.15625,0.095703125,-0.966796875,0.054132303615041275,1.600064425026791,22.669779190551363,0.5476849171472612,1473,0,12.415896137723829,8.350347948022696,67.25529800987479,0.19161649729885508,0.12887224629442867,0.224609375,,
1.341010000000242,1200,,,,0.125,-0.05078125,-0.9765625,0.054132303615041275,1.600064425026791,22.670085977589657,0.5475511094709178,1473,0,12.413030728830313,8.351397713143442,67.2792801015679,0.19159241123298526,0.12890199500678798,0.2265625,,
1.3487900000000372,1200,,,,-0.375,0.0625,-0.921875,0.054132303615041275,1.600064425026791,22.67011443492195,0.5455138264909657,1473,0,12.366860872382349,8.35180860474268,67.53377992141823,0.19158298528514822,0.12938323164935508,0.228515625,,
1.3555200000000187,1200,,,,0.03125,0.05078125,-1.001953125,0.054132303615041275,1.600064425026791,22.670109695047877,0.545490962988401,1473,0,12.366339968604354,8.351319381776083,67.53266854201324,0.19159420827784263,0.12938868162196998,0.232421875,,
1.3756099999998697,1200,,,,0,0.03125,-0.9609375,0.054132303615041275,1.600064425026791,22.670168211336136,0.5423062660537048,1473,0,12.294174273499095,8.34893744238083,67.90970468327845,0.19164886981959559,0.13014818152332813,0.234375,,
1.383679999999702,1200,,,,-0.0625,-0.00390625,-0.96484375,0.054132303615041275,1.600064425026791,22.670192484261413,0.5412789099577207,1473,0,12.270897076412728,8.34737403577137,68.02578477996362,0.1916847643546299,0.13039506525586095,0.234375,,
1.391375,1200,,,,0,-0.00390625,-1.00390625,0.054132303615041275,1.6432992075004609,22.67028090344517,0.5406640299164802,1472,0,12.25700543259529,8.34397598050374,68.07515935592592,0.19694438374944265,0.13407020307997938,0.236328125,,
1.399439999999944,1200,,,,-0.3125,0.26953125,-0.9140625,0.054132303615041275,1.6432992075004609,22.670169915940537,0.5410852926188204,1472,0,12.266495522685066,8.34263521513992,68.01156206115635,0.1969760351643159,0.13396647840138387,0.23828125,,
1.4072599999997766,1200,,,,0.09375,-0.02734375,-1.01171875,0.054132303615041275,1.6432992075004609,22.66986942358109,0.5393716959882427,1472,0,12.22748591882894,8.342103233566377,68.22419006609107,0.19698859645949565,0.13439387445705145,0.236328125,,
1.415429999999702,1200,,,,-0.15625,0.1171875,-0.96875,0.054132303615041275,1.6432992075004609,22.669876011747,0.5383557401525542,1471,0,12.20445787947069,8.34014522980964,68.33687585450828,0.19703484318557465,0.13464745617785123,0.236328125,,
1.423435000000056,1200,,,,0.1875,-0.05078125,-0.98046875,0.054132303615041275,1.6432992075004609,22.669914694052085,0.5374065123184378,1471,0,12.182959790287036,8.337656616954058,68.43703632348293,0.19709365388818287,0.13488505550273544,0.236328125,,
1.4333449999997392,1200,,,,-0.125,-0.017578125,-0.986328125,0.054132303615041275,1.6432992075004609,22.669882798669455,0.5353173895477042,1471,0,12.135582481136137,8.336612127504655,68.69560765182305,0.19711834764133848,0.1354116467054505,0.23828125,,
1.4412250000000932,1200,,,,-0.125,0.1953125,-1.025390625,0.054132303615041275,1.6432992075004609,22.669997122291306,0.5343171842806552,1471,0,12.112969030033247,8.336605047649668,68.8237956109658,0.19711851504393327,0.1356644439052075,0.23828125,,
1.4493599999998696,1200,,,,0.0625,-0.02734375,-1.01953125,0.054132303615041275,1.6432992075004609,22.67003074709145,0.5350695564640078,1471,0,12.13004329687164,8.337654083226619,68.73556737738038,0.19709371378291993,0.13547348243384016,0.23828125,,
1.4573799999998882,1200,,,,-0.15625,0.0859375,-0.95703125,0.054132303615041275,1.6432992075004609,22.670126897684117,0.5333286648049899,1471,0,12.090628509301558,8.338054527881662,68.96295359225563,0.19708424813071498,0.1359151185760309,0.23828125,,
1.4653400000003167,1200,,,,0.0625,0,-0.93359375,0.054132303615041275,1.6432992075004609,22.670416538748256,0.5339024385247505,1471,0,12.103790672409527,8.338214132360989,68.88927905344453,0.19708047567676892,0.13576731884882523,0.240234375,,
1.4732999999998138,1200,,,,-0.25,-0.12109375,-0.9765625,0.054132303615041275,1.6432992075004609,22.670364049844473,0.5341235511887324,1471,0,12.108775353044305,8.337243078549637,68.85290077211272,0.1971034299969496,0.13571142907423037,0.240234375,,
1.4813149999999442,1200,,,,-0.03125,0.14453125,-1.01171875,0.054132303615041275,1.6432992075004609,22.670542899510597,0.5330552235950313,1470,0,12.084651314319371,8.335812699815007,68.97851235424325,0.19713725184071493,0.13598234361576317,0.2421875,,
1.4896450000000185,1200,,,,0.1875,0.05078125,-1.001953125,0.05117741696376419,1.6432992075004609,22.670615273628094,0.5318692723122608,1470,0,12.057803648455799,7.8802563157972365,65.35399435540181,0.20853372550918228,0.13628511919838007,0.2421875,,
1.4974449999998323,1200,,,,-0.5625,0.17578125,-0.921875,0.05117741696376419,1.6432992075004609,22.670617960079092,0.5297252660925281,1470,0,12.009199131384944,7.880048116226018,65.61676619744135,0.20853923520044246,0.13683670239140666,0.24609375,,
1.5056699999999255,1200,,,,0.125,-0.052734375,-0.978515625,0.05117741696376419,1.6432992075004609,22.670620393965795,0.5285586653152617,1470,0,11.982752857303513,7.877349573429466,65.73906403008391,0.208610674463827,0.13713870485936516,0.24609375,,
1.514195000000298,1200,,,,0.03125,-0.0625,-0.93359375,0.05117741696376419,1.6432992075004609,22.670396574164133,0.5299845898783213,1470,0,12.014960830737278,7.876291512072989,65.5540340333317,0.2086386981717942,0.13677108320623818,0.248046875,,
1.533019999999553,1200,,,,0.125,0.03515625,-1.01953125,0.05117741696376419,1.6432992075004609,22.67072661282513,0.5282235068068921,1470,0,11.975210713286826,7.876897434249882,65.77669172459944,0.20862264885602796,0.13722507660572314,0.25,,
1.5425599999995903,1200,,,,-0.15625,-0.0078125,-0.9296875,0.05117741696376419,1.6773108694826186,22.67068442297158,0.5273028750464948,1470,0,11.954317075504697,7.879599363480093,65.91425770047533,0.21286753197840502,0.14031005358888762,0.25,,
1.559274999999907,1200,,,,0.0625,0.015625,-0.974609375,0.05117741696376419,1.6773108694826186,22.67063079809722,0.525780710906834,1470,0,11.919780377729921,7.880800881518429,66.115319509094,0.21283507789368783,0.1407165917768408,0.251953125,,
1.5729249999998138,1200,,,,0.125,-0.01171875,-1.015625,0.05117741696376419,1.6773108694826186,22.67055266789081,0.5266888917699837,1470,0,11.940328260464458,7.880086681793228,65.99556151136088,0.2128543678787201,0.14047443528301912,0.25,,
1.5797050000000745,1200,,,,-0.125,0.05859375,-0.94921875,0.05117741696376419,1.6773108694826186,22.670614102896227,0.5270501876014521,1470,0,11.94855141597158,7.879989942007977,65.94933283272168,0.2128569810147761,0.1403777588671179,0.25,,
1.5871099999998697,1200,,,,-0.03125,0.03515625,-0.951171875,0.05117741696376419,1.6773108694826186,22.670586408561626,0.5262409603261391,1470,0,11.930191162798186,7.879945606218962,66.05045550980716,0.21285817863499737,0.1405937965782948,0.25,,
1.5951800000001677,1200,,,,-0.0625,-0.078125,-0.98046875,0.05117741696376419,1.6773108694826186,22.670720672038453,0.5256716229111793,1470,0,11.917354528236475,7.879926162432827,66.12143780536582,0.2128587038643989,0.14074523548900633,0.248046875,,
1.607054999999702,1200,,,,-0.09375,0.15625,-1.005859375,0.05117741696376419,1.6773108694826186,22.67081181703657,0.5247281197472478,1470,0,11.896012457897283,7.879917531058302,66.23999057622996,0.2128589370220667,0.14099773982408026,0.25,,
1.61575,1200,,,,0.15625,0.029296875,-1.005859375,0.05117741696376419,1.6773108694826186,22.67082088414763,0.5235176646702586,1470,0,11.868575205426696,7.879915077184647,66.39310061060822,0.21285900330817928,0.14132369222513735,0.248046875,,
1.6361200000001117,1200,,,,-0.25,0.087890625,-0.896484375,0.050249759352221854,1.6773108694826186,22.670957370935174,0.5257276999268878,1469,0,11.918750273762273,7.731388644835331,64.86744387836596,0.21694820252026578,0.14072875351495712,0.25390625,,
1.6435550000001677,1200,,,,-0.03125,0.12890625,-1.009765625,0.050249759352221854,1.6773108694826186,22.671003174271117,0.5254291094237143,1469,0,11.912005007599474,7.731004245268095,64.90094858368481,0.21695898957877924,0.1408084422742056,0.2578125,,
1.6515200000000185,1200,,,,0.1875,0.03125,-1.025390625,0.050249759352221854,1.6773108694826186,22.671148973410336,0.5254296466314887,1469,0,11.91209379382883,7.730190577554538,64.89363424555333,0.21698182634110935,0.1408073927651212,0.2578125,,
1.6589749999996275,1200,,,,-0.5,0.10546875,-0.85546875,0.050249759352221854,1.6773108694826186,22.67119023510208,0.5255350287965126,1469,0,11.914504613055588,7.729868310829529,64.87779863175638,0.2169908725524741,0.14077890134388527,0.259765625,,
1.6667549999998883,1200,,,,0.125,-0.029296875,-0.97265625,0.050249759352221854,1.6773108694826186,22.671225744232842,0.5252456943007882,1469,0,11.907963706679482,7.729746591297236,64.9124130850468,0.21699428948564353,0.1408562295618832,0.259765625,,
1.6834950000001117,1200,,,,0.03125,0.037109375,-0.9609375,0.050249759352221854,1.6773108694826186,22.671156282636098,0.5274048055011905,1469,0,11.956876769730783,7.729667270948185,64.64620669601685,0.21699651623903154,0.1402800164110401,0.263671875,,
1.6914599999999627,1200,,,,0.125,0.013671875,-1.013671875,0.050249759352221854,1.6912029609720367,22.671294547406653,0.528258452772845,1469,0,11.976302979970475,7.729659467572411,64.54128190059757,0.21879398026096727,0.14121243958176866,0.263671875,,
1.7004599999999628,1200,,,,-0.25,0.1796875,-0.8984375,0.050249759352221854,1.6912029609720367,22.67133288772756,0.5274005403508921,1469,0,11.956873215462466,7.729656196989459,64.6461332967349,0.2187940728373825,0.14144190797180958,0.263671875,,
1.7098950000000186,1200,,,,0.03125,-0.021484375,-1.017578125,0.050249759352221854,1.6912029609720367,22.671370079790922,0.5283783117280768,1469,0,11.979060247322362,7.72828778898475,64.51497554419787,0.21883281357385975,0.14117993615985575,0.26171875,,
1.7176199999996462,1200,,,,-0.09375,-0.078125,-0.9609375,0.050249759352221854,1.6912029609720367,22.67133588224678,0.5280237463426108,1468,0,11.971003707135605,7.72719504849941,64.54926618971331,0.21886375979346628,0.1412749509018993,0.263671875,,
1.7253199999998323,1200,,,,-0.0625,0.23046875,-0.890625,0.050249759352221854,1.6912029609720367,22.671236887976054,0.5268233168159088,1468,0,11.943736213642726,7.726757741733256,64.69297047022332,0.2188761466970321,0.14159748094907362,0.263671875,,
1.732685000000056,1200,,,,-0.09375,0.10546875,-1.06640625,0.050249759352221854,1.6912029609720367,22.67126984872547,0.5263419950151237,1468,0,11.932841401704385,7.726997177120503,64.75404236929559,0.21886936441230465,0.1417267609649517,0.263671875,,
1.7406650000000372,1200,,,,-0.1875,0.087890625,-0.896484375,0.050249759352221854,1.6912029609720367,22.67140397721406,0.52581787625353,1469,0,11.92102949098453,7.727965280007414,64.82632465469372,0.21884194606143653,0.14186719043443657,0.263671875,,
1.7486049999999813,1200,,,,0.375,-0.1015625,-0.99609375,0.050249759352221854,1.6912029609720367,22.671236382931248,0.5262265564585609,1469,0,11.93020665244795,7.728346987531707,64.77965732425879,0.2188311373312414,0.1417580608819563,0.265625,,
1.7564499999997205,1200,,,,-0.25,0.013671875,-0.927734375,0.050249759352221854,1.6912029609720367,22.671175955014135,0.5261880593007864,1469,0,11.92930207783554,7.728496685207217,64.78582430707866,0.21882689866569985,0.14176881010618936,0.265625,,
1.7648199999998324,1200,,,,-0.0625,0.16796875,-1.03125,0.050249759352221854,1.6912029609720367,22.671216307976206,0.5265754394070584,1469,0,11.93810568926504,7.727702813935134,64.73139889257325,0.2188493788765196,0.14166426441447885,0.267578125,,
1.7722949999999256,1200,,,,0.125,-0.05859375,-0.97265625,0.050249759352221854,1.6912029609720367,22.67125398901568,0.5252702053327002,1468,0,11.908534237960064,7.72696803046957,64.8859706498455,0.2188701900024895,0.14201604724627642,0.267578125,,
1.7813799999998883,1200,,,,-0.125,0.064453125,-0.96875,0.050249759352221854,1.6912029609720367,22.6712917330215,0.5242923688723661,1468,0,11.886385248102332,7.726665516605301,65.00433357432081,0.21887875919275773,0.14228067874899464,0.26953125,,
1.7897050000000745,1200,,,,0.09375,-0.01953125,-0.98828125,0.04834733560261539,1.6912029609720367,22.6712578004291,0.5232922814026395,1468,0,11.863694216653931,7.434022574602997,62.661953678537316,0.2274949993762096,0.14255281113010923,0.271484375,,
1.797649999999907,1200,,,,-0.375,-0.04296875,-0.8203125,0.04834733560261539,1.6912029609720367,22.67129429248606,0.5245660173667193,1468,0,11.892590555558245,7.4345993399618795,62.51454891371139,0.22747735064640462,0.14220643963746138,0.271484375,,
1.806939999999944,1200,,,,-0.03125,0.1171875,-1.080078125,0.04834733560261539,1.6912029609720367,22.671182037830054,0.5232488117449119,1468,0,11.862669062147166,7.434845158315769,62.67430305410583,0.2274698295606668,0.14256513033551033,0.2734375,,
1.8157749999999069,1200,,,,0.125,0.05859375,-1.033203125,0.04834733560261539,1.6912029609720367,22.67115471131076,0.5240569448110284,1469,0,11.880976073347668,7.434927115979058,62.5784200732267,0.22746732208542075,0.14234545634393417,0.2734375,,
1.8241900000004099,1200,,,,-0.15625,0.01171875,-0.939453125,0.04834733560261539,1.6912029609720367,22.671196159570272,0.5241246986010831,1468,0,11.882533854060801,7.433314075008809,62.55664125432732,0.2275166828558946,0.14232679508790763,0.275390625,,
1.8339999999995344,1200,,,,0.0625,0.03515625,-0.8984375,0.04834733560261539,1.6912029609720367,22.671039563739413,0.5224863352983865,1467,0,11.845308379062937,7.4293892722984864,62.72010009828223,0.22763687552056572,0.14277407618710092,0.2734375,,
1.8518699999996462,1200,,,,-0.15625,0.158203125,-0.986328125,0.04834733560261539,1.697069381634916,22.671153324678333,0.5225377069142326,1467,0,11.846532471378397,7.428355978947448,62.70489695524487,0.2284582734651578,0.14325452496205873,0.275390625,,
1.8602949999999254,1200,,,,0,0.064453125,-1.01171875,0.04834733560261539,1.697069381634916,22.670996664479866,0.5233290844921014,1468,0,11.864391928945732,7.431150111862564,62.63405791351748,0.22837237252492507,0.14303888406573545,0.2734375,,
1.8685300000002607,1200,,,,0,-0.009765625,-0.966796875,0.04834733560261539,1.697069381634916,22.67094305446734,0.5251973127160565,1468,0,11.906718368944993,7.432286371495087,62.42094707539162,0.2283374585973511,0.14253040418434676,0.271484375,,
1.8753249999997206,1200,,,,-0.25,0.12890625,-0.91796875,0.04834733560261539,1.697069381634916,22.670988901574706,0.5257711338991065,1468,0,11.91975154139499,7.432654511574172,62.35578389165245,0.22832614902148757,0.14237456005197108,0.271484375,,
1.8829449999998324,1200,,,,0.09375,-0.005859375,-0.98828125,0.04834733560261539,1.697069381634916,22.67084228567811,0.5273523101992806,1468,0,11.955521053515891,7.432826342669893,62.17065997708264,0.2283208706077914,0.1419485921222848,0.271484375,,
1.8907450000001118,1200,,,,-0.375,0.21875,-0.953125,0.04834733560261539,1.697069381634916,22.67089816030316,0.5266333332111691,1468,0,11.939250665051414,7.432893408700896,62.25594568056494,0.228318810498256,0.14214203464230626,0.271484375,,
1.8999750000000932,1200,,,,0.125,-0.0625,-1.0078125,0.04834733560261539,1.697069381634916,22.670763966243893,0.5244670346144191,1468,0,11.890068349819362,7.43291969415802,62.513683483332905,0.22831800308144662,0.1427299937818018,0.271484375,,
1.9068649999997578,1200,,,,0,0.00390625,-0.982421875,0.04834733560261539,1.697069381634916,22.670897369270314,0.5262071474122008,1468,0,11.929588233958498,7.4329312373613945,62.30668730210637,0.22831764850785252,0.14225716331130997,0.271484375,,
1.9145200000000187,1200,,,,-0.1875,0.18359375,-0.921875,0.04834733560261539,1.697069381634916,22.67094623687546,0.5284796165878588,1468,0,11.981132974947903,7.431770142236154,62.02894298707564,0.22835331948577772,0.14164515035292774,0.271484375,,
1.9223349999999628,1200,,,,0.09375,-0.02734375,-0.99609375,0.04834733560261539,1.697069381634916,22.67080268200781,0.5292830038613348,1468,0,11.999270543480698,7.431246180453795,61.93081615691424,0.22836942020554662,0.14143104578610805,0.2734375,,
1.929939999999944,1200,,,,-0.625,0.28125,-0.85546875,0.04834733560261539,1.697069381634916,22.670681733788868,0.5305224538246458,1468,0,12.027305703287245,7.431052030451611,61.78484370294663,0.22837538677976116,0.14110137577787527,0.27734375,,
1.9378000000002793,1200,,,,0.125,-0.03125,-1.11328125,0.04758423377462353,1.697069381634916,22.67028872845768,0.5352782969158764,1468,0,12.134913541160016,7.313672819991148,60.26967390566188,0.23204064816738273,0.13985014197906578,0.27734375,,
1.9456499999999068,1200,,,,-0.125,0.16015625,-0.93359375,0.04758423377462353,1.697069381634916,22.670177428321416,0.5389175306450601,1469,0,12.217356038956357,7.320294654481596,59.91717546038641,0.23183074749538182,0.1389064357479333,0.279296875,,
1.953864999999758,1200,,,,0.125,-0.013671875,-1.013671875,0.04758423377462353,1.697069381634916,22.670003647125156,0.5380357232630553,1470,0,12.197271808657085,7.322944664311176,60.037562326959645,0.23174685313487192,0.13913516139161639,0.279296875,,
1.961595000000205,1200,,,,0.03125,-0.0859375,-0.99609375,0.04758423377462353,1.697069381634916,22.670197481068918,0.5375829441394768,1470,0,12.18711150609638,7.3239721465117755,60.09604607989425,0.23171434130087287,0.13925115732189602,0.28125,,
1.969529999999795,1200,,,,-0.375,0.37109375,-0.9375,0.04758423377462353,1.697069381634916,22.670220632962856,0.5373067171790887,1470,0,12.180861826022916,7.326515302807648,60.14775807698145,0.23163390936815073,0.13932260343100974,0.283203125,,
1.9766149999997578,1200,,,,0.0625,0.056640625,-1.087890625,0.04758423377462353,1.697069381634916,22.67012381327538,0.5356519024656824,1471,0,12.143294949713528,7.329453503800976,60.35802913585563,0.23154105292500102,0.139753616185939,0.28125,,
1.9877399999997578,1200,,,,-0.1875,0.16015625,-0.921875,0.04758423377462353,1.697069381634916,22.670215309749516,0.5359474998554149,1471,0,12.150045216444203,7.33080501865217,60.33561923481946,0.2314983657752415,0.1396759725089793,0.28125,,
1.9973349999999628,1200,,,,0.03125,-0.064453125,-0.984375,0.04758423377462353,1.6905167926657363,22.67055896572018,0.5342586961978056,1471,0,12.111943275101137,7.331443394752156,60.53069460640235,0.23058444315014523,0.13957436509308785,0.28125,,
2.004870000000112,1200,,,,-0.15625,-0.056640625,-0.966796875,0.04758423377462353,1.6905167926657363,22.670631584410135,0.5325053663192496,1472,0,12.072232976545068,7.334687212348804,60.75667381999039,0.23048246553984653,0.1400334798003163,0.28125,,
2.0127849999996834,1200,,,,-0.09375,0.177734375,-0.98828125,0.04758423377462353,1.6905167926657363,22.670503052826078,0.5308876400265801,1472,0,12.035489863930215,7.335922128677334,60.95241831961273,0.23044366652383433,0.14046098761066086,0.28125,,
2.020869999999646,1200,,,,0.0625,-0.0078125,-1.0234375,0.04758423377462353,1.6905167926657363,22.67057660435996,0.5303008319837581,1472,0,12.02222563484361,7.33641129301128,61.0237365014046,0.23042830140618412,0.14061595947477218,0.279296875,,
2.0287949999999255,1200,,,,-0.15625,0.056640625,-0.927734375,0.04758423377462353,1.6905167926657363,22.670351216198736,0.5310229466064345,1471,0,12.038476703428618,7.329688876581149,60.88551780387312,0.23063963848002492,0.1404261381495442,0.279296875,,
2.0366650000000375,1200,,,,0.03125,0.072265625,-0.96875,0.04758423377462353,1.6905167926657363,22.670301531347814,0.531068299360178,1470,0,12.039478480235323,7.32360837984232,60.82994701028922,0.23083112927211621,0.1404144536194805,0.28125,,
2.0449499999997207,1200,,,,-0.1875,-0.1796875,-0.8828125,0.04758423377462353,1.6905167926657363,22.6704513445823,0.5301475741555022,1469,0,12.01868478534065,7.3211913030368025,60.91507876108505,0.2309073377121721,0.14065738663249427,0.28125,,
2.0525400000000373,1200,,,,-0.03125,0.197265625,-1.04296875,0.04758423377462353,1.6905167926657363,22.670429695884458,0.529292954700834,1469,0,11.999298718072215,7.320254955413006,61.005689810754745,0.23093687350543352,0.14088463270937981,0.283203125,,
2.0608150000004097,1200,,,,0.125,0.037109375,-1.048828125,0.04758423377462353,1.6905167926657363,22.670507783164435,0.5291015873008087,1470,0,11.995001652987641,7.324773672699983,61.065216034176814,0.23079440651749109,0.1409351029347022,0.283203125,,
2.0687849999996835,1200,,,,-0.5625,0.18359375,-0.89453125,0.04758423377462353,1.6905167926657363,22.6707756902668,0.5287640254846057,1470,0,11.987490614844013,7.326520942868626,61.11805362997536,0.230739365361567,0.14102340906714728,0.28515625,,
2.0765500000002795,1200,,,,0.15625,-0.052734375,-0.9609375,0.04758423377462353,1.6905167926657363,22.670900093456616,0.5294465828208589,1470,0,12.003030583953695,7.327212179074647,61.044684738786415,0.23071759781893356,0.14084083022546914,0.287109375,,
2.0848650000002236,1200,,,,-0.4375,0.04296875,-0.92578125,0.04726573896526887,1.6905167926657363,22.670954703690928,0.5307012408944407,1470,0,12.031503793510433,7.276316691124884,60.47720065591129,0.2323313929872932,0.14050752272359912,0.287109375,,
2.093214999999851,1200,,,,0.03125,0.10546875,-1.04296875,0.04726573896526887,1.6905167926657363,22.67087475623271,0.5335469042841878,1469,0,12.095975043602504,7.273471984416887,60.13134086502425,0.2324222594501771,0.13975862107617704,0.2890625,,
2.101939999999944,1200,,,,0.125,-0.08203125,-0.994140625,0.04726573896526887,1.6905167926657363,22.67071851452027,0.5372339117950287,1469,0,12.179478790759706,7.272300072612586,59.70945224790666,0.23245971367878598,0.13880042173465526,0.2890625,,
2.111179999999702,1200,,,,-0.125,0.03125,-0.939453125,0.04726573896526887,1.6905167926657363,22.670494326303793,0.5394639724916536,1469,0,12.229914927617337,7.271872187047016,59.459711944731744,0.23247339188344923,0.1382280091620463,0.2890625,,
2.118385000000242,1200,,,,0.0625,0.10546875,-0.9921875,0.04726573896526887,1.6905167926657363,22.670762067463997,0.5381497377298546,1470,0,12.200264660741688,7.278350309938124,59.65731492168837,0.23226647807229658,0.13856394428110422,0.287109375,,
2.127084999999963,1200,,,,-0.0625,-0.046875,-0.94140625,0.04726573896526887,1.6905167926657363,22.670624276007928,0.5368648066903378,1471,0,12.171060319488275,7.280960227955626,59.82190570773336,0.23218322030862204,0.13889642712220268,0.287109375,,
2.1379199999999257,1200,,,,-0.125,0.115234375,-0.958984375,0.04726573896526887,1.6905167926657363,22.670694580641847,0.5362813394468935,1471,0,12.157870455898038,7.2819865507957235,59.89524709290745,0.23215049641653193,0.13904711345609302,0.28515625,,
2.149310000000056,1200,,,,0.03125,0.078125,-1.0390625,0.04726573896526887,1.687836689177586,22.6709857981722,0.5361865728714628,1472,0,12.155878178739556,7.285035500539316,59.93014567454888,0.23168544464232663,0.13884942448087267,0.283203125,,
2.1580449999999254,1200,,,,0.03125,-0.07421875,-0.947265625,0.04726573896526887,1.687836689177586,22.6710830324102,0.5381805157408658,1472,0,12.201135158786512,7.286588543894617,59.72057885652764,0.23163606384661484,0.13833439816967433,0.283203125,,
2.165899999999907,1200,,,,-0.21875,0.015625,-0.935546875,0.04726573896526887,1.687836689177586,22.670930509407697,0.5401287962505813,1472,0,12.245222405926958,7.287218428611157,59.51070700915962,0.23161604193868857,0.1378363441043452,0.28515625,,
2.173185000000056,1200,,,,0.25,0.1640625,-0.98828125,0.04726573896526887,1.687836689177586,22.670918031133276,0.5384924679662126,1472,0,12.208118601644667,7.288059111131117,59.69846254728617,0.23158932487248052,0.13825526637251068,0.283203125,,
2.1800449999999256,1200,,,,-0.15625,0.1484375,-1.05859375,0.04726573896526887,1.687836689177586,22.670878593120072,0.5368093785464921,1473,0,12.169940248675758,7.2889419868111585,59.89299731857177,0.23156127353347178,0.1386889873482529,0.28515625,,
2.1880449999999256,1200,,,,-0.1875,0.091796875,-0.94140625,0.04726573896526887,1.687836689177586,22.670750998106513,0.5363052263209896,1473,0,12.158442244906315,7.289334102855728,59.95286201988201,0.23154881712944747,0.13882014284228655,0.28515625,,
2.196844999999739,1200,,,,0.375,-0.14453125,-1.01171875,0.04726573896526887,1.687836689177586,22.670673387208893,0.5355910622187673,1473,0,12.14221004066995,7.289521616418467,60.03455377565076,0.23154286083410563,0.13900572330113137,0.287109375,,
2.2052549999998883,1200,,,,-0.28125,0.029296875,-0.904296875,0.04726573896526887,1.687836689177586,22.670803241670487,0.5344601866571577,1472,0,12.116641732210903,7.287569278247837,60.145124691394884,0.2316048911144479,0.13929905055215405,0.287109375,,
2.2131850000000557,1200,,,,-0.03125,0.1328125,-1.037109375,0.04726573896526887,1.687836689177586,22.6707640174469,0.535612157027388,1472,0,12.142736816843625,7.2857857989299015,60.00118349615819,0.23166158541546564,0.13899969295524278,0.291015625,,
2.2205499999998137,1200,,,,0.125,-0.00390625,-1.0390625,0.04726573896526887,1.687836689177586,22.670930427553742,0.5337497482353163,1472,0,12.100603407967181,7.285062019162609,60.204121840453325,0.23168460127558346,0.13948367963752073,0.291015625,,
2.2292549999998883,1200,,,,-0.125,0.1171875,-0.947265625,0.04726573896526887,1.687836689177586,22.670855016179537,0.5331520440000718,1472,0,12.0870126911054,7.284799799574371,60.26964631993077,0.23169294086519732,0.13964051600770078,0.291015625,,
2.2380049999998883,1200,,,,0.3125,-0.1484375,-0.9921875,0.04767521822082056,1.687836689177586,22.670917183032945,0.5323804395433799,1472,0,12.069552854754642,7.349082481560085,60.88943451343361,0.22966631459268735,0.1398425202233308,0.29296875,,
2.245660000000149,1200,,,,-0.25,0.080078125,-0.9375,0.04767521822082056,1.687836689177586,22.670904876081877,0.5313889787213535,1472,0,12.047068988790102,7.349488811550939,61.00644744700724,0.22965361706856005,0.14010351320708234,0.291015625,,
2.254019999999553,1200,,,,0.03125,0.037109375,-1.001953125,0.04767521822082056,1.687836689177586,22.67095862750742,0.5326936777897878,1472,0,12.076676330307048,7.349646261215027,60.85818697293979,0.22964869725560869,0.13976003355673877,0.294921875,,
2.2619749999996275,1200,,,,0.125,-0.0234375,-1.025390625,0.04767521822082056,1.687836689177586,22.671074419216037,0.5332921463154192,1471,0,12.090305936300316,7.345650532575787,60.75653148297078,0.22977361660380244,0.1396024797114498,0.29296875,,
2.270100000000093,1200,,,,-0.375,0.2109375,-0.921875,0.04767521822082056,1.687836689177586,22.670989084246305,0.5330134920663833,1471,0,12.08394306039298,7.342025438424284,60.758523949760445,0.22988706635969144,0.1396759882715548,0.294921875,,
2.277375,1200,,,,0.0625,-0.048828125,-0.93359375,0.04767521822082056,1.687836689177586,22.671135479003333,0.5320114875903663,1470,0,12.061304511547295,7.340601411170226,60.86075850371289,0.2299316629028784,0.139938154082892,0.29296875,,
2.2881499999999066,1200,,,,-0.25,0.01171875,-0.82421875,0.04767521822082056,1.6868141324484125,22.67117840286913,0.5301837483413321,1470,0,12.01989034494821,7.340031236928993,61.065708806685606,0.22981021170070134,0.14033523468517803,0.29296875,,
2.2961299999998883,1200,,,,0.03125,0.078125,-1.0078125,0.04767521822082056,1.6868141324484125,22.671314971328236,0.530983459758908,1470,0,12.038093260759796,7.339090357278462,60.965554912267294,0.22983967362869887,0.14012303243628033,0.291015625,,
2.3047999999998137,1200,,,,0,-0.015625,-0.994140625,0.04767521822082056,1.6868141324484125,22.671140505062677,0.5308629937395516,1470,0,12.035269520007583,7.33881804120513,60.97759613114593,0.2298482021188545,0.14015590840273512,0.291015625,,
2.312989999999758,1200,,,,-0.0625,0.24609375,-1,0.04767521822082056,1.6868141324484125,22.67111738023089,0.5297442430702348,1470,0,12.009893916146858,7.338720347277715,61.10562173585128,0.22985126188575003,0.14045204264298733,0.2890625,,
2.321959999999963,1200,,,,-0.03125,-0.0625,-0.97265625,0.04767521822082056,1.6868141324484125,22.67109243385001,0.5292650002000433,1470,0,11.999015741536825,7.338679409663947,61.16067824013051,0.22985254407313796,0.14057937490732608,0.2890625,,
2.3308050000001677,1200,,,,-0.1875,0.03515625,-0.876953125,0.04767521822082056,1.6868141324484125,22.671141877607845,0.5289393976153023,1470,0,11.991660127992947,7.338664990209137,61.19807359348013,0.2298529957013805,0.14066560546614956,0.2890625,,
2.340084999999963,1200,,,,-0.09375,0.173828125,-1.02734375,0.04767521822082056,1.6868141324484125,22.67111576220237,0.5261061305676152,1470,0,11.92741298930276,7.338659722886847,61.527673515360036,0.22985316067834546,0.1414233022669083,0.2890625,,
2.3480399999995716,1200,,,,0.15625,0.078125,-1.0390625,0.04767521822082056,1.6868141324484125,22.671061039547887,0.5265534899547135,1470,0,11.937526311350275,7.336624656007593,61.45850040164421,0.2299169184111341,0.14130349022515487,0.2890625,,
2.3567949999999254,1200,,,,-0.09375,-0.01171875,-0.97265625,0.04767521822082056,1.6868141324484125,22.670966647265494,0.5263740839697748,1469,0,11.93340930166369,7.334706527433268,61.46362989837869,0.22997704490825782,0.14135223973363975,0.291015625,,
2.3644199999999254,1200,,,,-0.1875,0.10546875,-0.90234375,0.04767521822082056,1.6868141324484125,22.6709252901516,0.5273116025764222,1469,0,11.95464194664018,7.334099397959338,61.34938570887576,0.22999608280708014,0.14110118395662088,0.2890625,,
2.373214999999851,1200,,,,0.125,-0.044921875,-1.01953125,0.04767521822082056,1.6868141324484125,22.67083718650988,0.5272080161349282,1469,0,11.95224709721783,7.333794846837437,61.359130104870005,0.23000563387395817,0.14112945613725295,0.291015625,,
2.3815749999997204,1200,,,,-0.21875,0.1640625,-0.962890625,0.04767521822082056,1.6868141324484125,22.671090723206795,0.5268015301261563,1469,0,11.943165282614247,7.334302008337794,61.410035235921846,0.2299897291563404,0.14123677371390986,0.294921875,,
2.390290000000037,1200,,,,-0.15625,0.123046875,-0.9609375,0.0478421090283147,1.6868141324484125,22.670993822388947,0.5267264188620894,1469,0,11.941411388111481,7.360189072420124,61.63583878994163,0.22918081530937717,0.1412575178615616,0.294921875,,
2.3983450000002047,1200,,,,0.3125,-0.23828125,-1.06640625,0.0478421090283147,1.6868141324484125,22.670912588757936,0.5249636851226295,1469,0,11.901405817687378,7.360260610948379,61.843623549159744,0.22917858777164474,0.1417323430767766,0.296875,,
2.4065,1200,,,,-0.25,0.111328125,-0.8984375,0.0478421090283147,1.6868141324484125,22.67096498668554,0.522478981680632,1469,0,11.845102699960725,7.359079357048353,62.127611245386284,0.22921537472385342,0.14240603692309106,0.294921875,,
2.414779999999795,1200,,,,0.0625,0.056640625,-1.046875,0.0478421090283147,1.6868141324484125,22.670874974757243,0.5237212879975585,1469,0,11.87321984181148,7.3579222482473075,61.97074042490499,0.22925142119437586,0.1420688031487723,0.296875,,
2.422899999999907,1200,,,,-0.0625,0.10546875,-0.984375,0.0478421090283147,1.6868141324484125,22.670798225732884,0.5249961714931146,1469,0,11.90208227320266,7.357530552384092,61.8171710083827,0.22926362594604885,0.14172428771108786,0.294921875,,
2.4334549999996087,1200,,,,-0.03125,0.07421875,-0.958984375,0.0478421090283147,1.6868141324484125,22.670753798983274,0.5261106999958693,1469,0,11.927326150617104,7.357368667073269,61.684979300181276,0.22926867046876154,0.1414243319204564,0.294921875,,
2.444089999999851,1200,,,,0.03125,0.00390625,-1.021484375,0.0478421090283147,1.672316644197147,22.670828175779388,0.5252941371358534,1468,0,11.908853124751227,7.355966533470008,61.76889123085623,0.22734152426985962,0.1404263388488202,0.29296875,,
2.4529849999998694,1200,,,,-0.09375,-0.087890625,-0.921875,0.0478421090283147,1.672316644197147,22.670997074115487,0.522964746757399,1468,0,11.85613224360254,7.355473771502672,62.039403916666146,0.2273567544589999,0.14105077523064183,0.291015625,,
2.461625,1200,,,,-0.09375,0.125,-0.94921875,0.0478421090283147,1.672316644197147,22.67123947245855,0.522453865667147,1468,0,11.84467670185158,7.355347862022733,62.09834212590145,0.22736064637155817,0.1411871920434711,0.291015625,,
2.470540000000037,1200,,,,0.09375,0.0546875,-1.03125,0.0478421090283147,1.672316644197147,22.671205976524565,0.5218660662471677,1467,0,11.831333080048152,7.3512992890388125,62.13415884162475,0.22748586045063657,0.14134642587463533,0.2890625,,
2.478994999999646,1200,,,,-0.375,0.05078125,-0.89453125,0.0478421090283147,1.672316644197147,22.67119547554066,0.5240562539805772,1467,0,11.880981774173248,7.350010540288056,61.86366312138809,0.22752574775649329,0.1407557621064962,0.2890625,,
2.4871550000002607,1200,,,,0,0.033203125,-0.9921875,0.0478421090283147,1.672316644197147,22.671235479941245,0.5234782495209955,1467,0,11.86789866351793,7.349530215095169,61.9278140424953,0.22754061759789532,0.14091093053716994,0.2890625,,
2.496189999999944,1200,,,,0.125,-0.029296875,-0.962890625,0.0478421090283147,1.672316644197147,22.67113194619574,0.5242942204910007,1467,0,11.88634345137932,7.351907053951414,61.85171313637484,0.22746705472811038,0.14069227017019162,0.291015625,,
2.5042999999998137,1200,,,,-0.5625,0.28515625,-0.98828125,0.0478421090283147,1.672316644197147,22.671043360650916,0.5248850779898416,1468,0,11.899692362466338,7.355169231628095,61.8097427024883,0.22736616813736768,0.14053444351821393,0.29296875,,
2.513385000000242,1200,,,,0.15625,0.01171875,-0.98828125,0.0478421090283147,1.672316644197147,22.671204633271937,0.5231386936255324,1468,0,11.860184374767,7.356518923856371,62.02701991300953,0.22732445352298497,0.14100258405384197,0.29296875,,
2.5214449999998325,1200,,,,-0.09375,0.021484375,-0.947265625,0.0478421090283147,1.672316644197147,22.67137869121361,0.5232543104406349,1468,0,11.862896623809482,7.356676706669725,62.01416854551757,0.2273195779666365,0.14097034621718915,0.29296875,,
2.5300499999998136,1200,,,,-0.25,0.095703125,-0.98046875,0.0478421090283147,1.672316644197147,22.671195751562685,0.5235491796394879,1468,0,11.869485937176886,7.35641906851227,61.977570953354764,0.2273275392038465,0.14089208690657934,0.29296875,,
2.538314999999944,1200,,,,0.375,-0.13671875,-0.953125,0.047909576275473584,1.672316644197147,22.671169804032633,0.5232145761219765,1468,0,11.861886499206287,7.366703857513935,62.103982010002056,0.22701016309911895,0.14098235085195315,0.294921875,,
2.5480049999998884,1200,,,,-0.1875,0.16796875,-1.04296875,0.047909576275473584,1.672316644197147,22.671304944083822,0.5229470292287,1468,0,11.855891569246571,7.366664590081212,62.13505367398832,0.2270113731591397,0.14105363855848935,0.294921875,,
2.555959999999963,1200,,,,-0.0625,0.1171875,-0.935546875,0.047909576275473584,1.672316644197147,22.671211306450562,0.5238904811945073,1468,0,11.87723180059874,7.365451963975552,62.01320381407606,0.22704874763645908,0.1408002026291046,0.294921875,,
2.5640849999999626,1200,,,,0.0625,-0.083984375,-0.96875,0.047909576275473584,1.672316644197147,22.67124958160958,0.524913017572967,1468,0,11.900434030032551,7.364955951687913,61.88812889598252,0.22706403883025028,0.14052568502768908,0.29296875,,
2.5723400000003167,1200,,,,-0.3125,0.1640625,-0.9296875,0.047909576275473584,1.672316644197147,22.67115542746806,0.5247255539985809,1468,0,11.896134591466113,7.364756936837304,61.90882324179934,0.2270701746900151,0.14057647308368643,0.29296875,,
2.5800749999997206,1200,,,,0.09375,0.001953125,-0.96875,0.047909576275473584,1.672316644197147,22.671197591622054,0.5230333612585332,1468,0,11.857792680102445,7.363857310180564,62.101417260711834,0.22709791536633417,0.1410310240120254,0.29296875,,
2.5883899999996647,1200,,,,-0.0625,0.046875,-1.04296875,0.047909576275473584,1.6666866389370103,22.671139598295188,0.5231501033070013,1467,0,11.860409022935576,7.361893007040343,62.07115617011155,0.22639376004828113,0.1405252243589562,0.29296875,,
2.5999249999998137,1200,,,,-0.15625,0.091796875,-0.9921875,0.047909576275473584,1.6666866389370103,22.671187143532258,0.52507244388817,1467,0,11.904015639300543,7.361057951848116,61.8367631133307,0.2264194426724437,0.14001045440788262,0.291015625,,
2.620969999999739,1200,,,,0.09375,0.005859375,-1.037109375,0.047909576275473584,1.6666866389370103,22.670906454431552,0.5280659455385441,1468,0,11.971733653075281,7.363202831849143,61.50490016922231,0.22635348733405058,0.13921848641436108,0.29296875,,
2.628350000000093,1200,,,,-0.1875,0.134765625,-1.0078125,0.047909576275473584,1.6666866389370103,22.67095380243774,0.5286564901569263,1468,0,11.985146865706557,7.364007571905282,61.44278125599051,0.22632875138472872,0.13906267963273344,0.294921875,,
2.6372999999998137,1200,,,,0.125,0.05078125,-0.99609375,0.047909576275473584,1.6666866389370103,22.67093819276931,0.5275339933880558,1468,0,11.959690558685388,7.364403971839181,61.57687722523046,0.2263165689050017,0.139358675774987,0.29296875,,
2.6451099999998697,1200,,,,-0.0625,0.025390625,-0.955078125,0.047909576275473584,1.6666866389370103,22.670892110690623,0.5264695632345716,1468,0,11.935534667653387,7.362704097889617,61.6872582829771,0.2263688200391939,0.13964071868970518,0.294921875,,
2.653529999999795,1200,,,,-0.28125,0.0703125,-0.908203125,0.047909576275473584,1.6666866389370103,22.67088113615955,0.5269535742523934,1467,0,11.946501846150436,7.362035076109727,61.62502773547909,0.2263893912086231,0.1395125251224962,0.294921875,,
2.6624550000000746,1200,,,,0,0.083984375,-0.994140625,0.047909576275473584,1.6666866389370103,22.671014582149112,0.5275795930370429,1467,0,11.960764646987094,7.36175864284139,61.54923084031931,0.2263978921066238,0.13934616123032295,0.298828125,,
2.669795000000391,1200,,,,0.125,-0.03515625,-0.95703125,0.047909576275473584,1.6666866389370103,22.67116232172317,0.5282796418281969,1468,0,11.976713511148828,7.362890985978074,61.476722968484964,0.22636307424774543,0.1391606000582324,0.298828125,,
2.6774849999998698,1200,,,,-0.125,0.115234375,-0.970703125,0.047909576275473584,1.6666866389370103,22.671371493069383,0.5292820344105511,1468,0,11.999549626729136,7.364440583713269,61.372641580721435,0.22631544378577093,0.1388957661564603,0.298828125,,
2.684964999999851,1200,,,,0.125,-0.1328125,-1.0078125,0.04954174878937639,1.6666866389370103,22.67127177121274,0.5288812456556555,1468,0,11.990410454956894,7.616079003892899,63.51808415986606,0.218837887328256,0.1390016334468345,0.296875,,
2.6937299999999813,1200,,,,-0.1875,0.08984375,-0.962890625,0.04954174878937639,1.6666866389370103,22.671307485508645,0.5291910411047395,1468,0,11.997452811461994,7.616374847319206,63.48326571489207,0.21882938699158785,0.13892004120613916,0.296875,,
2.7023700000001116,1200,,,,0.0625,0.05859375,-1.037109375,0.04954174878937639,1.6666866389370103,22.67134574449174,0.5299399377241162,1467,0,12.01445155195786,7.612483365306619,63.36105591158756,0.21894125201413545,0.1387234891022062,0.296875,,
2.709310000000056,1200,,,,-0.0625,-0.04296875,-0.8984375,0.04954174878937639,1.6666866389370103,22.671377117452952,0.5305576308108813,1467,0,12.028472130655864,7.611182159435129,63.276383540326854,0.21897868215792443,0.13856179079380154,0.296875,,
2.7183999999999067,1200,,,,0,0.083984375,-0.998046875,0.04954174878937639,1.6666866389370103,22.671577697073307,0.5304768952377256,1467,0,12.026748146884312,7.610689530416122,63.28135783227299,0.21899285633398874,0.13858165304382694,0.294921875,,
2.725314999999944,1200,,,,0,-0.0234375,-1.001953125,0.04954174878937639,1.6666866389370103,22.671748895662454,0.5300773467079769,1467,0,12.017780499842258,7.611788982168233,63.33772681459894,0.2189612248633634,0.13868506243385678,0.29296875,,
2.732939999999944,1200,,,,-0.25,0.10546875,-0.8828125,0.04954174878937639,1.6666866389370103,22.671759888224354,0.5307266245491922,1468,0,12.032506598067082,7.614499831811489,63.28273971638373,0.2188832721453361,0.1385153313944369,0.291015625,,
2.740279999999795,1200,,,,0,-0.1875,-0.94921875,0.04954174878937639,1.6642499482920041,22.671770307152386,0.5303573433317337,1468,0,12.024139868728623,7.6156672819498095,63.336482817835474,0.21852976064704246,0.13840906430407102,0.291015625,,
2.7510200000000187,1200,,,,-0.09375,0.173828125,-0.99609375,0.04954174878937639,1.6642499482920041,22.67197764631946,0.5288399553151564,1468,0,11.989847645385806,7.616212346488713,63.522177860364636,0.21851412126912007,0.13880492876258332,0.291015625,,
2.768785000000149,1200,,,,-0.03125,-0.021484375,-0.9609375,0.04954174878937639,1.6642499482920041,22.67162615555427,0.5303595106893212,1468,0,12.02411255439098,7.616532077444273,63.34381887221156,0.21850494836364467,0.13840937871828649,0.291015625,,
2.776255000000354,1200,,,,-0.25,0.0390625,-0.931640625,0.04954174878937639,1.6642499482920041,22.671729486885503,0.5315616159561831,1468,0,12.051421162570305,7.616552287868984,63.200449018616325,0.21850436856354077,0.1380957420574501,0.291015625,,
2.784339999999851,1200,,,,0.5,-0.04296875,-0.98828125,0.04954174878937639,1.6642499482920041,22.671742915049325,0.532327560996875,1468,0,12.068793609516387,7.614665345877248,63.09384013223156,0.21855851474721297,0.1378969598899863,0.291015625,,
2.792220000000205,1200,,,,-0.25,0.171875,-1.056640625,0.04954174878937639,1.6642499482920041,22.67165737884735,0.531350012864833,1467,0,12.046585439917624,7.612026171187284,63.188247069281864,0.2186342914310321,0.1381511762476143,0.294921875,,
2.8011599999996832,1200,,,,-0.125,0.111328125,-0.9296875,0.04954174878937639,1.6642499482920041,22.671530040904837,0.5315018919660499,1467,0,12.049961110506057,7.610927167934358,63.16142515429849,0.21866586180244443,0.1381124746403527,0.29296875,,
2.808560000000056,1200,,,,0.03125,-0.015625,-1,0.04954174878937639,1.6642499482920041,22.67163763057127,0.5313795456543762,1467,0,12.047244503373618,7.610577612992568,63.17276627747831,0.21867590515742755,0.13814361847026185,0.29296875,,
2.8174250000002794,1200,,,,-0.375,0.11328125,-0.93359375,0.04954174878937639,1.6642499482920041,22.671946056066144,0.5307052135003144,1467,0,12.032119972152195,7.609744502000459,63.24525120770797,0.21869984568529258,0.138317266794533,0.29296875,,
2.8253650000002235,1200,,,,0.0625,0.05078125,-0.982421875,0.04954174878937639,1.6642499482920041,22.671752587765436,0.5301277091921132,1467,0,12.018924262722454,7.609456735397976,63.31229458695605,0.21870811625095118,0.13846912684638454,0.294921875,,
2.8333349999999626,1200,,,,-0.0625,-0.02734375,-1.0390625,0.05023210120991254,1.6642499482920041,22.671764783803365,0.5315917260261844,1467,0,12.052122573481695,7.715378059293358,64.01675731600604,0.21570556044073239,0.13808770514447438,0.294921875,,
2.8414550000000744,1200,,,,-0.03125,0.11328125,-0.966796875,0.05023210120991254,1.6642499482920041,22.6718755955215,0.5330620583254958,1467,0,12.085516671048266,7.715332214814448,63.839490067454776,0.21570684216247052,0.1377061480771307,0.29296875,,
2.8505150000001303,1200,,,,0.0625,-0.05859375,-1.009765625,0.05023210120991254,1.6642499482920041,22.671736446409625,0.5339518491234568,1467,0,12.105615598400089,7.715989832591742,63.738929836922196,0.21568845791661642,0.1374775148578116,0.29296875,,
2.8595499999998135,1200,,,,-0.09375,-0.01953125,-0.94140625,0.05023210120991254,1.6642499482920041,22.671677709523113,0.5352746606544403,1467,0,12.135574592431823,7.7162266944626605,63.58352985836183,0.2156818370157927,0.13713812523799984,0.29296875,,
2.867504999999888,1200,,,,0,0.125,-0.8984375,0.05023210120991254,1.6642499482920041,22.671628116275777,0.533081487230318,1467,0,12.085825234156983,7.71630682999334,63.8459242996953,0.21567959711283807,0.1377026323025504,0.291015625,,
2.8755999999996273,1200,,,,-0.03125,0.064453125,-1.025390625,0.05023210120991254,1.6642499482920041,22.67184268573865,0.5331857318584249,1467,0,12.08830303497464,7.7188999036811,63.8542885742382,0.21560714208747966,0.13767440669520703,0.291015625,,
2.8832900000000374,1200,,,,-0.0625,0.1640625,-0.921875,0.05023210120991254,1.6642499482920041,22.671980541036913,0.5317494812993984,1468,0,12.055813892726432,7.721196623146442,64.04541984349002,0.21554300835999313,0.1380454246474464,0.2890625,,
2.891654999999795,1200,,,,0,-0.017578125,-0.94140625,0.05023210120991254,1.673235747079095,22.671981552728706,0.5315976009071923,1468,0,12.052371001242701,7.722115343271232,64.07133785107526,0.21668100937356383,0.13883042157485612,0.2890625,,
2.902495000000112,1200,,,,-0.1875,0,-0.935546875,0.05023210120991254,1.673235747079095,22.671982495066455,0.5311385047715379,1468,0,12.041962882636078,7.720236153508036,64.11111069475426,0.21673375189679722,0.13895041559144972,0.287109375,,
2.9097700000000186,1200,,,,-0.09375,0.18359375,-0.9921875,0.05023210120991254,1.673235747079095,22.6721174049721,0.531301438871598,1467,0,12.045728599527475,7.71678552770681,64.06242232628021,0.21683066622383232,0.13890697712919847,0.2890625,,
2.9185200000000187,1200,,,,0.09375,0.048828125,-1.048828125,0.05023210120991254,1.673235747079095,22.671915901933104,0.5319710367621724,1467,0,12.060802607736136,7.715888858120644,63.97492031891359,0.21685586428815465,0.1387333663852383,0.287109375,,
2.9261749999998137,1200,,,,-0.375,0.0625,-0.87890625,0.05023210120991254,1.673235747079095,22.672117202522305,0.5327182123046506,1467,0,12.077849745289198,7.715533054291711,63.88167775726015,0.21686586465317123,0.13853755282323477,0.287109375,,
2.934340000000317,1200,,,,0.09375,-0.01953125,-0.955078125,0.05023210120991254,1.673235747079095,22.672111491032027,0.5333202413049447,1468,0,12.09149597128981,7.720519936430807,63.85082503242362,0.2167257854206942,0.13838120204911333,0.287109375,,
2.9424499999997207,1200,,,,0.03125,-0.03125,-0.95703125,0.05023210120991254,1.673235747079095,22.672106153646414,0.532826748753211,1468,0,12.080304609235087,7.722483656258186,63.92623287292394,0.21667067507784618,0.1385094003176003,0.287109375,,
2.950645000000019,1200,,,,-0.375,0.26953125,-1.03515625,0.05023210120991254,1.673235747079095,22.671904098414345,0.5322498779640714,1468,0,12.067118189594165,7.723258304262599,64.00250816240943,0.2166489428633518,0.13866075733989047,0.2890625,,
2.958645000000019,1200,,,,0.125,0.029296875,-1.025390625,0.05023210120991254,1.673235747079095,22.67181183576171,0.5323933429784636,1468,0,12.070321694619874,7.723560965711077,63.988029160430024,0.2166404530898976,0.1386239562964514,0.287109375,,
2.9672049999996086,1200,,,,-0.09375,-0.0234375,-0.943359375,0.05023210120991254,1.673235747079095,22.6717117662592,0.5320090964989533,1468,0,12.061556892852247,7.723689591811633,64.03559391564731,0.21663684527832358,0.13872469051409647,0.287109375,,
2.975604999999981,1200,,,,0,0.07421875,-0.93359375,0.05023210120991254,1.673235747079095,22.67159474812685,0.5308304974259298,1468,0,12.034773917587273,7.72373287058401,64.17846254092707,0.21663563138643058,0.1390334175396412,0.28515625,,0.41604000000003727,3142,
2.988220000000205,1200,,,,0,-0.04296875,-1.013671875,0.05052573730554705,1.673235747079095,22.67177890676005,0.5303775781228648,1468,0,12.024603188304447,7.768901467220942,64.60838121275594,0.2153761061507757,0.13915101570308308,0.287109375,,
3.0085,1400,,,,-0.125,0.078125,-1.0078125,0.05052573730554705,1.673235747079095,22.67186842617157,0.5278723893685208,1467,0,11.967853357571911,7.761453941094749,64.85251539436831,0.21558277093158731,0.13981084970601346,0.283203125,,
3.0170349999996833,1400,,,,0.1875,-0.03515625,-0.91796875,0.05052573730554705,1.673235747079095,22.671679111466172,0.5286036523515013,1467,0,11.98433238326226,7.760818341375244,64.75803651953342,0.21560042684655747,0.13961860315356364,0.28125,,
3.0254749999996275,1400,,,,-0.15625,-0.060546875,-0.916015625,0.05052573730554705,1.673235747079095,22.67162345610825,0.529026635620465,1467,0,11.993892681038968,7.761233850219349,64.70988240947837,0.21558888436685952,0.1395073135617011,0.28125,,
3.033620000000112,1400,,,,0.03125,0.224609375,-0.96875,0.05052573730554705,1.673235747079095,22.65476096594321,0.703981049979136,1467,0,15.948522411831048,7.761374097523249,48.665160929050394,0.21558498869588635,0.10491478168772822,0.28125,,
3.041314999999944,1400,,,,0.46875,-0.609375,-1.0703125,0.05052573730554705,1.6769281618928376,22.638970425335323,1.0436983271451703,1467,0,23.62825556121146,7.761429352094562,32.848084497764845,0.21605919294237833,0.07097130626290121,0.28515625,,
3.0526800000001675,1400,,,,-0.1875,0.9140625,-1.37890625,0.05052573730554705,1.6769281618928376,22.625779990261286,1.3731738968489862,1487,0,31.069130478474907,7.866842196847227,25.32044532851499,0.2131640777750564,0.05397409377306632,0.294921875,,
3.060969999999739,1400,,,,-0.20703125,0.04296875,-0.9609375,0.05052573730554705,1.6769281618928376,22.608834553118403,1.814544024807521,1496,0,41.02472564622282,7.916318034389489,19.296455758548994,0.2118318332598626,0.04087603598751266,0.302734375,,
3.0686599999996833,1400,,,,0.4375,0.125,-1.0078125,0.05052573730554705,1.6769281618928376,22.601510052799686,2.093028482629872,1498,0,47.305604290955124,7.92704845703042,16.75710219929709,0.21154508780699918,0.03544882656141162,0.30859375,,
3.0759849999998696,1400,,,,-0.1875,0.1796875,-0.8671875,0.05052573730554705,1.6769281618928376,22.59183818510942,2.324477860054325,1591,0,52.51422767921673,8.415627797231679,16.025424288134936,0.1992635846424272,0.031932834890695844,0.3125,,
3.0835400000000375,1400,,,,0.4375,-0.4453125,-1.2578125,0.05052573730554705,1.6769281618928376,22.584744393258255,2.494619365122478,1626,0,56.340340719763354,8.601495016185368,15.267026976228582,0.19495775545267127,0.02976425311720907,0.314453125,,
3.091350000000093,1400,,,,-0.09375,0.38671875,-1.0859375,0.05052573730554705,1.6769281618928376,22.57759581563253,2.7082313945043066,1642,0,61.14535380032509,8.686856098942746,14.206894815443134,0.19304200999679644,0.027425275309862086,0.318359375,,
3.0998650000002237,1400,,,,-0.75,0.49609375,-0.98046875,0.05052573730554705,1.6769281618928376,22.571340011213426,2.9187551778268266,1739,0,65.88021552821901,9.20030907373127,13.965207915554597,0.18226867689486695,0.025454199693298592,0.322265625,,
3.1090150000001304,1400,,,,0.03125,-0.349609375,-0.849609375,0.05052573730554705,1.6769281618928376,22.565690687208914,3.156535942039963,1780,0,71.2294137111314,9.41600914170555,13.219270875781557,0.17809330223197836,0.023542636033669545,0.33203125,,
3.1167249999996276,1400,,,,0.0625,0.298828125,-1.1015625,0.05052573730554705,1.6769281618928376,22.561150169207657,3.251277244879454,1822,0,73.3525541634531,9.642234341972834,13.145056026933746,0.1739148938325567,0.022861210233471922,0.33203125,,
3.1254599999999626,1400,,,,-0.125,0.138671875,-0.8984375,0.05052573730554705,1.6769281618928376,22.5577708958931,3.3805495389991482,1901,0,76.25766200295982,10.057957248083836,13.189438259585579,0.1667265151889876,0.02199029078321009,0.33203125,,
3.133630000000354,1400,,,,-0.0625,-0.19140625,-0.9140625,0.05052573730554705,1.6769281618928376,22.555721120779005,3.4914883754832817,1927,0,78.75303809384263,10.197565789060064,12.948790339883242,0.16444396599939998,0.021293504383851185,0.33203125,,
3.1511200000001116,1400,,,,-0.0625,0.306640625,-1.009765625,0.051999719913707894,1.6769281618928376,22.551684176271728,3.643036820378075,2035,0,82.1566158156955,11.08310330118516,13.490214015202659,0.15130492934352754,0.020411358783993035,0.337890625,,
3.1655300000002606,1400,,,,0.1875,0.46875,-0.9375,0.051999719913707894,1.6769281618928376,22.55017000424488,3.750459557983825,2113,0,84.57350062658037,11.505608290931361,13.60427108454737,0.1457487617768615,0.0198280566544954,0.34375,,
3.1742600000002423,1400,,,,-0.15625,0.291015625,-1.052734375,0.051999719913707894,1.6769281618928376,22.54927564427598,3.786995230545497,2135,0,85.39399931712887,11.624747027244865,13.613072487768003,0.1442550240416096,0.019637540990031472,0.345703125,,
3.1821049999999813,1400,,,,0.9375,0.3671875,-0.61328125,0.051999719913707894,1.6769281618928376,22.54837920305663,3.8010128223776625,2185,0,85.70667847465207,11.90044215512544,13.885081497639677,0.14091309718022502,0.019565898384322437,0.353515625,,
3.190010000000242,1400,,,,0,-0.83984375,-0.916015625,0.051999719913707894,1.7213200518709901,22.54806976900028,3.8202355925241247,2206,0,86.13893867425209,12.011186158937962,13.943968133111259,0.14330974718846506,0.019983065479601877,0.361328125,,
3.1977749999999068,1400,,,,-0.0625,-0.162109375,-1.142578125,0.051999719913707894,1.7213200518709901,22.547208534509117,3.825486401334551,2245,0,86.25403963681896,12.22699163688006,14.175558256010964,0.1407803409858401,0.019956399249458648,0.361328125,,
3.2065149999996647,1400,,,,-0.25,-1.05859375,-1.1875,0.051999719913707894,1.7213200518709901,22.547409714212396,3.836993421785866,2275,0,86.51426275174369,12.388117997254154,14.31916264813165,0.13894927803016757,0.01989637311954435,0.369140625,,
3.227304999999702,1400,,,,-0.5625,1.04296875,-1.0859375,0.051999719913707894,1.7213200518709901,22.547688469681226,3.827033173702407,2336,0,86.29075176377731,12.718809574382522,14.73948171085648,0.13533656918159792,0.019947908862622255,0.388671875,,
3.2407200000002048,1400,,,,-0.166015625,0.228515625,-0.806640625,0.051999719913707894,1.7213200518709901,22.54834712827473,3.8062145419406055,2362,0,85.82384673636398,12.860420124822534,14.984669895218659,0.13384633123676767,0.02005643090269057,0.396484375,,
3.2495199999995528,1400,,,,0.20703125,-0.08203125,-1.1015625,0.051999719913707894,1.7213200518709901,22.5488794443654,3.7911419010628755,2377,0,85.48600168354905,12.942851161165308,15.140316433416764,0.13299388445690905,0.0201356949438687,0.40234375,,
3.258429999999702,1400,,,,-0.5,0.318359375,-0.87890625,0.051999719913707894,1.7213200518709901,22.54974958193515,3.773679932132745,2414,0,85.09553747196743,13.144856047812965,15.447174362278638,0.13095008767002683,0.020228088369945784,0.412109375,,
3.2658599999998694,1400,,,,0.0625,-0.06640625,-1.046875,0.051999719913707894,1.7213200518709901,22.550340629491576,3.754426020462858,2433,0,84.66358562966396,13.247059569210053,15.646702736115422,0.12993978345744206,0.02033129165353804,0.408203125,,
3.273625,1400,,,,0.4375,0.01171875,-0.7109375,0.051999719913707894,1.7213200518709901,22.551118974213566,3.738376475745929,2455,0,84.30457267494766,13.367839325866932,15.856600539817908,0.12876576460192896,0.020417872924970125,0.408203125,,
3.2818449999997394,1400,,,,-0.625,0.3203125,-1.11328125,0.051999719913707894,1.7213200518709901,22.551755748758026,3.7134184388913622,2465,0,83.74410562681233,13.4231161156247,16.028729443289947,0.12823550336924738,0.020554521885297626,0.412109375,,
3.290060000000056,1400,,,,0.09375,-0.177734375,-0.865234375,0.1412622129534914,1.7213200518709901,22.552645581286384,3.6887691163972556,2487,0,83.19150251330224,36.78625423799139,44.21876408844678,0.0467924796239047,0.020691056176028948,0.412109375,,
3.298779999999795,1400,,,,0.03125,0.123046875,-1.158203125,0.1412622129534914,1.7213200518709901,22.55391946925649,3.6608712915498622,2496,0,82.56699629692858,36.921069871152206,44.71649875499424,0.04662161898011306,0.020847555670800412,0.4140625,,
3.307810000000056,1400,,,,-0.5,0.109375,-0.8671875,0.1412622129534914,1.7213200518709901,22.554995792515626,3.632124596501069,2507,0,81.92255499197412,37.09316827939738,45.27833425487201,0.04640531212932439,0.02101155233793216,0.416015625,,
3.315910000000149,1400,,,,0.6875,-0.0703125,-1.203125,0.1412622129534914,1.7213200518709901,22.556097296819644,3.6075735710085324,2511,0,81.37278047310355,37.15081869274991,45.65509311191536,0.04633330064962769,0.021153511553411213,0.419921875,,
3.3245,1400,,,,-0.03125,0.015625,-1,0.1412622129534914,1.7213200518709901,22.556981774493064,3.5802628552803917,2533,0,80.7599239744543,37.463579720661905,46.38882489848834,0.04594649162481523,0.02131403754683415,0.416015625,,
3.3327299999999815,1400,,,,-0.40625,-0.01953125,-0.904296875,0.1412622129534914,1.7213200518709901,22.557792572494062,3.5559338294498404,2541,0,80.21401772624398,37.591906282044185,46.86450990441421,0.04578964522193386,0.021459092820229324,0.4140625,,
3.3402650000001306,1400,,,,0.21875,0.0703125,-1.12109375,0.1412622129534914,3.1416471482663257,22.558772185760205,3.534636267850458,2560,0,79.73705432596417,37.86461445503004,47.48684883722934,0.08297053049351677,0.03940009039490359,0.416015625,,
3.347424999999814,1400,,,,0,0.0859375,-0.859375,0.1412622129534914,3.1416471482663257,22.559448413638265,3.513760653099076,4065,0,79.26850219146051,60.13785030943388,75.86601064339582,0.052240762383445105,0.039632982350015576,0.4140625,,
3.3546150000002237,1400,,,,-0.4375,0.13671875,-0.859375,0.1412622129534914,3.1416471482663257,22.560045375318726,3.4977115118530016,4578,0,78.90853041717838,67.72255235870237,85.82412066308002,0.04638996964594798,0.03981378352450459,0.4140625,,
3.365814999999944,1400,,,,-0.15625,0.001953125,-0.990234375,0.1412622129534914,3.1416471482663257,22.560828322756194,3.4777185607713337,5736,0,78.46021140442481,84.85029206556209,108.14435819985174,0.03702576705144208,0.0400412781463542,0.416015625,,
3.3753299999996087,1400,,,,0,-0.01953125,-1.06640625,0.1412622129534914,3.1416471482663257,22.561808728327954,3.443077305932354,5446,0,77.68205161329247,80.55665723349968,103.70047592784653,0.03899922434914373,0.04044238125823066,0.421875,,
3.3837549999998884,1400,,,,0.03125,-0.056640625,-0.9140625,0.1412622129534914,3.1416471482663257,22.562612321699376,3.415174500591287,5252,0,77.05525826779449,77.686193327287,100.81880857150564,0.04044022513795683,0.0407713531677226,0.421875,,
3.3927400000002237,1400,,,,0.0625,0.23828125,-0.919921875,0.1412622129534914,3.1416471482663257,22.56334739650234,3.403076286626456,5297,0,76.7847924719519,78.35248752601535,102.04167388306233,0.04009632938868987,0.040914965673885396,0.41796875,,
3.401024999999907,1400,,,,-0.375,-0.078125,-0.916015625,0.1412622129534914,3.1416471482663257,22.563902541236093,3.3856096009127574,5137,0,76.39256507766868,75.98639328967455,99.4683097922145,0.04134486468241453,0.04112503808547597,0.419921875,,
3.4084550000000746,1400,,,,0.75,-0.10546875,-0.90234375,0.1412622129534914,3.1416471482663257,22.56448491301188,3.366178932049089,4029,0,75.95609372672011,59.59517552685209,78.46003210916504,0.05271646774243963,0.04136135751753576,0.423828125,,
3.416774999999907,1400,,,,-0.1875,0.080078125,-1.15234375,0.1412622129534914,3.1416471482663257,22.565460119029137,3.341020120127291,4251,0,75.39165627760632,62.89041596064523,83.41827075541468,0.04995430703196917,0.041671019093919195,0.423828125,,
3.4248549999999813,1400,,,,-0.03125,-0.125,-1.017578125,0.1412622129534914,3.1416471482663257,22.566369997189604,3.3201152597990595,4799,0,74.92294938594087,70.99066129828108,94.75155727332101,0.04425437220631153,0.04193170682701193,0.419921875,,
3.432595000000205,1400,,,,-0.25,0.1328125,-1.0703125,0.1412622129534914,3.1416471482663257,22.567163866441568,3.299100163404565,5100,0,74.45133399935497,75.44381505779397,101.33306014160553,0.04164220944897415,0.0421973251452223,0.41796875,,
3.441075000000186,1400,,,,0.1875,0.01171875,-0.9375,0.17994357512441503,3.1416471482663257,22.567897266419642,3.2707522741957176,5245,0,73.81400130795737,98.82937099085441,133.88973533426417,0.031788598032836325,0.04256166977263766,0.419921875,,
3.449935000000056,1400,,,,-0.6875,0.07421875,-0.66015625,0.17994357512441503,3.1416471482663257,22.568551078056792,3.246583411686946,5059,0,73.27068355582873,95.33417083699304,130.112298958359,0.032954051214627605,0.04287727363526699,0.421875,,
3.4577700000000187,1400,,,,0.15625,0.0703125,-1.0546875,0.17994357512441503,3.1416471482663257,22.56947310080471,3.2214400307242017,4634,0,72.70620411928537,87.32424199457164,120.10562654502385,0.03597680410969523,0.043210165986825345,0.421875,,
3.4658999999999067,1400,,,,0,-0.029296875,-0.939453125,0.17994357512441503,3.1416471482663257,22.570190387822066,3.199375007184312,3904,0,72.21050303418951,73.56268737706064,101.8725590960513,0.04270707420139736,0.043506789404013015,0.419921875,,
3.473810000000056,1400,,,,-0.625,-0.17578125,-0.83984375,0.17994357512441503,3.1416471482663257,22.57106344542525,3.1760651979695216,3327,0,71.68716909017718,62.69524006050312,87.45671067250142,0.0501098192659367,0.04382439965392364,0.421875,,
3.481895000000019,1400,,,,0.34375,0.20703125,-1.083984375,0.17994357512441503,3.1416471482663257,22.5716944897387,3.157139992221864,2985,0,71.26199936576793,56.242969428908424,78.92420915701365,0.055858486494696796,0.044085868713016715,0.421875,,
3.490004999999888,1400,,,,-0.34375,-0.05078125,-0.8359375,0.17994357512441503,4.475944897904551,22.572306143773734,3.1361834079814304,2790,0,70.79089200798049,52.56447793015061,74.25316511653058,0.0851515143715939,0.0632276945655659,0.421875,,
3.497905000000261,1400,,,,0.1875,-0.09375,-1.1484375,0.17994357512441503,4.475944897904551,22.573070814343087,3.1174682692488127,2717,0,70.37083200322103,51.189448614077286,72.74242346848227,0.08743881833244928,0.06360511550722715,0.419921875,,
3.5061399999996645,1400,,,,0.125,0.18359375,-0.921875,0.17994357512441503,4.475944897904551,22.57390208857418,3.099054654412925,2687,0,69.95775633585745,50.641734496315784,72.38902038709169,0.08838451017569665,0.06398068109011618,0.41796875,,
3.516570000000298,1400,,,,-0.125,-0.328125,-1.0078125,0.17994357512441503,4.475944897904551,22.574331392078232,3.080779350364183,2676,0,69.54653400099257,50.41858352772182,72.49618439216863,0.08877569706898898,0.0643589930425673,0.41796875,,
3.524535000000149,1400,,,,0.103515625,0.056640625,-0.990234375,0.17994357512441503,4.475944897904551,22.5753522415433,3.058103499912221,2670,0,69.03776370161476,50.315974624196514,72.88181413532612,0.0889567365301935,0.06483328337878737,0.41796875,,
3.5313349999999626,1400,,,,-0.75,0.15234375,-1.0546875,0.17994357512441503,4.475944897904551,22.57570431667145,3.044318419706927,2669,0,68.72763248910009,50.292540450201436,73.17659379315535,0.08899818656678385,0.06512584146724996,0.421875,,
3.5381450000000187,1400,,,,0.03125,-0.12109375,-1.01953125,0.17994357512441503,4.475944897904551,22.57632150443583,3.0288876895398626,2668,0,68.38114227987975,50.28149627732251,73.53123185851953,0.08901773473919569,0.06545583692627986,0.419921875,,
3.5455049999998884,1400,,,,-0.25,0.6171875,-0.8515625,0.17994357512441503,4.475944897904551,22.57665099422456,3.0168690900216775,2672,0,68.11080054068326,50.354305935144026,73.92998692632735,0.08888901981231821,0.0657156407261874,0.421875,,
3.553885000000242,1400,,,,0.09375,-0.044921875,-1.025390625,0.17994357512441503,4.475944897904551,22.577219497435824,2.999689596464274,2674,0,67.72465044354861,50.38903205591913,74.40279385114071,0.08882776102818128,0.06609033592038163,0.423828125,,
3.562520000000019,1400,,,,-0.09375,-0.072265625,-0.939453125,0.17994357512441503,4.475944897904551,22.57765977596811,2.985309940478642,2674,0,67.4013121619424,50.395042302075794,74.76863681970119,0.0888171671942457,0.06640738517301235,0.423828125,,
3.5714499999997207,1400,,,,0.3125,0.234375,-1.01171875,0.17994357512441503,4.475944897904551,22.57828375840824,2.9717103872450736,2674,0,67.0961203710285,50.397142101680686,75.11185717295469,0.08881346662225284,0.06670944419965634,0.421875,,
3.579064999999944,1400,,,,-0.1875,-0.044921875,-0.93359375,0.17994357512441503,4.475944897904551,22.578628086862985,2.95800550958223,2675,0,66.7877062797488,50.405541723368735,75.47128735375146,0.08879866667179252,0.06701749689016848,0.421875,,
3.586924999999814,1400,,,,-0.3125,-0.15625,-0.90234375,0.17793285543438045,4.475944897904551,22.579083947750277,2.9454561209058556,2675,0,66.5057010183482,49.84557948242967,74.9493332438941,0.08979622555059873,0.06730167232835703,0.419921875,,
3.595060000000056,1400,,,,0.21875,0.294921875,-1.13671875,0.17793285543438045,4.475944897904551,22.579710491401723,2.9326068430497694,2676,0,66.21741350116737,49.85437323893043,75.28891662017504,0.0897803864959506,0.06759468033020714,0.419921875,,
3.6035999999996275,1400,,,,-0.4375,-0.091796875,-0.8828125,0.17793285543438045,4.475944897904551,22.58009518353787,2.9185413032869243,2676,0,65.90094042530542,49.85811450092223,75.65615024482582,0.08977364953946983,0.06791928717584468,0.419921875,,
3.612040000000037,1400,,,,0.28125,0.150390625,-1.11328125,0.17793285543438045,4.475944897904551,22.5802879286403,2.9127333084613944,2679,0,65.77035676439935,49.91241917935801,75.88892874361746,0.08967597586926103,0.0680541374275671,0.423828125,,
3.6196299999998884,1400,,,,0,0.2734375,-0.83203125,0.17793285543438045,4.475944897904551,22.580338219801526,2.9163767350047785,2680,0,65.85277305276838,49.93343816441558,75.82587011848915,0.08963822765751939,0.06796896608010627,0.421875,,
3.6280150000001306,1400,,,,-0.125,-0.32421875,-0.84765625,0.17793285543438045,4.475944897904551,22.580520284961093,2.91047238881414,2682,0,65.71998081443685,49.96489549763827,76.02694778429145,0.08958179244297867,0.06810630256485574,0.421875,,
3.636179999999702,1400,,,,0.25,0.318359375,-1.173828125,0.17793285543438045,5.178010751932007,22.580890840229713,2.901980108376615,2682,0,65.52929604777033,49.97714369568163,76.26687101788595,0.1036075767647246,0.07901825693590968,0.423828125,,
3.6447600000002423,1400,,,,-0.5625,-0.09765625,-0.9453125,0.17793285543438045,5.178010751932007,22.581492608362918,2.8906892655047556,2683,0,65.27607828206968,49.990138138573755,76.5826309640683,0.10358064499798836,0.0793247831090111,0.42578125,,
3.6521650000000374,1400,,,,0,-0.048828125,-0.796875,0.17793285543438045,5.178010751932007,22.581834695627045,2.8827459572372525,2684,0,65.09769267581878,50.00857408395613,76.82080889255901,0.10354245940384109,0.07954215486128026,0.42578125,,
3.661285000000149,1400,,,,-0.25,0.31640625,-1.3203125,0.17793285543438045,5.178010751932007,22.58202842812859,2.870223971862495,2686,0,64.81547932769503,50.04991174719943,77.21907215120075,0.10345694070523001,0.07988848968859653,0.42578125,,
3.680179999999702,1400,,,,-0.1875,0.208984375,-0.97265625,0.17793285543438045,5.178010751932007,22.582746029005833,2.849678600030992,2687,0,64.35356808879278,50.07007044884073,77.80465316197512,0.10341528792580106,0.08046190608712744,0.42578125,,
3.689149999999907,1400,,,,0,0.04296875,-1.05078125,0.17793285543438045,5.178010751932007,22.58310836089916,2.8427554157747688,2686,0,64.19825359797456,50.0503363946737,77.96214630401221,0.10345606293433515,0.0806565671452373,0.431640625,,
3.6969199999999254,1400,,,,0.0625,-0.125,-0.94921875,0.17793285543438045,5.178010751932007,22.583351826947066,2.833062208301479,2685,0,63.9800405976999,50.03341822652885,78.20160437398592,0.1034910452947328,0.08093165780388951,0.431640625,,
3.7052400000002237,1400,,,,-0.0625,0.5859375,-0.99609375,0.17793285543438045,5.178010751932007,22.583711056417002,2.8235351080972477,2686,0,63.765901038917384,50.04206347205436,78.47777990545896,0.10347316622592174,0.08120344365198857,0.431640625,,
3.713035000000149,1400,,,,0,-0.1171875,-0.978515625,0.17793285543438045,5.178010751932007,22.583921075604763,2.822423661965238,2686,0,63.74139322374231,50.04546227361466,78.51328586111575,0.10346613892029119,0.08123466541994737,0.4296875,,
3.720464999999851,1400,,,,-0.125,-0.0703125,-0.876953125,0.17793285543438045,5.178010751932007,22.584123492988684,2.8147359579010858,2685,0,63.56834447339392,50.0315347702101,78.70510894168473,0.10349494125483255,0.08145580626374856,0.431640625,,
3.72775,1400,,,,0.5,0.125,-1.34375,0.17793285543438045,5.178010751932007,22.584343138864533,2.8093437051950123,2685,0,63.44718223313324,50.02656493811301,78.84757553817458,0.10350522284185679,0.08161135876618895,0.43359375,,
3.735975000000093,1400,,,,-0.375,-0.111328125,-0.796875,0.16604089712770576,5.178010751932007,22.584717557206314,2.801769966627015,2686,0,63.27718335653449,46.70209166403666,73.80557917834982,0.11087320861732149,0.08183061377363417,0.435546875,,
3.7449449999998325,1400,,,,0,-0.2109375,-1.1484375,0.16604089712770576,5.178010751932007,22.584972560556043,2.7983020353243933,2688,0,63.19957468394955,46.73269239837652,73.94463116576158,0.11080060844326378,0.08193110124279109,0.435546875,,
3.75325,1400,,,,0.125,0.29296875,-1.087890625,0.16604089712770576,5.178010751932007,22.58512190995661,2.791520307423185,2686,0,63.04682645727218,46.70507757139066,74.07998181009701,0.1108661203702574,0.08212960180384694,0.435546875,,
3.7611650000000374,1400,,,,-0.375,-0.25,-0.82421875,0.16604089712770576,5.178010751932007,22.58526338670487,2.7870251950183995,2684,0,62.94569809487306,46.6753563912095,74.15178130340128,0.11093671590919435,0.08226155096616138,0.43359375,,
3.769370000000112,1400,,,,0.3125,0.294921875,-1.056640625,0.16604089712770576,5.178010751932007,22.585397659443828,2.784828660408884,2687,0,62.8964627087509,46.720357702482005,74.28137559790261,0.11082986104057431,0.08232594535418254,0.435546875,,
3.777035000000149,1400,,,,-0.3125,0.0078125,-0.984375,0.16604089712770576,5.178010751932007,22.58565328554953,2.7752305152543735,2688,0,62.680394205012256,46.73800631357563,74.5655908938719,0.11078801087901752,0.08260973495150652,0.43359375,,
3.7847700000000186,1400,,,,-0.0625,-0.142578125,-1.005859375,0.16604089712770576,5.595979801645443,22.585670237874183,2.773628190640361,2690,0,62.64425167627482,46.76625851999705,74.65371086507652,0.11965848837902279,0.08932950193999686,0.43359375,,
3.7931400000001303,1400,,,,0.125,0.3203125,-0.8515625,0.16604089712770576,5.595979801645443,22.585786669982692,2.768216583502774,2690,0,62.52234921130198,46.77764309992988,74.81747517489958,0.11962936631268264,0.08950367144288102,0.43359375,,
3.800450000000186,1400,,,,0.125,0.060546875,-1.01171875,0.16604089712770576,5.595979801645443,22.585892301886012,2.7696169684944083,2689,0,62.55427056789073,46.758627619775716,74.74889754973346,0.11967801636844287,0.0894579978448006,0.4296875,,
3.8083050000001677,1400,,,,-0.1875,-0.037109375,-0.88671875,0.16604089712770576,5.595979801645443,22.585995793782697,2.764279809248764,2688,0,62.434012144531025,46.73900128396518,74.86144118972712,0.1197282707785471,0.08963030901635927,0.431640625,,
3.816104999999981,1400,,,,0.375,-0.03515625,-1.22265625,0.16604089712770576,5.595979801645443,22.58596341513432,2.7594264296047917,2686,0,62.32430438580854,46.70649175644345,74.94105584767455,0.11981160629289704,0.0897880827839559,0.431640625,,
3.825725000000093,1400,,,,-0.375,-0.048828125,-0.833984375,0.16604089712770576,5.595979801645443,22.586233858435094,2.7547226760821917,2684,0,62.218810577126526,46.670690655471944,75.0105799557497,0.11990351381246032,0.08994032109804895,0.43359375,,
3.8421850000000557,1400,,,,0.15625,-0.03125,-0.966796875,0.16604089712770576,5.595979801645443,22.586387706137113,2.745624021733439,2693,0,62.01372865015488,46.83201737977674,75.51878978923448,0.11949047072360224,0.09023775740392392,0.43359375,,
3.850149999999907,1400,,,,-0.75,-0.28515625,-0.8671875,0.16604089712770576,5.595979801645443,22.586660984809892,2.739810308975792,2688,0,61.88316661152346,46.73999106072074,75.52941069440546,0.11972573538526372,0.09042814238603294,0.4375,,
3.8587000000001863,1400,,,,0.25,0.25390625,-1.07421875,0.16604089712770576,5.595979801645443,22.586629372102223,2.739770528382556,2686,0,61.88218148918546,46.7037059005152,75.4719771937535,0.11981875300357507,0.09042958194069801,0.4375,,
3.867444999999832,1400,,,,-0.4375,0.27734375,-0.92578125,0.16604089712770576,5.595979801645443,22.58699939040852,2.734937707454491,2687,0,61.774036331079856,46.725719478222246,75.63973839720349,0.11976230359071512,0.09058789313448155,0.4375,,
3.876145000000019,1400,,,,-0.03125,-0.1640625,-1.009765625,0.16604089712770576,5.595979801645443,22.58690819083998,2.734208113375893,2688,0,61.757307631471086,46.73355149870005,75.67290947587387,0.1197422327682736,0.09061243140712584,0.435546875,,
3.8841700000003914,1400,,,,0.15625,0.310546875,-0.986328125,0.16604089712770576,5.595979801645443,22.58657195798046,2.734916386044886,2688,0,61.77238575246268,46.74327706990308,75.67018255894313,0.11971731877670523,0.09059031367300473,0.4375,,
3.892780000000261,1400,,,,-0.46875,-0.12890625,-0.9453125,0.1586979729140236,5.595979801645443,22.586431742091495,2.7315867378394243,2689,0,61.69679740181253,44.68361497349753,72.42452907642303,0.12523561052445056,0.0907013011583166,0.4375,,
3.901125,1400,,,,0.6875,0.22265625,-0.8671875,0.1586979729140236,5.595979801645443,22.58650993443474,2.7289311639393152,2689,0,61.6370308447039,44.68961528503451,72.50449068131,0.12521879559610805,0.0907892499842288,0.439453125,,
3.909160000000149,1400,,,,-0.09375,0.232421875,-1.09375,0.1586979729140236,5.595979801645443,22.586582542143805,2.725410021299639,2689,0,61.5576984072702,44.6919252900561,72.60168337414287,0.125212323374454,0.09090625456172896,0.439453125,,
3.917964999999851,1400,,,,-0.21875,-0.392578125,-0.908203125,0.1586979729140236,5.595979801645443,22.586660900600915,2.7229233564715805,2689,0,61.50174651094965,44.685693743370905,72.657601252698,0.12522978458794998,0.09098895753552537,0.439453125,,
3.925024999999907,1400,,,,0.125,0.44140625,-0.9765625,0.1586979729140236,5.595979801645443,22.58666128980132,2.7176241543995654,2688,0,61.38205628840571,44.67742571327973,72.78580812503463,0.1252529596838906,0.0911663789064436,0.439453125,,
3.9330300000002607,1400,,,,0.03125,0.09375,-1.0625,0.1586979729140236,5.595979801645443,22.586824339339937,2.717395422265369,2687,0,61.37733306323437,44.660023895208774,72.76305708688501,0.12530176461114237,0.09117339451487981,0.439453125,,
3.9414449999998324,1400,,,,-0.5625,-0.46484375,-0.85546875,0.1586979729140236,5.774909941913956,22.58694774399102,2.7156827638468948,2688,0,61.33898467626691,44.67350075764425,72.830518785762,0.12926925009175128,0.09414746547228658,0.44140625,,
3.9495049999998884,1400,,,,0.15625,0.177734375,-1.025390625,0.1586979729140236,5.774909941913956,22.58719587001198,2.7117143753259048,2690,0,61.250023739013386,44.69918901381661,72.97823949306542,0.12919496011726117,0.0942842074073452,0.44140625,,
3.957179999999702,1400,,,,-0.0625,0.23046875,-0.984375,0.1586979729140236,5.774909941913956,22.587301520043056,2.7098451944286874,2689,0,61.208090479200465,44.69570257715228,73.02254036554307,0.12920503782092901,0.09434880089710308,0.439453125,,
3.965185000000056,1400,,,,-0.1875,-0.234375,-0.9765625,0.1586979729140236,5.774909941913956,22.587432014909353,2.7074748622019364,2689,0,61.15490438206231,44.68760789893323,73.07281133128679,0.12922844192006555,0.09443085555061102,0.4375,,
3.976404999999795,1400,,,,0.25,0.275390625,-1.029296875,0.1586979729140236,5.774909941913956,22.587537318394503,2.7053761408010364,2687,0,61.10778454063751,44.66255039726761,73.08815191551643,0.12930094431569353,0.09450367060965141,0.4375,,
3.985975000000093,1400,,,,-0.40625,-0.060546875,-0.89453125,0.1586979729140236,5.774909941913956,22.587499332565056,2.702680062001986,2684,0,61.04678409660674,44.604577446644704,73.06621979637423,0.12946899785838822,0.09459810254337299,0.4375,,
3.99548499999987,1400,,,,0.28125,0.09765625,-1.025390625,0.1586979729140236,5.774909941913956,22.587451398048252,2.701519826802963,2691,0,61.02044778877566,44.72934990745071,73.3022315114482,0.12910784426473434,0.09463893090237556,0.439453125,,
4.0037999999998135,1400,,,,-0.15625,0.1015625,-0.927734375,0.1586979729140236,5.774909941913956,22.587604426873312,2.6989640127919174,2694,0,60.96313148331048,44.7682625926506,73.43497865575777,0.12899562340536297,0.09472790851458998,0.4375,,
4.012924999999814,1400,,,,-0.03125,-0.03515625,-0.89453125,0.1586979729140236,5.774909941913956,22.587751759162774,2.7022242269155483,2686,0,61.037170035163946,44.6421432029366,73.13927427699866,0.12936005145770144,0.09461300284051487,0.439453125,,
4.0213149999999445,1400,,,,0.3125,0.15625,-1.36328125,0.1586979729140236,5.774909941913956,22.58763300698077,2.696136331738937,2686,0,60.89933799810647,44.639329764722035,73.30018885609232,0.12936820450377376,0.0948271382210019,0.439453125,,
4.029189999999944,1400,,,,-0.4375,-0.279296875,-0.826171875,0.1586979729140236,5.774909941913956,22.587454692628917,2.699092643489509,2688,0,60.9656327960273,44.672120620373924,73.27426711018227,0.12927324384238326,0.09472402199506516,0.44140625,,
4.03725,1400,,,,0.21875,0.111328125,-1.01171875,0.15569573713899815,5.774909941913956,22.58787074956259,2.6975490680525813,2690,0,60.93188968977473,43.85292670815689,71.97040323454151,0.13168813065422585,0.09477647864387621,0.443359375,,
4.045504999999888,1400,,,,0.03125,0.107421875,-0.93359375,0.15569573713899815,5.774909941913956,22.58797588081617,2.6970229314539234,2691,0,60.92028892568934,43.87667636770973,72.02309303101067,0.1316168502262377,0.09479452648292919,0.44140625,,
4.053294999999926,1400,,,,-0.5625,-0.25390625,-0.90234375,0.15569573713899815,5.774909941913956,22.587911348879302,2.6943818311029233,2689,0,60.86045794098391,43.841429743349586,72.03598399779115,0.13172266451437903,0.09488771753104219,0.44140625,,
4.061234999999869,1400,,,,0.3125,0.205078125,-1.10546875,0.15569573713899815,5.774909941913956,22.588205856812184,2.6915032148657927,2687,0,60.796228681660324,43.805729981271575,72.0533673406718,0.13183001274908382,0.09498796335135183,0.443359375,,
4.069199999999721,1400,,,,-0.375,0.1484375,-0.84765625,0.15569573713899815,5.774909941913956,22.587937329128557,2.693909965941885,2687,0,60.84986948101014,43.80798279221274,71.99355260060865,0.13182323343453506,0.09490422890251513,0.443359375,,
4.077299999999814,1400,,,,0.03125,-0.099609375,-0.8984375,0.15569573713899815,5.774909941913956,22.58757678478663,2.7005227456615106,2688,0,60.99826487669219,43.82650431739998,71.84877210195262,0.1317675235992117,0.09467334773518425,0.4453125,,
4.084435000000056,1400,,,,-0.09375,0.462890625,-1.0859375,0.15569573713899815,5.836415479265652,22.587074907923167,2.7072704598293296,2689,0,61.149320672172664,43.83655238949555,71.68771771727029,0.1331403853890713,0.09544530364540323,0.4453125,,
4.09230000000028,1400,,,,0,-0.2734375,-0.8203125,0.15569573713899815,5.836415479265652,22.586940570167858,2.704389775446708,2689,0,61.0838911365844,43.84302094382695,71.77509508324113,0.1331207419932,0.0955475391411354,0.4453125,,
4.100310000000056,1400,,,,-0.09375,0.095703125,-0.85546875,0.15569573713899815,5.836415479265652,22.587091351565565,2.702886092193358,2689,0,61.050335077247446,43.846007287319,71.81943757039222,0.13311167516394684,0.0956000564432741,0.44921875,,
4.108494999999646,1400,,,,0.25,0.08984375,-1.4140625,0.15569573713899815,5.836415479265652,22.587004574928528,2.7025251309615306,2689,0,61.04194749688741,43.84718354515367,71.83123301790049,0.13310810426980635,0.09561319254375455,0.44921875,,
4.115644999999553,1400,,,,-0.3125,-0.126953125,-0.810546875,0.15569573713899815,5.836415479265652,22.586956440862657,2.69615041078399,2691,0,60.89783188639195,43.8696606065451,72.03813214300669,0.1330399049951823,0.09583946256336,0.44921875,,
4.126189999999944,1400,,,,0.09375,0.173828125,-1.048828125,0.15569573713899815,5.836415479265652,22.587008305046254,2.693427278423032,2694,0,60.83646430677915,43.92366393789948,72.19956721417317,0.13287633489586256,0.09593613872486811,0.44921875,,
4.142124999999535,1400,,,,-0.6875,-0.36328125,-0.87109375,0.15569573713899815,5.836415479265652,22.58732966256246,2.6965835126492923,2690,0,60.908620762840236,43.86582086607987,72.019067771835,0.13305155047899211,0.09582248631094259,0.44921875,,
4.149449999999721,1400,,,,0.46875,0.1953125,-1.107421875,0.15569573713899815,5.836415479265652,22.58724473740185,2.694876601260542,2690,0,60.86983732976956,43.858900397327794,72.05358568598928,0.13307254460080467,0.09588353994846707,0.451171875,,
4.158504999999888,1400,,,,-0.375,-0.0859375,-0.80859375,0.15569573713899815,5.836415479265652,22.587507998405567,2.69263322707821,2690,0,60.819874553401654,43.86602367604038,72.12448890785645,0.13305093532910078,0.09596230709323654,0.453125,,
4.166384999999776,1400,,,,0,-0.28125,-1.06640625,0.15569573713899815,5.836415479265652,22.587466702874874,2.6925646804365106,2690,0,60.81821506469661,43.851735491457426,72.10296363484073,0.13309428723528216,0.09596492552530597,0.453125,,
4.174530000000261,1400,,,,0.15625,0.30078125,-1.072265625,0.15569573713899815,5.836415479265652,22.58769015880109,2.6890770070080787,2688,0,60.74003824745468,43.82939868062965,72.15899091480459,0.13316211618128013,0.09608843931721145,0.453125,,
4.182514999999665,1400,,,,-0.1875,-0.12109375,-0.8125,0.15569573713899815,5.836415479265652,22.58757548819268,2.6891821948263286,2688,0,60.74210582714337,43.82731790879689,72.15310913572593,0.13316843826517122,0.0960851685958108,0.451171875,,
4.1906499999999065,1400,,,,-0.15625,-0.01953125,-0.955078125,0.15462312702854944,5.836415479265652,22.58759621626432,2.6852651467255173,2688,0,60.65368486784375,43.531150439617925,71.77000133539532,0.1340744597908421,0.09622524158231142,0.453125,,
4.199084999999963,1400,,,,0,0.16015625,-1.02734375,0.15462312702854944,5.836415479265652,22.58761875293092,2.682953181035374,2692,0,60.60152358519028,43.58998273616934,71.92885616958614,0.13389350288553364,0.09630806511095619,0.453125,,
4.207365000000223,1400,,,,-0.1875,-0.12890625,-0.640625,0.15462312702854944,5.836415479265652,22.587572665479335,2.680830066851724,2693,0,60.55344393881514,43.609560858049726,72.01829990398898,0.13383339259625518,0.09638453405165404,0.451171875,,
4.216569999999832,1400,,,,0.09375,0.13671875,-1.06640625,0.15462312702854944,5.836415479265652,22.587596451600618,2.6782762872085595,2692,0,60.495823961358134,43.5896746774442,72.054022613672,0.13389444914315335,0.09647633666405929,0.451171875,,
4.2238000000002796,1400,,,,0.0625,0.021484375,-1.06640625,0.15462312702854944,5.836415479265652,22.587551722626845,2.6793196204231,2691,0,60.5192705077557,43.56995268935507,71.9935192936132,0.13395505661615267,0.09643895952972037,0.44921875,,
4.2325,1400,,,,-0.1875,-0.126953125,-0.83203125,0.15462312702854944,5.836415479265652,22.587574117607087,2.6777520961403822,2690,0,60.48392394014862,43.555251955022364,72.01128683073227,0.13400026902134943,0.09649531807891681,0.451171875,,
4.240325000000186,1400,,,,0.625,0.1484375,-1.140625,0.15462312702854944,5.863852607014679,22.587725744614087,2.6786258633202857,2690,0,60.50406637310875,43.54957115584943,71.97792440477222,0.13464776922899888,0.09691666954836096,0.451171875,,
4.248474999999628,1400,,,,-0.40625,-0.0859375,-0.876953125,0.15462312702854944,5.863852607014679,22.587936689735646,2.677106649926944,2689,0,60.4703155202201,43.53405006103938,71.99243080926614,0.13469577488868903,0.09697076253974433,0.453125,,
4.257214999999851,1400,,,,-0.0625,0.060546875,-1.095703125,0.15462312702854944,5.863852607014679,22.587940357014503,2.6764492170543246,2688,0,60.45547528340125,43.52760342434504,71.9994396211389,0.13471572394760012,0.0969945663238325,0.453125,,
4.265674999999813,1400,,,,0.3125,0.25,-1.07421875,0.15462312702854944,5.863852607014679,22.5877475389843,2.672501269340023,2688,0,60.36578396946752,43.52543590342653,72.10282554342591,0.1347224326489295,0.0971386805807171,0.453125,,
4.273529999999795,1400,,,,-0.3125,-0.21484375,-0.84765625,0.15462312702854944,5.863852607014679,22.587759991337578,2.672991494396032,2687,0,60.37689033430433,43.515806227806905,72.07361291192987,0.1347522455706597,0.09712081186273044,0.453125,,
4.284474999999627,1400,,,,0.25,0.4140625,-1.046875,0.15462312702854944,5.863852607014679,22.58764177609801,2.6707074939971633,2686,0,60.32498416314835,43.49442151046997,72.10017891233875,0.1348184986344314,0.09720437872235399,0.455078125,,
4.301734999999869,1400,,,,-0.0625,0.173828125,-0.98828125,0.15462312702854944,5.863852607014679,22.58757417934434,2.6747016111788455,2690,0,60.415021050114,43.54921018249618,72.08341472954598,0.13464888530565242,0.09705951442358414,0.453125,,
4.32114000000013,1400,,,,-0.08203125,-0.06640625,-0.896484375,0.15462312702854944,5.863852607014679,22.587217805694053,2.675819163420553,2686,0,60.439310252830076,43.49778404749337,71.9693587923707,0.13480807667379538,0.09702050838245799,0.455078125,,
