Time (s),ESC signal (µs),Servo 1 (µs),Servo 2 (µs),Servo 3 (µs),AccX (g),AccY (g),AccZ (g),Torque (N·m),Thrust (N),Voltage (V),Current (A),Motor Electrical Speed (RPM),Motor Optical Speed (RPM),Electrical Power (W),Mechanical Power (W),Motor Efficiency (%),Propeller Mech. Efficiency (N/W),Overall Efficiency (N/W),Vibration (g),App message,90% settling time (s),Max acceleration (RPM/s),
0,1000,,,,-0.0625,0.05078125,-0.95703125,-0.001608484606222021,0.012413516137862625,22.697387726084948,0.05560078194536976,0,0,1.2619925056875612,0,0,0,0,0.05859375,,
0,1200,,,,-0.0625,0.048828125,-0.95703125,-0.001608484606222021,0.012413516137862625,22.697388147211225,0.05534358321192455,0,0,1.2561547896185343,0,0,0,0,0.05859375,,
0.010544999999925494,1200,,,,-0.0625,0.048828125,-0.953125,-0.001608484606222021,0.012413516137862625,22.697423371114134,0.0554208269614548,0,0,1.2579099731213965,0,0,0,0,0.05859375,,
0.019705000000074507,1200,,,,-0.0625,0.046875,-0.955078125,-0.001608484606222021,0.012413516137862625,22.69746288986903,0.055507860396546094,0,0,1.2598876014466358,0,0,0,0,0.05859375,,
0.02699500000011176,1200,,,,-0.0625,0.046875,-0.95703125,-0.001608484606222021,0.012413516137862625,22.697583638719216,0.05494459532317372,0,0,1.2471095478433163,0,0,0,0,0.05859375,,
0.03554000000003725,1200,,,,-0.4375,0.16015625,-0.88671875,-0.001608484606222021,0.012413516137862625,22.696516768954112,0.10244509289280199,0,0,2.325146768738542,0,0,0,0,0.060546875,,
0.043360000000335276,1200,,,,0.125,0.01171875,-1.01953125,-0.001608484606222021,0.012413516137862625,22.695073308976355,0.1463785998413282,0,0,3.322073054264258,0,0,0,0,0.064453125,,
0.051504999999888244,1200,,,,0.0625,0.013671875,-0.98046875,-0.001608484606222021,0.012413516137862625,22.693636206584504,0.18766798934791362,0,0,4.258869077882728,0,0,0,0,0.06640625,,
0.06031000000005588,1200,,,,-0.125,0.037109375,-0.96875,-0.001608484606222021,0.012413516137862625,22.692237058290697,0.2309769296995727,0,0,5.241383243738849,0,0,0,0,0.068359375,,
0.06839999999990687,1200,,,,0.0625,-0.12109375,-1.0234375,-0.001608484606222021,0.012413516137862625,22.690982981667105,0.26585277979318417,0,0,6.032460901916035,0,0,0,0,0.068359375,,
0.07640500000026076,1200,,,,-0.0625,0.0625,-0.998046875,-0.001608484606222021,0.012413516137862625,22.68986000517111,0.2918824357297601,0,0,6.62277160467661,0,0,0,0,0.072265625,,
0.0844199999999255,1200,,,,-0.09375,0.09765625,-0.9765625,-0.001608484606222021,0.012413516137862625,22.68937498541332,0.32258732019451986,0,0,7.319304673433056,0,0,0,0,0.072265625,,
0.09374000000022352,1200,,,,-0.125,0.09765625,-1.015625,-0.001608484606222021,0.012413516137862625,22.68848615879234,0.35717398185960464,0,0,8.103736943702387,0,0,0,0,0.076171875,,
0.10168000000016764,1200,,,,0.375,-0.16015625,-1.01171875,-0.001608484606222021,0.012413516137862625,22.687523683221592,0.38513556053953174,0,0,8.73777215099145,0.00008159624545351801,0.0009338335223614124,0,0.001420672904185777,0.080078125,,
0.10947999999998137,1200,,,,-0.15625,0.08984375,-0.984375,-0.001608484606222021,0.012413516137862625,22.68702537166452,0.40366719881255375,1,0,9.158007981169154,0.00010625190949799648,0.0011602076534162602,0,0.0013554821270507188,0.08203125,,
0.12247500000009313,1200,,,,-0.0625,0.0625,-0.974609375,-0.001608484606222021,0.012990299223186633,22.686105226568852,0.42192740489766256,1,0,9.571889505481495,0.00011778375283817673,0.0012305172638142762,0,0.0013571300855225639,0.08203125,,
0.13027499999990685,1200,,,,-0.0625,0.060546875,-1.03125,-0.0014180626190050231,0.012990299223186633,22.685633980471113,0.4369635049291331,1,0,9.912794135646099,0.00010637241402964984,0.0010730820450223812,0,0.0013104578835622057,0.083984375,,
0.1383100000000559,1200,,,,-0.0625,0.0078125,-0.94140625,-0.0014180626190050231,0.012990299223186633,22.68555369604967,0.4544571836652206,1,0,10.309612842592868,0.0001073019510866262,0.0010407951561800816,0,0.0012600181424387584,0.083984375,,
0.14618000000016765,1200,,,,0.0625,0.125,-1.03515625,-0.0014180626190050231,0.012990299223186633,22.685283663587995,0.4622303634934809,1,0,10.485826913773003,0.00010766507138252063,0.0010267675813063813,0,0.0012388435676087726,0.083984375,,
0.1541750000002794,1200,,,,-0.125,-0.005859375,-0.94140625,-0.0014180626190050231,0.012990299223186633,22.68492304280648,0.4669753910107379,1,0,10.593300807963054,0.00010781089454254808,0.0010177271135499704,0,0.0012262749315512442,0.0859375,,
0.16470999999996275,1200,,,,-0.09375,0.0859375,-1.00390625,-0.0014180626190050231,0.012990299223186633,22.684680295033388,0.47210254174754046,1,0,10.709495226015608,0.00010786775121879442,0.0010072160166499822,0,0.001212970261346256,0.087890625,,
0.17192000000039115,1200,,,,0.125,-0.03125,-1.17578125,-0.0014180626190050231,0.012990299223186633,22.68488709302885,0.4747153773663651,1,0,10.768864736880575,0.00010789277857853101,0.00100189556851825,0,0.0012062830707398728,0.08984375,,
0.17995999999996276,1200,,,,-0.09375,0.064453125,-1.025390625,-0.0014180626190050231,0.012990299223186633,22.684685230025877,0.47560051910521706,1,0,10.788848071138757,0.00010789927142530971,0.001000100017294256,0,0.0012040487675358943,0.091796875,,
0.188160000000149,1200,,,,-0.03125,0.044921875,-0.974609375,-0.0014180626190050231,0.012990299223186633,22.68453793573586,0.47512038380027666,1,0,10.777886370358758,0.00010790267507183654,0.0010011487536980299,0,0.0012052733510823082,0.09375,,
0.19658499999996273,1200,,,,-0.0625,-0.00390625,-0.953125,-0.0014180626190050231,0.012990299223186633,22.684511586692444,0.47354579452960666,1,0,10.742155062836341,0.00010790383477940915,0.0010044896405630398,0,0.001209282415604667,0.09375,,
0.20539999999990688,1200,,,,-0.03125,0.025390625,-0.99609375,-0.0014180626190050231,0.012990299223186633,22.684704763681474,0.4710128351148005,87,0,10.684787104483831,0.012980471238907556,0.12148553931842355,0,0.0012157752041437777,0.09375,,
0.21392499999981374,1200,,,,0,0.06640625,-0.943359375,-0.0014180626190050231,0.012990299223186633,22.68467060069968,0.46670547493436976,278,0,10.587059966429278,0.04134279018636067,0.39050303216809346,0.31420954329957734,0.001226997793946368,0.09375,,
0.22212500000046567,1200,,,,-0.125,-0.01171875,-0.94140625,-0.0014180626190050231,0.012990299223186633,22.684833765164097,0.46278166001108945,355,0,10.498125026918252,0.052687501754258056,0.5018753503045733,0.24655371370187984,0.001237392314330244,0.09375,,
0.22940500000026076,1200,,,,0,0.021484375,-0.978515625,-0.0014180626190050231,0.012990299223186633,22.68493433400242,0.45764848352952325,387,0,10.381725796923023,0.057436175692380374,0.5532430427839227,0.22616929255110482,0.001251265875952604,0.09375,,
0.2372050000000745,1200,,,,-0.0625,0.015625,-0.9453125,-0.0014180626190050231,0.012990299223186633,22.68515755095934,0.4549013110988157,397,0,10.319507912414602,0.05895380722146434,0.5712850624450956,0.2203470791019079,0.0012588099484432786,0.09375,,
0.24445999999996273,1200,,,,0,0.015625,-0.96484375,-0.0014180626190050231,0.012990299223186633,22.685450341299997,0.4495595079006916,401,0,10.198459891940404,0.059595161198620496,0.5843545185260484,0.2179757376591731,0.0012737510723018633,0.091796875,,
0.2524799999999814,1200,,,,0,-0.01953125,-0.96875,-0.0014180626190050231,0.012990299223186633,22.685674812366027,0.4446362354999376,403,0,10.086873048346183,0.05989978184018299,0.5938389583479887,0.21686722094991437,0.0012878420458872027,0.091796875,,
0.2615200000000186,1200,,,,-0.03125,0.1015625,-0.943359375,-0.0014180626190050231,0.012990299223186633,22.68580291375026,0.44000220826292874,404,0,9.981803378267697,0.060026309478951614,0.6013573620338026,0.2164100931066188,0.0013013980270808589,0.091796875,,
0.26937000000011174,1200,,,,-0.0625,0.01953125,-0.953125,-0.0014180626190050231,0.047131834433240934,22.685975380366457,0.4325216605102945,405,0,9.81217574181176,0.06006886095952269,0.6121869658689106,0.7846300675653006,0.004803403003923197,0.091796875,,
0.27733500000042843,1200,,,,-0.0625,0.08984375,-1.001953125,0.018112856323142985,0.047131834433240934,22.68607487458875,0.4255800022418265,405,0,9.654739795985725,0.7674731939360651,7.949185686549183,0.06141170115860397,0.004881730158366106,0.091796875,,
0.2855800000000745,1200,,,,-0.0625,0.056640625,-0.935546875,0.018112856323142985,0.047131834433240934,22.686367648509233,0.41860899210080504,504,0,9.49671749577076,0.9564985713487532,10.071886120385463,0.04927538403615241,0.004962960565503869,0.091796875,,
0.2933950000000186,1200,,,,0,0.05078125,-1.03515625,0.018112856323142985,0.047131834433240934,22.686511755669446,0.4117866604229912,543,0,9.342002912514053,1.0298726699491485,11.024109921541402,0.045764720055701785,0.005045153044226268,0.091796875,,
0.3026850000000559,1200,,,,-0.03125,-0.01171875,-0.921875,0.018112856323142985,0.047131834433240934,22.686440298799184,0.403268849504633,560,0,9.14873467865229,1.0624585447101895,11.613174739773976,0.0443611044100523,0.005151732571632953,0.091796875,,
0.3116450000000186,1200,,,,-0.0625,0.048828125,-1.01171875,0.018112856323142985,0.047131834433240934,22.68671385846152,0.3955074789242947,565,0,8.972765003236974,1.0720931743627706,11.948303270797878,0.04396244240735428,0.005252765944080545,0.091796875,,
0.3216099999998696,1200,,,,0,0.06640625,-0.9765625,0.018112856323142985,0.047131834433240934,22.687238519212293,0.39035103089687334,567,0,8.855986944177772,1.0758949312747512,12.148786330156925,0.0438070977594418,0.005322030704237545,0.091796875,,
0.33261499999975785,1200,,,,-0.041015625,0.1015625,-0.9765625,0.018112856323142985,0.047131834433240934,22.687501320603992,0.3785812136681502,568,0,8.589061785052019,1.0777010670619702,12.547366569624034,0.043733680770802044,0.00548742524070171,0.091796875,,
0.3408100000000559,1200,,,,-0.0625,0.048828125,-0.96484375,0.018112856323142985,0.047131834433240934,22.68769549537029,0.3712891221467036,568,0,8.423694544007757,1.0781191207437733,12.798649275699336,0.043716722509035556,0.005595149988762167,0.091796875,,
0.3479750000000931,1200,,,,-0.0625,0.015625,-0.9765625,0.018112856323142985,0.047131834433240934,22.687886432043683,0.36571083734200605,594,0,8.297205944583034,1.1258605115251654,13.569152303134066,0.04186294301182392,0.005680446495848608,0.091796875,,
0.35633499999996276,1200,,,,0,0.048828125,-0.96875,0.018112856323142985,0.047131834433240934,22.687892026768615,0.36034998166048915,631,0,8.175581475761229,1.197342608994398,14.64535106822984,0.03936369931144867,0.00576495195760403,0.091796875,,
0.3644550000000745,1200,,,,-0.0625,0.03125,-0.966796875,0.018112856323142985,0.047131834433240934,22.68809601241835,0.3530281865395863,646,0,8.009537391300068,1.2261223468832867,15.308279204927572,0.03843974832776404,0.005884463999685597,0.08984375,,
0.3725600000000559,1200,,,,-0.375,0.18359375,-0.9296875,0.018112856323142985,0.047131834433240934,22.68526580036186,0.41175496935862604,652,0,9.340770924520285,1.2373211006229898,13.24645589343082,0.038091837607481284,0.0050458184676723025,0.091796875,,
0.38187999999988825,1200,,,,0.09375,-0.033203125,-1.01171875,0.018112856323142985,0.047131834433240934,22.68136477673537,0.48036252463123974,655,0,10.895277646234678,1.2417001649822152,11.396682170934277,0.03795750033899367,0.00432589567366641,0.09765625,,
0.40016500000003724,1200,,,,-0.1875,0.060546875,-0.99609375,0.018112856323142985,0.047131834433240934,22.67551549315137,0.6906591949856925,656,0,15.661053276385523,1.2442678479137899,7.94498189843946,0.0378791708813057,0.003009493269798689,0.1015625,,
0.40795999999996274,1200,,,,-0.0625,0.1328125,-0.888671875,0.018112856323142985,0.047131834433240934,22.672875834938363,0.7368735314880499,709,0,16.7070420854811,1.3444608658240231,8.047270479987588,0.035056308168816594,0.002821075938642655,0.10546875,,
0.415,1200,,,,0,0.1640625,-1.19921875,0.018112856323142985,0.047131834433240934,22.67171553251991,0.7932350320638267,729,0,17.98399899738039,1.3828785394003449,7.689494086391907,0.03408241077606037,0.0026207649611249603,0.107421875,,
0.423554999999702,1200,,,,0,0.056640625,-0.8359375,0.018112856323142985,0.17209853868044592,22.66983312420088,0.8487796943749811,739,0,19.241694030691047,1.4015354715076942,7.28384657438272,0.12279285268128952,0.008944042993612926,0.107421875,,
0.4320000000004657,1200,,,,0.125,-0.09375,-0.95703125,0.05823418659216292,0.17209853868044592,22.6687806201773,0.8939023989799081,743,0,20.26367737832574,4.528032332984945,22.34556072151139,0.03800735640220044,0.008492956903494945,0.109375,,
0.4480200000000186,1200,,,,0,0.11328125,-0.94921875,0.05823418659216292,0.17209853868044592,22.666954655712082,0.9493526479264919,744,0,21.51893342282999,4.539150670088244,21.09375302621896,0.03791425999901877,0.007997540365911545,0.109375,,
0.455695000000298,1200,,,,-0.125,0.125,-1.015625,0.05823418659216292,0.17209853868044592,22.666216484465195,0.9738928147784376,866,0,22.07446537243323,5.283748779638549,23.936021509435683,0.03257129471099094,0.0077962721079244774,0.111328125,,
0.4641550000002608,1200,,,,0,-0.0234375,-0.99609375,0.05823418659216292,0.17209853868044592,22.665695736970296,0.989190827518629,909,0,22.420698322339106,5.545542447624351,24.734030884751657,0.031033670791605072,0.007675877718267753,0.111328125,,
0.4927200000002049,1200,,,,-0.109375,0.0703125,-0.98046875,0.05823418659216292,0.17209853868044592,22.66454037907391,1.0355464050532341,953,0,23.47018331173385,5.811293758436691,24.76032539350194,0.029614496501849965,0.0073326456975053,0.11328125,,
0.5066499999999069,1200,,,,0,-0.158203125,-0.9453125,0.05823418659216292,0.17209853868044592,22.66404609770882,1.0443481841907516,1052,0,23.669155388557694,6.41550301586046,27.10490894390717,0.026825416223012055,0.007271004641071518,0.11328125,,
0.5148250000001863,1200,,,,0,0.0078125,-0.85546875,0.05823418659216292,0.17209853868044592,22.663856123932206,1.0480454582069103,1069,0,23.75275147614202,6.521742954068609,27.456789419193157,0.02638842712638371,0.00724541486712842,0.115234375,,
0.5308850000002422,1200,,,,-0.125,0.1875,-1.015625,0.05823418659216292,0.17209853868044592,22.66378145781175,1.0472391058209871,1133,0,23.734398228401048,6.910410636045371,29.11559235479683,0.02490424198277933,0.007251017574758201,0.1171875,,
0.5383599999998696,1200,,,,-0.03125,-0.044921875,-1.044921875,0.05823418659216292,0.17209853868044592,22.663876186809947,1.0449727604607575,1155,0,23.683133261671617,7.041733632599775,29.733116622689437,0.02443979674035298,0.007266713267157403,0.1171875,,
0.546505000000354,1200,,,,-0.09375,0.080078125,-0.828125,0.05823418659216292,0.17209853868044592,22.664078857527077,1.0392789597870624,1165,0,23.554300299582696,7.104142203030801,30.160701496858564,0.024225097663026014,0.007306459393467737,0.12109375,,
0.554660000000149,1200,,,,-0.0625,-0.0234375,-1.24609375,0.05823418659216292,0.17209853868044592,22.664206048892776,1.032798669902642,1169,0,23.40756186169587,7.1287452968995,30.454881798539546,0.024141490755083733,0.0073522624738661035,0.123046875,,
0.5620150000001304,1200,,,,0,0.09765625,-0.884765625,0.05823418659216292,0.17209853868044592,22.664395004345465,1.0279590681023436,1199,0,23.298070367770375,7.314253603865625,31.39424634060627,0.023529200380677375,0.007386815129484724,0.123046875,,
0.5693649999997579,1200,,,,0,-0.04296875,-1.16015625,0.05823418659216292,0.37594502695373827,22.664548957941122,1.0212318076360238,1223,0,23.145758301573373,7.461090914219941,32.23524075991392,0.05038740732099005,0.01624250206259964,0.125,,
0.5775800000000745,1200,,,,-0.09375,0.015625,-1,0.07964653531675277,0.37594502695373827,22.664815413044685,1.01514232822364,1235,0,23.008013487157225,10.299769596055098,44.766009902611955,0.03650033366743742,0.016339742984051442,0.125,,
0.585605000000447,1200,,,,-0.125,0.05859375,-0.97265625,0.07964653531675277,0.37594502695373827,22.665299463125177,1.006964110070767,1239,0,22.823143103373276,10.337579426387244,45.29428475107507,0.036366833225398756,0.016472096996060694,0.125,,
0.593589999999851,1200,,,,-0.03125,0.07421875,-0.970703125,0.07964653531675277,0.37594502695373827,22.665725372648247,0.9964588841201547,1247,0,22.585463412602948,10.402580058928347,46.058740832050354,0.03613959467979018,0.016645442251318015,0.125,,
0.6017649999996647,1200,,,,0,0.033203125,-0.947265625,0.07964653531675277,0.37594502695373827,22.665902047011155,0.9867925277744616,1262,0,22.36654277525848,10.528427781222765,47.07221803125133,0.03570761321307902,0.016808365545416468,0.125,,
0.6096000000000932,1200,,,,0,0.12890625,-1.05859375,0.07964653531675277,0.37594502695373827,22.666201973620435,0.9768073798504263,1268,0,22.14051336101274,10.578300836984392,47.77802874079576,0.03553926407909862,0.01697995980597904,0.125,,
0.6176200000001117,1200,,,,0.03125,0.0390625,-0.9765625,0.07964653531675277,0.37594502695373827,22.666585564729292,0.966453326780984,1271,0,21.906197025798452,10.59794261463837,48.378742335593,0.03547339711336666,0.017161583387157342,0.125,,
0.6257799999997951,1200,,,,-0.0625,0.09375,-0.9609375,0.07964653531675277,0.37594502695373827,22.666914921241215,0.9573161715140518,1289,0,21.699404212437376,10.74830028965252,49.53269769264887,0.034977160743793485,0.01732513129269508,0.125,,
0.6354449999998324,1200,,,,0,0.0078125,-0.986328125,0.07964653531675277,0.37594502695373827,22.66742318752862,0.9494874207964756,1313,0,21.522433178428777,10.95044583518887,50.87921864784386,0.03433148134897414,0.017467589460588292,0.125,,
0.6435600000000559,1200,,,,-0.0625,0.064453125,-0.984375,0.07964653531675277,0.37594502695373827,22.667712654193924,0.9387237016343667,1324,0,21.278719130329094,11.041162510604554,51.88828539433704,0.0340494061737303,0.017667653050502198,0.125,,
0.6521650000000373,1200,,,,0,-0.03125,-0.958984375,0.07964653531675277,0.37594502695373827,22.667972041555995,0.927965073467324,1327,0,21.035086340897756,11.065750581997806,52.60615717313728,0.03397374847444513,0.017872283520072935,0.125,,
0.6598050000001676,1200,,,,-0.09375,0.138671875,-0.9921875,0.07964653531675277,0.37594502695373827,22.66847318828866,0.9153339057311963,1340,0,20.749222100399166,11.175992528141727,53.86222420322315,0.033638625473942405,0.018118511871657392,0.125,,
0.6675300000002607,1200,,,,-0.0625,0.08203125,-0.9453125,0.07964653531675277,0.37594502695373827,22.668773083230807,0.9045538867542511,1351,0,20.505126800386574,11.267146603541212,54.94794893601339,0.033366480457046724,0.018334196643282924,0.125,,
0.6756850000000558,1200,,,,-0.0625,0.064453125,-0.966796875,0.07964653531675277,0.37594502695373827,22.669132071162842,0.8941248059179685,1355,0,20.26903331345727,11.303991645159998,55.76976203228652,0.03325772335604173,0.018547753173020643,0.125,,
0.6842450000001118,1200,,,,0.0625,-0.00390625,-0.95703125,0.07964653531675277,0.37594502695373827,22.669402545870717,0.8827900867044194,1357,0,20.012323839006598,11.318241067493222,56.55635576630292,0.033215852596873784,0.018785675765498704,0.125,,
0.6929399999999442,1200,,,,-0.0625,0.02734375,-1,0.07964653531675277,0.37594502695373827,22.669698482968126,0.8706322939377666,1367,0,19.736971593104048,11.402475574078215,57.772163881829556,0.03297047421951,0.019047756398711677,0.125,,
0.7009350000000559,1200,,,,-0.03125,0.103515625,-0.935546875,0.07964653531675277,0.37594502695373827,22.67000303911367,0.8618215423514292,1375,0,19.53749698428053,11.466148558281912,58.68790954904479,0.032787384974372766,0.019242230837256992,0.125,,
0.7087999999998137,1200,,,,0.0625,-0.01953125,-1.03515625,0.07964653531675277,0.37594502695373827,22.670357434124725,0.852370714063296,1378,0,19.32354875419504,11.49158552794492,59.46933285455736,0.032714809113113724,0.019455278724210663,0.125,,
0.7172799999997951,1200,,,,-0.1875,0.234375,-0.91796875,0.07964653531675277,0.8835260345977161,22.670740983438215,0.8447910448607227,1379,0,19.152038963165577,11.501924241611752,60.05587323487064,0.07681549765397416,0.04613221789580576,0.126953125,,
0.7256350000002422,1200,,,,-0.03125,0.03125,-1.0234375,0.08252026102740152,0.8835260345977161,22.671098561942983,0.8348772728739057,1391,0,18.927584940450483,12.022425542023166,63.51801130386065,0.0734898321066278,0.04667927986467606,0.126953125,,
0.7341550000002608,1200,,,,-0.0625,-0.021484375,-0.921875,0.08252026102740152,0.8835260345977161,22.671337654326614,0.8264530851855639,1395,0,18.736796949701876,12.05864130485589,64.3580721786482,0.07326911981716625,0.0471545930165921,0.126953125,,
0.7417599999997765,1200,,,,0.0625,0.05859375,-0.88671875,0.08252026102740152,0.8835260345977161,22.671632346369528,0.8170957379799784,1397,0,18.524894163267557,12.073052620974458,65.17204640722721,0.07318166020934676,0.0476939855532148,0.126953125,,
0.7497600000002421,1200,,,,-0.09375,0.10546875,-1.03125,0.08252026102740152,0.8835260345977161,22.6721414796342,0.8082092250470675,1402,0,18.32383389541263,12.115890476860724,66.12093596795775,0.07292291361374549,0.048217313016513795,0.126953125,,
0.7581100000003352,1200,,,,-0.125,0.091796875,-0.974609375,0.08252026102740152,0.8835260345977161,22.67246248732446,0.7997487877762118,1408,0,18.132274390139372,12.169947691620319,67.11760162993417,0.07259900017533129,0.04872670772499406,0.126953125,,
0.7651550000002608,1200,,,,0.25,-0.1328125,-0.9765625,0.08252026102740152,0.8835260345977161,22.67282540875636,0.7912435494502357,1411,0,17.939726852489873,12.191001663816815,67.9553360207645,0.07247362103312992,0.0492496926994789,0.130859375,,
0.7755750000001863,1200,,,,-0.21875,0.07421875,-0.9140625,0.08252026102740152,0.8835260345977161,22.67299229411055,0.7837703689604846,1412,0,17.77041953579325,12.199816042910085,68.65238053798993,0.0724212587706334,0.04971891816161765,0.130859375,,
0.7870600000000558,1200,,,,0.03125,0.033203125,-1.015625,0.08252026102740152,0.8835260345977161,22.673374712522772,0.7731298177164104,1419,0,17.5294620585086,12.263411931097089,69.95886063226094,0.07204569491442302,0.050402347296725096,0.1328125,,
0.7944599999999628,1200,,,,0.03125,-0.01171875,-1.01171875,0.08252026102740152,0.8835260345977161,22.673873888929663,0.7626333776271061,1421,0,17.291853027805477,12.283266391762483,71.03499186588542,0.07192924149151682,0.05109493084269206,0.1328125,,
0.8031650000000372,1200,,,,-0.125,0.0390625,-0.984375,0.08252026102740152,0.8835260345977161,22.674071751799737,0.7540717597669101,1422,0,17.097877186960815,12.288819837206015,71.87336593210364,0.07189673591948391,0.05167460410064887,0.134765625,,
0.8104899999997579,1200,,,,0.125,-0.04296875,-0.9609375,0.08252026102740152,0.8835260345977161,22.674166117446998,0.7474516528069828,1428,0,16.947842940505847,12.335772282331108,72.78668043853679,0.07162308239616393,0.05213206410392574,0.134765625,,
0.8189150000000373,1200,,,,-0.15625,0.005859375,-0.96875,0.08252026102740152,0.8835260345977161,22.674549198459882,0.7400982082954406,1430,0,16.781393235686977,12.354304087926728,73.61906079201047,0.07151564574658187,0.05264914671797496,0.13671875,,
0.8275200000000186,1200,,,,-0.0625,0.173828125,-1.03125,0.08252026102740152,0.8835260345977161,22.674847040913335,0.7322867147016103,1431,0,16.604489245951957,12.362065954762858,74.45014279964457,0.07147074265991205,0.053210069970271015,0.138671875,,
0.8352199999997393,1200,,,,0,0.046875,-0.96875,0.08252026102740152,0.8835260345977161,22.675070996626165,0.7256530412397965,1431,0,16.454234229030078,12.364541660759135,75.14504466543008,0.07145643234004607,0.05369596799825044,0.13671875,,
0.844160000000149,1200,,,,-0.09375,0.041015625,-0.998046875,0.08252026102740152,0.8835260345977161,22.675121788860192,0.7168479617934772,1436,0,16.254614837763295,12.409315546568699,76.34333800231882,0.07119861134017338,0.05435539650838587,0.138671875,,
0.853035000000149,1200,,,,0,0.01953125,-0.94921875,0.08252026102740152,0.8835260345977161,22.675243873271462,0.707848801999806,1438,0,16.050644210748647,12.425514086937001,77.41442601173601,0.07110579316203673,0.055046141637482976,0.140625,,
0.8620949999997393,1200,,,,-0.03125,-0.015625,-1.001953125,0.08252026102740152,0.8835260345977161,22.67565572352657,0.6988189117894015,1439,0,15.846177056825951,12.431324402860787,78.44999054523267,0.07107255880108741,0.055756415659708,0.142578125,,
0.8699000000003725,1200,,,,-0.25,0.2421875,-0.91796875,0.08252026102740152,1.2875963621866713,22.676130719843815,0.6925433157188915,1440,0,15.704202756395649,12.446971680159571,79.25885747425448,0.10344655674272124,0.08199055897073722,0.142578125,,
0.8780299999997951,1200,,,,0.03125,-0.02734375,-0.982421875,0.07673066272749343,1.2875963621866713,22.676418270279633,0.6830882381040477,1443,0,15.489994602755752,11.592157600600988,74.83642117304987,0.11107478060166441,0.08312439062810269,0.142578125,,
0.8865350000001491,1200,,,,-0.125,0.107421875,-0.9453125,0.07673066272749343,1.2875963621866713,22.676593943558494,0.6775917479025397,1444,0,15.365472926691947,11.599452605345943,75.49037156673579,0.11100492462836095,0.0837980300593247,0.14453125,,
0.8947800000002608,1200,,,,0.0625,0.02734375,-0.9609375,0.07673066272749343,1.2875963621866713,22.67670629376287,0.6720480389097284,1444,0,15.239835993655232,11.602481733952171,76.1325892141005,0.11097594391541227,0.0844888595075914,0.142578125,,
0.9028050000001676,1200,,,,-0.0625,-0.0390625,-0.947265625,0.07673066272749343,1.2875963621866713,22.676934840876914,0.6665241049344219,1447,0,15.114723697471693,11.627362462904582,76.92739011067428,0.11073847283032255,0.08518821699678529,0.14453125,,
0.91125,1200,,,,-0.0625,0.1328125,-0.9453125,0.07673066272749343,1.2875963621866713,22.677083165820854,0.6646328291558402,1448,0,15.071933941501792,11.637031256789736,77.20994068814373,0.11064646418607935,0.08543006937160004,0.14453125,,
0.9187150000003167,1200,,,,-0.09375,0.107421875,-1.009765625,0.07673066272749343,1.2875963621866713,22.677028781412364,0.6677791421008382,1449,0,15.143246825047566,11.640961475208575,76.87229568201937,0.11060910775530258,0.08502776036489962,0.14453125,,
0.9268149999999441,1200,,,,-0.15625,0.044921875,-0.96875,0.07673066272749343,1.2875963621866713,22.676978632523024,0.6703628786943199,1451,0,15.201804676187717,11.660134963909073,76.70230747125467,0.11042722628615297,0.08470023063798321,0.146484375,,
0.9385099999997765,1200,,,,0.375,-0.0859375,-1.00390625,0.07673066272749343,1.2875963621866713,22.677291219064298,0.666099517179481,1454,0,15.105332731957214,11.686979324095905,77.36989003473353,0.1101735809125579,0.0852411783993742,0.1484375,,
0.9467599999997764,1200,,,,-0.041015625,-0.001953125,-0.921875,0.07673066272749343,1.2875963621866713,22.677474918459396,0.6572199644641316,1456,0,14.904089260046119,11.697547521840617,78.4854902419205,0.11007404413468604,0.08639215316821626,0.150390625,,
0.9559150000000373,1200,,,,-0.15625,0.126953125,-0.982421875,0.07673066272749343,1.2875963621866713,22.67771671405049,0.6501840213245114,1456,0,14.744689047599431,11.700362427092019,79.35306325769511,0.11004756221954806,0.08732611166162936,0.15234375,,
0.9638700000001118,1200,,,,0.25,-0.0546875,-1.05859375,0.07673066272749343,1.2875963621866713,22.677829730365097,0.6450843865167946,1458,0,14.629113879144894,11.715904063624453,80.08621821125146,0.10990157952764408,0.0880160187981211,0.154296875,,
0.9733700000001118,1200,,,,-0.125,0.037109375,-0.912109375,0.07673066272749343,1.2875963621866713,22.678109750510497,0.638031643149381,1459,0,14.469351627640211,11.722479531750428,81.01592824212976,0.10983993264387508,0.0889878410119655,0.15625,,
0.9820849999999628,1200,,,,-0.1875,0.037109375,-0.9296875,0.07673066272749343,1.2875963621866713,22.678069076814214,0.6329413204963982,1459,0,14.353886987787323,11.724624586513437,81.6825755733556,0.1098198371031652,0.08970367143632894,0.158203125,,
0.9898899999996648,1200,,,,0.1875,-0.15625,-1.015625,0.07673066272749343,1.2875963621866713,22.678358884510697,0.6299134275668299,1460,0,14.285402776532802,11.732487654462561,82.12920446132597,0.1097462362721449,0.09013371077655977,0.158203125,,
0.9987649999996647,1200,,,,-0.125,0.171875,-0.9609375,0.07673066272749343,1.2875963621866713,22.678339320335553,0.625979463334788,1461,0,14.196174677067871,11.739538737310713,82.69508515046984,0.10968031972963471,0.090700233793729,0.16015625,,
1.0069500000001863,1200,,,,-0.03125,0.044921875,-1.009765625,0.07673066272749343,1.2875963621866713,22.67848670633166,0.6228466332317563,1461,0,14.125219091829816,11.74194175256735,83.12750178408928,0.10965787340114691,0.09115585066793275,0.16015625,,
1.0145,1200,,,,0,0.03515625,-0.958984375,0.07673066272749343,1.2875963621866713,22.678756694361496,0.6191959640530353,1462,0,14.042594614889396,11.745308960009435,83.64058980635856,0.10962643610063341,0.09169219773826055,0.16015625,,
1.0226299999998882,1200,,,,-0.1875,-0.046875,-0.83203125,0.07673066272749343,1.4575222914713868,22.678818204305255,0.6129486767355793,1462,0,13.900951608255673,11.749082645257824,84.5199881012472,0.12405413558476189,0.10485054063534578,0.16015625,,
1.0309550000000745,1200,,,,0.03125,0.029296875,-1.0078125,0.06750952172496331,1.4575222914713868,22.67887589554516,0.6076155353437507,1462,0,13.780037318266157,10.33842451497367,75.02464816455577,0.1409810836612854,0.1057705619954574,0.16015625,,
1.0384150000000372,1200,,,,-0.09375,0.07421875,-1.01953125,0.06750952172496331,1.4575222914713868,22.679027111736513,0.6023793657279441,1462,0,13.66137796689469,10.33893402942889,75.68002330718757,0.14097413595276598,0.1066892589461596,0.16015625,,
1.0450650000004098,1200,,,,0.125,0.046875,-0.953125,0.06750952172496331,1.4575222914713868,22.67912607491279,0.6006624744358396,1463,0,13.622499986199488,10.344679486299636,75.93818679962925,0.14089583861942856,0.10699374512372585,0.16015625,,
1.0520849999999629,1200,,,,-0.4375,0.1484375,-0.9765625,0.06750952172496331,1.4575222914713868,22.679250975003907,0.599374415860147,1464,0,13.593362805288635,10.347216468444628,76.11962261773031,0.14086129307493636,0.10722308470309665,0.162109375,,
1.059839999999851,1200,,,,0.03125,-0.01171875,-0.94921875,0.06750952172496331,1.4575222914713868,22.679458368839374,0.5962911739118443,1464,0,13.523560854440031,10.348320316763186,76.52067697366589,0.14084626749621915,0.10777651738024721,0.1640625,,
1.068,1200,,,,-0.3125,-0.01953125,-0.86328125,0.06750952172496331,1.4575222914713868,22.67948491459226,0.5934567409612505,1464,0,13.459293204093765,10.348828993188564,76.889839876888,0.1408393444737279,0.1082911464495081,0.166015625,,
1.0760100000002422,1200,,,,0.03125,0.109375,-1.0078125,0.06750952172496331,1.4575222914713868,22.679510052317635,0.5906156010268425,1464,0,13.394872460543898,10.348175694249345,77.25475344935953,0.14084823591479573,0.1088119573937477,0.169921875,,
1.0837400000002235,1200,,,,0.15625,-0.009765625,-1.091796875,0.06750952172496331,1.4575222914713868,22.67953412499914,0.586989082015085,1464,0,13.31263891656304,10.347059298991978,77.72357805122012,0.14086343272560353,0.10948410008011239,0.171875,,
1.0929199999999255,1200,,,,-0.5625,0.26953125,-0.796875,0.06750952172496331,1.4575222914713868,22.679728621746563,0.5837450724361983,1464,0,13.239179827134768,10.34664787137195,78.15172847917407,0.14086903406698442,0.11009158501526486,0.17578125,,
1.1004150000000372,1200,,,,0.09375,-0.06640625,-0.9765625,0.06750952172496331,1.4575222914713868,22.679745153616718,0.5815166779449821,1464,0,13.188650058370001,10.346436186462054,78.44954669864657,0.1408719162042002,0.1105133796878923,0.17578125,,
1.108935000000056,1200,,,,-0.03125,-0.076171875,-0.9453125,0.06750952172496331,1.4575222914713868,22.679756046473578,0.5816241424921845,1464,0,13.191093662462132,10.34875538991025,78.45259577952723,0.1408403461630208,0.11049290746976159,0.177734375,,
1.117314999999944,1200,,,,-0.1875,0.2734375,-0.96484375,0.06750952172496331,1.4575222914713868,22.679828164519606,0.5799732114014273,1464,0,13.153692774608974,10.349951495207327,78.68475927297158,0.14082406976943906,0.11080708029648467,0.1796875,,
1.125024999999907,1200,,,,0,0.015625,-1.01171875,0.06750952172496331,1.4575222914713868,22.68002524874333,0.5784750904282031,1464,0,13.119829656680729,10.350320944380988,78.89066562011739,0.14081904312954188,0.11109308044477575,0.177734375,,
1.1331100000003353,1200,,,,-0.125,0.1640625,-0.88671875,0.06750952172496331,1.4575222914713868,22.680024026183876,0.5750226662418085,1464,0,13.041527885964529,10.35261557094588,79.38192258966455,0.14078783100590092,0.11176008702477203,0.177734375,,
1.1418050000001676,1200,,,,0,0.0078125,-0.994140625,0.06750952172496331,1.4575222914713868,22.68016695730922,0.5722256840790991,1465,0,12.978174052174447,10.355821782201872,79.79413545056279,0.14074424242954536,0.1123056514430999,0.177734375,,
1.1491799999997019,1200,,,,-0.15625,-0.046875,-0.95703125,0.06750952172496331,1.4575222914713868,22.680247354466033,0.5694633789215312,1465,0,12.915570293250346,10.356862617503243,80.18896868158986,0.1407300980325986,0.11285001423693118,0.1796875,,
1.1573600000003352,1200,,,,0.0625,0.24609375,-1.015625,0.06750952172496331,1.4575222914713868,22.680366320379854,0.566660666158108,1465,0,12.852071487816364,10.35734077099494,80.5888823510949,0.14072360113448074,0.11340757735849069,0.1796875,,
1.165904999999795,1200,,,,-0.0625,0.03515625,-1.00390625,0.06750952172496331,1.54281926383203,22.68034808593743,0.5655794857212985,1465,0,12.827539606424526,10.354074363185777,80.71753961297502,0.14900600572442962,0.1202739816963283,0.1796875,,
1.1739849999998697,1200,,,,-0.21875,0.08203125,-0.970703125,0.06750952172496331,1.54281926383203,22.68075922284439,0.5639487584357038,1464,0,12.790786004102232,10.352751063108926,80.93913118231056,0.14902505183667789,0.12061958220059506,0.181640625,,
1.1826749999998136,1200,,,,0.5,-0.10546875,-1.0390625,0.059347616565572865,1.54281926383203,22.68078760305511,0.5619440406555,1464,0,12.745333430909959,9.100696340512663,71.40414481775478,0.16952760603208078,0.12104973731721977,0.185546875,,
1.1910800000000745,1200,,,,-0.25,0.013671875,-0.884765625,0.059347616565572865,1.54281926383203,22.680744352367604,0.560415547048722,1464,0,12.710641753704303,9.100527437638974,71.59770225596027,0.16953075241013685,0.12138012334289897,0.1875,,
1.1992599999997764,1200,,,,-0.03125,0.177734375,-1.0390625,0.059347616565572865,1.54281926383203,22.680707995456338,0.55807170422226,1464,0,12.657461363991757,9.100470372347763,71.89806953104352,0.16953181546746898,0.12189010256204125,0.1875,,
1.207185000000056,1200,,,,0.15625,-0.001953125,-0.982421875,0.059347616565572865,1.54281926383203,22.68067320378185,0.5576410419495053,1464,0,12.647674237473135,9.100447720368043,71.95352718213441,0.16953223745014107,0.1219844245561679,0.1875,,
1.2161949999998323,1200,,,,-0.5,0.2109375,-0.8671875,0.059347616565572865,1.54281926383203,22.680562519463123,0.555624958653206,1464,0,12.601886612108153,9.100438265791336,72.21488770615859,0.16953241357963023,0.12242764209207034,0.19140625,,
1.2241299999998883,1200,,,,0.0625,0.005859375,-1.046875,0.059347616565572865,1.54281926383203,22.680535299477526,0.5551088411399521,1464,0,12.590165666526746,9.09968696875235,72.27614957399273,0.1695464106765383,0.12254161737791082,0.193359375,,
1.231660000000149,1200,,,,0.03125,-0.099609375,-0.9609375,0.059347616565572865,1.54281926383203,22.680444178143098,0.557999715916524,1464,0,12.655681408264428,9.099386544119247,71.8996176545433,0.1695520084075474,0.1219072457706257,0.1953125,,
1.239149999999907,1200,,,,-0.3125,0.29296875,-0.94140625,0.059347616565572865,1.54281926383203,22.680158604146815,0.5608863357314465,1464,0,12.720991053287946,9.09927363428338,71.52959699575864,0.16955411232157497,0.12128137323335851,0.197265625,,
1.2492749999999069,1200,,,,0.09375,-0.033203125,-1.044921875,0.059347616565572865,1.54281926383203,22.679860972850516,0.5645219464437432,1464,0,12.803279261467061,9.09922300792329,71.06947229768272,0.16955505568866658,0.12050188333197742,0.197265625,,
1.2564950000001118,1200,,,,-0.21875,0.068359375,-0.943359375,0.059347616565572865,1.54281926383203,22.68011417431939,0.5621311596091069,1467,0,12.749198880877099,9.116008723983388,71.50260035284852,0.16924284635369127,0.12101303605406534,0.19921875,,
1.2642700000000187,1200,,,,0.1875,0.0625,-0.9765625,0.059347616565572865,1.54281926383203,22.680195298130933,0.5613934226559305,1468,0,12.732512464922667,9.120576372238306,71.6321809805014,0.16915808835592286,0.12117162799427116,0.19921875,,
1.283314999999944,1200,,,,-0.09375,0.203125,-1.021484375,0.059347616565572865,1.54281926383203,22.679952761787654,0.5517517225638706,1468,0,12.513703003983553,9.12516353012327,72.92136889630838,0.16907305373092732,0.12329038521538319,0.19921875,,
1.2911499999999068,1200,,,,0.0625,0.03125,-0.982421875,0.059347616565572865,1.54281926383203,22.67976082462267,0.5492091840584198,1468,0,12.455932937131129,9.126044448075167,73.26664726068357,0.16905673346325154,0.12386220057695449,0.19921875,,
1.299214999999851,1200,,,,-0.375,0.0234375,-0.953125,0.059347616565572865,1.54281926383203,22.679903521308304,0.5500661711425409,1468,0,12.47544769184829,9.126397173652332,73.1548670563198,0.1690501995996962,0.12366844877560099,0.19921875,,
1.30775,1200,,,,0,0.0546875,-0.9453125,0.059347616565572865,1.54281926383203,22.67990879223739,0.5488438722475079,1469,0,12.447728963751869,9.1265433109421,73.31894305795737,0.1690474927108816,0.12394383492159591,0.201171875,,
1.3154250000002794,1200,,,,0.0625,-0.017578125,-1.00390625,0.059347616565572865,1.5616611497706203,22.680107453039312,0.5477072693870046,1469,0,12.422059722508015,9.12659359335572,73.47085585829932,0.17111106502074666,0.1257167639389936,0.201171875,,
1.3239849999998696,1200,,,,-0.3125,0.26953125,-0.98828125,0.059347616565572865,1.5616611497706203,22.68029856528442,0.547573012845815,1469,0,12.419119417635407,9.126613206333934,73.48840847261646,0.17111069730519712,0.12574652817598558,0.203125,,
1.3324150000000372,1200,,,,0.09375,-0.03125,-1.0078125,0.055170701339803854,1.5616611497706203,22.68035623436461,0.5441694653808251,1469,0,12.341957326700854,8.484285703403492,68.74343735615102,0.1840651298605086,0.12653269724017674,0.203125,,
1.339774999999907,1200,,,,-0.09375,0.048828125,-0.93359375,0.055170701339803854,1.5616611497706203,22.68034040847214,0.5433366926551435,1468,0,12.32306114583206,8.479620847535429,68.81099385280118,0.1841663887866533,0.1267267224669099,0.20703125,,
1.3474199999999255,1200,,,,-0.1875,0.10546875,-0.94921875,0.055170701339803854,1.5616611497706203,22.68051398080221,0.5433112972669525,1467,0,12.322579473590901,8.47756146038569,68.79697127175646,0.18421112687510638,0.12673167603564575,0.20703125,,
1.355410000000149,1200,,,,0,-0.064453125,-0.970703125,0.055170701339803854,1.5616611497706203,22.680491433854495,0.543955251238384,1467,0,12.337172416112336,8.476762524709342,68.70911938977765,0.18422848879138182,0.12658177231365367,0.208984375,,
1.3632650000001303,1200,,,,-0.25,0.2421875,-1.01953125,0.055170701339803854,1.5616611497706203,22.680662876182584,0.5444290666663659,1467,0,12.348012121054579,8.476397233464397,68.64584477538132,0.1842364281378012,0.12647065247918196,0.208984375,,
1.3712299999999813,1200,,,,0.125,-0.00390625,-1.015625,0.055170701339803854,1.5616611497706203,22.680728187523307,0.5431838350014215,1467,0,12.31980491752375,8.474149627912835,68.78477122522584,0.18428529331446963,0.12676021740809434,0.208984375,,
1.3807700000000187,1200,,,,-0.15625,0.068359375,-0.974609375,0.055170701339803854,1.5616611497706203,22.680761475747946,0.5420922198930787,1467,0,12.295064337253622,8.473206459739187,68.91551135739617,0.18430580644894257,0.1270152889756616,0.2109375,,
1.3896250000004657,1200,,,,-0.1875,0.037109375,-0.90625,0.055170701339803854,1.5616611497706203,22.68071905095383,0.5412850517567895,1467,0,12.276734185376746,8.472864490915002,69.01562225732094,0.18431324511859074,0.12720493302125663,0.2109375,,
1.3996750000002793,1200,,,,0.1875,-0.1328125,-0.94140625,0.055170701339803854,1.5616611497706203,22.680789139503297,0.5382833425704524,1467,0,12.20869099014745,8.473239666111528,69.40334285591737,0.18430508416001,0.12791388946045884,0.212890625,,
1.4079099999996834,1200,,,,-0.041015625,0.046875,-0.998046875,0.055170701339803854,1.5616611497706203,22.680902345646246,0.535810578855406,1467,0,12.15266741478365,8.473639897207045,69.72658436203817,0.18429637897231765,0.12850357016031463,0.212890625,,
1.4154250000002795,1200,,,,-0.125,0.19140625,-1.01953125,0.055170701339803854,1.5616611497706203,22.680979292830585,0.5377209399556774,1467,0,12.196037504456116,8.473751916544748,69.4795495130993,0.18429394265384658,0.12804660113582217,0.212890625,,
1.4242349999998696,1200,,,,0.0625,-0.052734375,-0.984375,0.055170701339803854,1.5616611497706203,22.681146418671887,0.5384817977970788,1467,0,12.213384499625214,8.473309144644158,69.37724055853785,0.18430357291492439,0.1278647331391673,0.212890625,,
1.432679999999702,1200,,,,-0.25,0.09765625,-0.890625,0.055170701339803854,1.5616611497706203,22.681155756984786,0.5398753048638735,1466,0,12.24499587896716,8.472220242440159,69.18924535526078,0.18432726075128952,0.12753464069784098,0.21484375,,
1.4399150000000374,1200,,,,0.0625,-0.013671875,-1.0234375,0.055170701339803854,1.5616611497706203,22.681099504359977,0.5394897304307105,1466,0,12.236220257479285,8.471796523955655,69.23540395390759,0.18433647991364277,0.12762610650262432,0.21484375,,
1.4476850000000558,1200,,,,-0.15625,0.111328125,-1.013671875,0.055170701339803854,1.5616611497706203,22.681222802759837,0.5366783317781478,1466,0,12.172520816473636,8.471640732508973,69.59643659876852,0.1843398698174157,0.12829398062373013,0.216796875,,
1.455864999999758,1200,,,,0.25,0.046875,-1.00390625,0.055170701339803854,1.5616611497706203,22.68108627191626,0.5356142440283607,1467,0,12.148312877274456,8.477437534252717,69.78283832408734,0.18421381973748513,0.12854963199803496,0.216796875,,
1.4635349999996834,1200,,,,-0.625,0.1484375,-0.91015625,0.055170701339803854,1.5616611497706203,22.681127854402835,0.5330803636588867,1468,0,12.090863884818766,8.479392522695639,70.13057630515819,0.18417134784015882,0.1291604276292809,0.220703125,,
1.4725750000001863,1200,,,,0.125,-0.017578125,-0.982421875,0.055170701339803854,1.5865333621729842,22.68113917251052,0.532900545998483,1468,0,12.086791448898436,8.480292894535625,70.16165481459102,0.1870847365655596,0.13126174707991486,0.22265625,,
1.482045000000391,1200,,,,0.0625,-0.025390625,-1.033203125,0.05324328934470497,1.5865333621729842,22.681187545951246,0.5343087279789422,1467,0,12.118756466729037,8.182170285834124,67.51658314363806,0.19390128862506884,0.1309155247511302,0.224609375,,
1.4902650000001303,1200,,,,-0.25,0.208984375,-1,0.05324328934470497,1.5865333621729842,22.681340047427458,0.5319450867720349,1467,0,12.065227399634828,8.177245311392072,67.7753103239444,0.19401807109329547,0.13149634976801208,0.228515625,,
1.4994350000000558,1200,,,,-0.125,0.08984375,-0.92578125,0.05324328934470497,1.5865333621729842,22.681266155830812,0.5343439072725832,1466,0,12.11959637959604,8.175443194619394,67.45639820467265,0.19406083858758252,0.13090645203696671,0.232421875,,
1.5084849999998695,1200,,,,0.125,-0.056640625,-1.00390625,0.05324328934470497,1.5865333621729842,22.681342996616568,0.5333805094700481,1466,0,12.097786283000254,8.17480233159718,67.57271239850195,0.19407605197262429,0.13114245243382855,0.234375,,
1.516445000000298,1200,,,,-0.3125,0.02734375,-0.88671875,0.05324328934470497,1.5865333621729842,22.681342629625938,0.531940070815629,1466,0,12.065115004596766,8.175259713317564,67.75948434973739,0.1940651939887009,0.1314975747490613,0.234375,,
1.5241049999999814,1200,,,,0.03125,0.064453125,-1.021484375,0.05324328934470497,1.5865333621729842,22.681375061189378,0.5332239645119028,1466,0,12.094252730708803,8.175443008484548,67.59775234170597,0.19406084300587328,0.13118076804733705,0.236328125,,
1.532475000000093,1200,,,,0.03125,-0.015625,-1,0.05324328934470497,1.5865333621729842,22.681307392959084,0.5343362882243768,1466,0,12.119445604429874,8.175515007578547,67.45782995709185,0.19405913397532734,0.13090808061328135,0.234375,,
1.5405999999996274,1200,,,,-0.125,0.07421875,-0.939453125,0.05324328934470497,1.5865333621729842,22.6814391381557,0.5354929110922231,1466,0,12.145749871852079,8.175317931726942,67.3101127388877,0.19406381200368159,0.13062457064506114,0.234375,,
1.5545049999998883,1200,,,,0.1875,0,-0.98828125,0.05324328934470497,1.5865333621729842,22.681759610057224,0.5369095684858398,1466,0,12.178053764735374,8.174789355067391,67.12722338884359,0.19407636004584305,0.13027807175290948,0.234375,,
1.5705200000000186,1200,,,,-0.3125,0.1484375,-1,0.05324328934470497,1.5865333621729842,22.681648485829914,0.5358048729635047,1466,0,12.152937785552965,8.174476707591628,67.2633798661357,0.19408378284319686,0.13054731211238535,0.234375,,
1.5776000000000932,1200,,,,0.125,0.0234375,-1.0078125,0.05324328934470497,1.5865333621729842,22.681472345759314,0.534989867528714,1466,0,12.134357885613966,8.174456465490877,67.36620546837672,0.1940842634456079,0.1307472036945538,0.234375,,
1.5846099999998695,1200,,,,-0.5,0.1015625,-0.92578125,0.05324328934470497,1.5865333621729842,22.68158131981769,0.5346719377669297,1466,0,12.127205035885117,8.174448880440115,67.40587675603273,0.1940844435359127,0.1308243208124492,0.234375,,
1.5914550000000744,1200,,,,0.09375,-0.05859375,-0.94921875,0.05324328934470497,1.5865333621729842,22.68142751869063,0.5342750423028676,1466,0,12.11812064703786,8.17444557294984,67.45638049863774,0.19408452206508064,0.13092239369318334,0.23828125,,
1.599399999999907,1200,,,,-0.25,-0.08984375,-0.89453125,0.05324328934470497,1.5865333621729842,22.681277443596322,0.5336033272319533,1466,0,12.102805109774048,8.175080608088368,67.54699042031416,0.1940694457010343,0.13108806989643443,0.23828125,,
1.6075049999998883,1200,,,,-0.03125,0.0703125,-1.021484375,0.05324328934470497,1.5865333621729842,22.681214999728834,0.5351141057246837,1466,0,12.137038081329175,8.176047664735092,67.36443941222025,0.19404649131584883,0.13071833107400424,0.240234375,,
1.6155250000003725,1200,,,,0.1875,-0.01953125,-1.037109375,0.05324328934470497,1.5960703825683606,22.681253904997185,0.5351186425257682,1466,0,12.137161800424373,8.176433016123656,67.36692770988493,0.19520374953490874,0.13150276883616682,0.240234375,,
1.6235800000000744,1200,,,,-0.5625,0.1875,-0.828125,0.05324328934470497,1.5960703825683606,22.681323289916527,0.5342177126888971,1466,0,12.116764648696616,8.176583185706647,67.48157138288718,0.19520016445970068,0.1317241383193861,0.2421875,,
1.6323300000000744,1200,,,,0.09375,-0.025390625,-1,0.05224372747427883,1.5960703825683606,22.681470203823864,0.5333792178809276,1466,0,12.097824837705135,8.023141326124538,66.31887495278421,0.19893335012949587,0.13193035971176476,0.244140625,,
1.6404200000003912,1200,,,,0.0625,-0.12109375,-0.96875,0.05224372747427883,1.5960703825683606,22.681528945044708,0.530864331555852,1467,0,12.040814702075867,8.023162037223726,66.6330496377501,0.19893283660025055,0.13255501575762926,0.24609375,,
1.648714999999851,1200,,,,-0.375,0.34375,-0.96875,0.05224372747427883,1.5960703825683606,22.68138816320772,0.530383996271288,1467,0,12.0298452949824,8.023170661395328,66.69388063320947,0.19893262276572143,0.13267588596788318,0.25,,
1.6569250000002793,1200,,,,0.0625,0.041015625,-1.05859375,0.05224372747427883,1.5960703825683606,22.68122186457427,0.5314205816746211,1467,0,12.053268116363194,8.024505478942249,66.57535036533699,0.1988995317850723,0.13241806016092666,0.248046875,,
1.6647949999999254,1200,,,,-0.15625,-0.03515625,-0.958984375,0.05224372747427883,1.5960703825683606,22.68115554992903,0.5314493990150383,1467,0,12.053886485976383,8.027866194442144,66.59981578374615,0.19881626622941884,0.13241126705691525,0.248046875,,
1.673035000000149,1200,,,,0.1875,0.0859375,-0.98828125,0.05224372747427883,1.5960703825683606,22.681278691655766,0.5320339908874206,1468,0,12.067211220751432,8.028941394224844,66.53518569740324,0.19878964164770235,0.1322650572175012,0.248046875,,
1.6816650000000373,1200,,,,-0.125,-0.021484375,-1,0.05224372747427883,1.5960703825683606,22.681281860156275,0.5328778204501523,1468,0,12.086352042655653,8.029477122937767,66.43424827110616,0.1987763783533145,0.13205559269955425,0.25,,
1.6911599999996834,1200,,,,-0.15625,0.232421875,-0.99609375,0.05224372747427883,1.5960703825683606,22.68113759449529,0.530791200519837,1467,0,12.038948252937763,8.027547033976905,66.67980346221698,0.1988241707974965,0.1325755663231533,0.25,,
1.701730000000447,1200,,,,0.1875,-0.04296875,-1.05078125,0.05224372747427883,1.5960703825683606,22.681220842651356,0.5307362437693333,1467,0,12.037745954131493,8.024757140630173,66.66328705729153,0.1988932941642921,0.1325888076264453,0.25,,
1.7097400000002234,1200,,,,0.01953125,-0.00390625,-0.974609375,0.05224372747427883,1.5960703825683606,22.681052984334382,0.5305308684204121,1467,0,12.032998736468299,8.023658182547784,66.6804539605789,0.19892053552829117,0.13264111611107918,0.25,,
1.7179850000003354,1200,,,,-0.375,0.23828125,-0.92578125,0.05224372747427883,1.5960703825683606,22.68100652591761,0.5311681796656177,1467,0,12.047428949355652,8.025056845492037,66.61219484445476,0.19888586626834062,0.13248224075674878,0.25390625,,
1.7246100000003353,1200,,,,0.125,-0.068359375,-1.0078125,0.05224372747427883,1.5960703825683606,22.681022293688365,0.5318302845897797,1467,0,12.06245454123942,8.026561309950536,66.54169168065361,0.19884858794882818,0.1323172143042426,0.25390625,,
1.7326149999997578,1200,,,,-0.21875,0.130859375,-0.947265625,0.05224372747427883,1.5960703825683606,22.681155136286325,0.5324161629144972,1467,0,12.075813588130005,8.027141337908862,66.47288217333191,0.19883421947870553,0.13217083643434407,0.255859375,,
1.7402949999999255,1200,,,,0.25,0.0234375,-1.1171875,0.05224372747427883,1.5960703825683606,22.681163957815084,0.5332427473703696,1467,0,12.09456618242312,8.027401241642483,66.37196506732587,0.19882778180922092,0.13196590588655502,0.255859375,,
1.7476800000001675,1200,,,,-0.625,0.18359375,-0.91015625,0.05224372747427883,1.5960703825683606,22.681285456610187,0.5340235957452637,1467,0,12.112341615663727,8.024208914116379,66.24820508479914,0.19890688286548916,0.13177223968851046,0.259765625,,
1.7566350000002422,1200,,,,0.125,-0.009765625,-0.982421875,0.05224372747427883,1.5960703825683606,22.681361034732344,0.5311831251923829,1466,0,12.047956238045865,8.02073951925775,66.57344499583512,0.19899292063234378,0.13247644256277924,0.259765625,,
1.7650200000000187,1200,,,,0.03125,-0.07421875,-0.986328125,0.05224372747427883,1.6002630826717517,22.681294056912215,0.5313811280640223,1466,0,12.052411621913818,8.019554163612542,66.5389999544266,0.19954514303708953,0.1327753426345095,0.26171875,,
1.7753349999999628,1200,,,,-0.1875,0.111328125,-0.9765625,0.05224372747427883,1.6002630826717517,22.681002472244018,0.53195011524989,1466,0,12.065161879093246,8.019060147451114,66.46458810757196,0.1995574360644247,0.1326350279182511,0.263671875,,
1.784070000000298,1200,,,,-0.0625,0.0859375,-0.990234375,0.05138292430899646,1.6002630826717517,22.680804471927456,0.533237933536498,1467,0,12.094265307555958,7.891252262632298,65.2478845300524,0.20278949771375696,0.13231585730734538,0.263671875,,
1.792625,1200,,,,0.0625,-0.015625,-1.0546875,0.05138292430899646,1.6002630826717517,22.680698180322292,0.5353335621322086,1467,0,12.141738948517435,7.8924046245603865,65.00225921530036,0.2027598886265778,0.1317985083897024,0.263671875,,
1.8005800000000745,1200,,,,-0.15625,0.033203125,-0.92578125,0.05138292430899646,1.6002630826717517,22.68066368370974,0.5346840041691782,1467,0,12.126988075620385,7.892852659573742,65.085020372381,0.20274837903260376,0.13195882379804239,0.26171875,,
1.8082299999999814,1200,,,,0.0625,0.025390625,-0.998046875,0.05138292430899646,1.6002630826717517,22.680565048763956,0.5333696905487783,1467,0,12.097125961530667,7.8923715818979066,65.24170788165682,0.2027607375129353,0.13228456806688224,0.263671875,,
1.8165499999998138,1200,,,,-0.1875,0.18359375,-1.0390625,0.05138292430899646,1.6002630826717517,22.68060227916995,0.5325669890715068,1467,0,12.078940066145895,7.8921851216601375,65.33839126977594,0.20276552792455696,0.1324837339955738,0.263671875,,
1.8246150000002235,1200,,,,0.03125,-0.0078125,-0.98046875,0.05138292430899646,1.6002630826717517,22.680374539024346,0.5318920720348719,1467,0,12.063511408088612,7.892109732585471,65.42133103379662,0.20276746483446348,0.13265317439819152,0.26171875,,
1.8333349999999629,1200,,,,0,-0.064453125,-0.94921875,0.05138292430899646,1.6002630826717517,22.68035376938399,0.5322566396090139,1467,0,12.071768882435956,7.891846203683924,65.37439774187784,0.20277423575800888,0.13256243540249382,0.259765625,,
1.8415400000000373,1200,,,,-0.21875,0.044921875,-0.95703125,0.05138292430899646,1.6002630826717517,22.680528543788203,0.5334895701983116,1467,0,12.099825424696105,7.891328392140352,65.21853097180986,0.20278754135559612,0.13225505546597116,0.259765625,,
1.857035000000149,1200,,,,0.3125,0.08984375,-1.0390625,0.05138292430899646,1.6002630826717517,22.680646558178243,0.5325665273572445,1467,0,12.078953175706026,7.891105132707725,65.32937927583681,0.2027932787308643,0.13248359020799125,0.26171875,,
1.8769150000000372,1200,,,,-0.09375,-0.015625,-0.99609375,0.05138292430899646,1.6002630826717517,22.680967020096574,0.5324317930027956,1467,0,12.076067937547293,7.895389542739636,65.38046641979415,0.20268323355157386,0.1325152434507397,0.263671875,,
1.8853100000000558,1200,,,,-0.3125,0.056640625,-0.892578125,0.05138292430899646,1.6002630826717517,22.681068302442895,0.5298146562575149,1467,0,12.016762406211999,7.895996979040011,65.70818921208111,0.2026676412009355,0.13316923715197235,0.263671875,,
1.9021049999999813,1200,,,,0.15625,0.00390625,-1.072265625,0.05138292430899646,1.6002630826717517,22.680704534973536,0.5322011560665576,1466,0,12.070697173916932,7.890433712559191,65.36850025207576,0.20281053500577734,0.13257420508648776,0.26953125,,
1.9100200000004843,1200,,,,-0.5,0.21484375,-0.78125,0.05138292430899646,1.6002630826717517,22.680867728640337,0.5306842185818782,1466,0,12.036378567332436,7.889452262536282,65.54672751776685,0.20283576469189546,0.13295220599117547,0.271484375,,
1.9177700000000186,1200,,,,0.09375,-0.07421875,-0.982421875,0.05138292430899646,1.633494875905461,22.680826094645443,0.5298075505058266,1466,0,12.016472916652736,7.889074613866021,65.65216489551722,0.207057856067731,0.13593796509470943,0.2734375,,
1.9260600000000558,1200,,,,-0.03125,-0.099609375,-0.955078125,0.05138292430899646,1.633494875905461,22.680783871649446,0.529750682625775,1466,0,12.015160738493961,7.890923388968273,65.67472180116135,0.20700934420287642,0.1359528109076476,0.2734375,,
1.9334300000001676,1200,,,,-0.25,0.265625,-0.9609375,0.05103201080732614,1.633494875905461,22.68083832326618,0.5292666218457024,1467,0,12.004210679983636,7.8376838550611625,65.29112212375672,0.20841550974917625,0.13607682499518475,0.2734375,,
1.9407450000001119,1200,,,,0.03125,0.044921875,-1.06640625,0.05103201080732614,1.633494875905461,22.680921957905227,0.5273081813556267,1467,0,11.959835709091905,7.837963206776016,65.53570966545612,0.2084080816420884,0.13658171530430582,0.2734375,,
1.9559300000001676,1200,,,,0.03125,-0.041015625,-1.01171875,0.05103201080732614,1.633494875905461,22.680921228034318,0.5269026579070302,1466,0,11.950637678831265,7.8366679190219015,65.5753117919671,0.20844252848082126,0.13668683795835837,0.271484375,,
1.9746200000001117,1200,,,,-0.0625,0.033203125,-0.978515625,0.05103201080732614,1.633494875905461,22.68118133000468,0.5280072407259432,1466,0,11.97582797046055,7.8361011528185225,65.43264626167783,0.20845760462368695,0.13639932703898405,0.271484375,,
1.9957800000002608,1200,,,,-0.15625,0.095703125,-0.94140625,0.05103201080732614,1.633494875905461,22.680824906010645,0.5267149177214331,1466,0,11.946328824223627,7.8340854694095325,65.57734668682751,0.20851124005270524,0.13673613877036564,0.26953125,,
2.0055,1200,,,,0.0625,-0.01953125,-0.953125,0.05103201080732614,1.633494875905461,22.68066976509636,0.5249213750327053,1466,0,11.905568359757087,7.833964033159176,65.80084038355825,0.20851447223797467,0.1372042750539286,0.271484375,,
2.0136450000000186,1200,,,,0.09375,-0.044921875,-0.953125,0.05103201080732614,1.633494875905461,22.68046207896625,0.5263055338273533,1466,0,11.936852701921376,7.83390281610292,65.62787538495772,0.20851610164830525,0.13684468734732155,0.271484375,,
2.022430000000168,1200,,,,-0.15625,0.138671875,-1.021484375,0.05103201080732614,1.633494875905461,22.680439928868054,0.5281377510431304,1466,0,11.978396536701192,7.833885495803899,65.4001182195069,0.20851656266617857,0.13637007849093297,0.2734375,,
2.029570000000298,1200,,,,-0.125,0.0703125,-0.955078125,0.05103201080732614,1.633494875905461,22.680154929944578,0.529825988226348,1466,0,12.016535498884563,7.833878443286252,65.19248783489577,0.20851675038503947,0.13593725712848687,0.2734375,,
2.037689999999944,1200,,,,0.375,-0.21484375,-1.0234375,0.05103201080732614,1.633494875905461,22.68027776140432,0.5302479252434122,1466,0,12.026170226928942,7.834523648818561,65.1456240929929,0.20849957816539247,0.13582835142710248,0.275390625,,
2.0455900000003164,1200,,,,-0.25,0.103515625,-0.921875,0.05103201080732614,1.633494875905461,22.680264046486883,0.5284011910238577,1466,0,11.984278534899248,7.8354317185052516,65.38092131026329,0.20847541457703872,0.13630314675585883,0.275390625,,
2.054895000000019,1200,,,,0,0.115234375,-1.00390625,0.05103201080732614,1.633494875905461,22.68032293643126,0.5277616514214365,1466,0,11.969804687702446,7.835807583676715,65.46311980952436,0.20846541450409037,0.13646796405823425,0.27734375,,
2.0638050000001678,1200,,,,0,-0.04296875,-0.96875,0.05103201080732614,1.6465860797914806,22.680450478991226,0.5255102982084608,1466,0,11.918810294716907,7.835941627733233,65.74432710961568,0.21013250966084623,0.13815020451507154,0.27734375,,
2.0714849999998695,1200,,,,-0.0625,0.119140625,-0.9921875,0.05103201080732614,1.6465860797914806,22.680528053544986,0.5264838905984476,1466,0,11.940932650457599,7.835988076012529,65.62291493799054,0.21013126408806035,0.1378942606906321,0.27734375,,
2.080035000000149,1200,,,,0.09375,-0.017578125,-0.974609375,0.05141052453801032,1.6465860797914806,22.68050220276353,0.5272295600700481,1466,0,11.957831198530773,7.894127003281646,66.0163776542654,0.20858368241440542,0.13769939150786745,0.27734375,,
2.087869999999646,1200,,,,-0.375,-0.03125,-0.88671875,0.05141052453801032,1.6465860797914806,22.68041368249012,0.529133338464298,1466,0,12.00096300956734,7.8941340454829625,65.77917154806366,0.2085834963410154,0.1372044958791056,0.27734375,,
2.097040000000037,1200,,,,0.0625,0.025390625,-0.982421875,0.05141052453801032,1.6465860797914806,22.680465659174892,0.5290475020988392,1467,0,11.999043703424979,7.896242899158959,65.80726843177573,0.20852778983874232,0.1372264424140303,0.27734375,,
2.105560000000056,1200,,,,-0.03125,0.0546875,-0.990234375,0.05141052453801032,1.6465860797914806,22.680584525896464,0.5297896009151486,1467,0,12.015937824496982,7.899030835799438,65.73794697652,0.2084541906494323,0.13703350531945777,0.27734375,,
2.1132000000001865,1200,,,,-0.21875,0.03515625,-0.9453125,0.05141052453801032,1.6465860797914806,22.680655563390168,0.5282646734058667,1467,0,11.981389103825261,7.900008777936139,65.93566663663337,0.20842838610385037,0.13742864583754985,0.275390625,,
2.1220499999998137,1200,,,,0.4375,-0.1640625,-0.953125,0.05141052453801032,1.6465860797914806,22.680752789485226,0.5262416880169343,1467,0,11.935557633433495,7.900379702733001,66.19196140951735,0.2084186003391549,0.1379563595067496,0.279296875,,
2.1306850000000557,1200,,,,-0.28125,0.056640625,-0.91015625,0.05141052453801032,1.6465860797914806,22.680784469728394,0.5250188316447403,1467,0,11.907838963082972,7.897775602333419,66.32417205857698,0.2084873213294377,0.1382774897188545,0.279296875,,
2.1392050000000746,1200,,,,-0.03125,0.15234375,-1.03515625,0.05141052453801032,1.6465860797914806,22.680746316469733,0.5259902130301624,1467,0,11.929850586682985,7.8968861340302485,66.19434230672896,0.20851080436576214,0.13802235558838655,0.28125,,
2.145899999999907,1200,,,,0,0.0546875,-0.94140625,0.05141052453801032,1.6465860797914806,22.680710041827677,0.5272297349884566,1467,0,11.957944744702832,7.896533089815732,66.03587203657018,0.20852012662558272,0.13769808398896394,0.279296875,,
2.1556150000002234,1200,,,,-0.15625,0.08203125,-0.974609375,0.05141052453801032,1.6465860797914806,22.680678420501543,0.5278751571100165,1466,0,11.972566684584013,7.895158199543129,65.94373961357014,0.20855643904472543,0.13752991511098786,0.28125,,
2.1710499999998136,1200,,,,-0.3125,-0.10546875,-0.93359375,0.05141052453801032,1.6465860797914806,22.68093741439436,0.5274477591137066,1466,0,11.963009613820532,7.892434047253668,65.97364962522273,0.20862842437871795,0.13763978571823812,0.28515625,,
2.179350000000093,1200,,,,0.03125,0.150390625,-1.001953125,0.05141052453801032,1.6465860797914806,22.68095920982298,0.5266248356503618,1466,0,11.944356416265586,7.892142659876124,66.07423945528585,0.20863612719049932,0.1378547342700853,0.287109375,,
2.187754999999888,1200,,,,0.15625,-0.05078125,-1.009765625,0.05141052453801032,1.6465860797914806,22.6809118961376,0.5267269971639713,1466,0,11.946648615993153,7.894668325257823,66.08270301588274,0.20856938023899907,0.13782828412540502,0.287109375,,
2.196089999999851,1200,,,,-0.15625,0.07421875,-0.96484375,0.05141052453801032,1.6465860797914806,22.68106242422138,0.5261353600887742,1467,0,11.933308945763681,7.895653367931758,66.16482824518435,0.20854335962608234,0.1379823557133345,0.287109375,,
2.2036750000002794,1200,,,,0,0.0546875,-0.87890625,0.05141052453801032,1.6465860797914806,22.68107577339049,0.5269497176652915,1467,0,11.951786475133202,7.896044401564414,66.06580880601292,0.20853303199070777,0.13776903421236278,0.28515625,,
2.2120400000000373,1200,,,,-0.0625,-0.048828125,-0.966796875,0.05141052453801032,1.6465860797914806,22.681121624281126,0.5280039928270699,1466,0,11.97572277941683,7.895104119950967,65.92590915281212,0.20855786760690712,0.13749367032957177,0.28515625,,
2.222404999999795,1200,,,,-0.1875,0.2421875,-0.94921875,0.05141052453801032,1.6524001587439894,22.680987801445806,0.5282192790129702,1466,0,11.980535023781675,7.892416848154378,65.87699825164506,0.20936554550212325,0.13792373674998087,0.28515625,,
2.2308450000002047,1200,,,,0.03125,0.00390625,-1.01171875,0.05106395375062615,1.6524001587439894,22.681090875359605,0.5280489413007512,1466,0,11.976726024279767,7.838194415674274,65.44521766452975,0.21081387767565896,0.1379676011118705,0.28515625,,
2.2393050000001677,1200,,,,-0.15625,0.078125,-1.009765625,0.05106395375062615,1.6524001587439894,22.681037488351627,0.527283817704532,1466,0,11.959344036357656,7.837897669725139,65.53785597184186,0.21082185917361385,0.13816812642236231,0.283203125,,
2.246870000000112,1200,,,,0,0.03515625,-0.935546875,0.05106395375062615,1.6524001587439894,22.68105191432887,0.5234096913689777,1466,0,11.871482382402634,7.839071872119573,66.03279708134518,0.21079028049492857,0.13919071818641449,0.283203125,,
2.255880000000354,1200,,,,-0.125,-0.17578125,-0.95703125,0.05106395375062615,1.6524001587439894,22.680994018759208,0.5245967554400721,1466,0,11.898375872396763,7.839571092186212,65.88774111913342,0.2107768574725925,0.13887611019058657,0.283203125,,
2.2646599999996835,1200,,,,0,0.140625,-1.001953125,0.05106395375062615,1.6524001587439894,22.680938544531116,0.5257341734398413,1466,0,11.924144478548904,7.8397511462883775,65.74686477836461,0.21077201659982478,0.138575992744519,0.28125,,
2.272064999999944,1200,,,,0.15625,0.02734375,-1,0.05106395375062615,1.6524001587439894,22.6810693253855,0.5268326087433473,1466,0,11.949126921781554,7.840207095496448,65.61322134092381,0.2107597591003887,0.13828626723613588,0.28125,,
2.2802050000000746,1200,,,,-0.625,0.15625,-0.91796875,0.05106395375062615,1.6524001587439894,22.681082313290588,0.5278243724336196,1466,0,11.971628038127873,7.840639257399943,65.49350875610787,0.21074814240235137,0.13802635309761865,0.283203125,,
2.287905000000261,1200,,,,0.125,-0.046875,-0.962890625,0.05106395375062615,1.6524001587439894,22.68112729161087,0.5270702422241921,1466,0,11.954547255507075,7.840810556878357,65.5885194921652,0.2107435381530064,0.13822356659996318,0.28515625,,
2.2956650000000374,1200,,,,0.0625,-0.001953125,-1.05078125,0.05106395375062615,1.6524001587439894,22.681072323832225,0.5269907359326662,1466,0,11.952714995678372,7.840878101556803,65.59913880981647,0.2107417227180086,0.13824475521598498,0.28515625,,
2.306285000000149,1200,,,,-0.4375,0.24609375,-0.87890625,0.05106395375062615,1.6524001587439894,22.681085346067746,0.5262695855911708,1466,0,11.93636538583305,7.838947234201774,65.67281564206814,0.21079363202426893,0.13843411334451763,0.287109375,,
2.313439999999944,1200,,,,0.15625,-0.015625,-1.0390625,0.05106395375062615,1.6524001587439894,22.68110088891339,0.5252744541781675,1466,0,11.913802889583932,7.838103369947353,65.79010449132153,0.21081632644442763,0.13869628145255444,0.287109375,,
2.320625,1200,,,,-0.1875,0.08203125,-0.96484375,0.05106395375062615,1.6524001587439894,22.68131007552954,0.5266712313612633,1466,0,11.945593506365771,7.837879750115394,65.6131463534115,0.2108223411720066,0.1383271712588772,0.291015625,,
2.3291150000002236,1200,,,,-0.0625,0.02734375,-0.88671875,0.05106395375062615,1.6524001587439894,22.681247484146606,0.5269236765120291,1466,0,11.95128631222574,7.839057659062482,65.5917484885573,0.21079066268044383,0.13826128130271995,0.2890625,,
2.33625,1200,,,,-0.03125,-0.017578125,-0.99609375,0.05106395375062615,1.6524001587439894,22.68118650510382,0.5278060943277427,1466,0,11.971268463977953,7.840833544547244,65.49709889257466,0.2107429202974369,0.13803049891631206,0.291015625,,
2.344850000000093,1200,,,,-0.15625,0.17578125,-1.005859375,0.05106395375062615,1.6524001587439894,22.68112705623098,0.5286663693029039,1466,0,11.990749092515493,7.841545489624469,65.39662725925174,0.2107237866477164,0.13780624930058802,0.291015625,,
2.352095000000205,1200,,,,0.1875,0.01953125,-1.0546875,0.05106395375062615,1.6524001587439894,22.681200497254526,0.5300634104245975,1466,0,12.02247448809881,7.84181363615993,65.2262863516378,0.21071658106289248,0.13744260055446322,0.2890625,,
2.3600200000000187,1200,,,,-0.15625,0.015625,-0.939453125,0.05106395375062615,1.6524001587439894,22.68123583126973,0.5289973873422551,1466,0,11.99831449643523,7.841611033560567,65.35593841860336,0.21072202531750667,0.13771935710094343,0.2890625,,
2.367970000000205,1200,,,,0.1875,0.109375,-0.98828125,0.05106395375062615,1.671179302784798,22.681305888660567,0.5279746147884802,1466,0,11.97515373946525,7.841194754250368,65.4788650304252,0.21312814630435306,0.13955389126047452,0.287109375,,
2.3759249999998135,1200,,,,-0.15625,-0.044921875,-0.939453125,0.05106395375062615,1.671179302784798,22.681437224321517,0.5259482438730805,1466,0,11.929262076649419,7.841030396111962,65.72938330745667,0.2131326137459518,0.14009075264227774,0.287109375,,
2.38406500000041,1200,,,,-0.0625,0.138671875,-0.982421875,0.05091993534442503,1.671179302784798,22.681366624982687,0.5278413648205716,1466,0,11.972163515326624,7.818850687552053,65.30858585035571,0.2137372063448388,0.139588746899871,0.287109375,,
2.391600000000093,1200,,,,0.0625,0.046875,-1.0703125,0.05091993534442503,1.671179302784798,22.681167133988886,0.532773370227956,1467,0,12.08392185467881,7.8233867887865,64.74211669746391,0.2136132787375604,0.1382977582015502,0.28515625,,
2.3987099999999626,1200,,,,-0.15625,0.044921875,-0.88671875,0.05091993534442503,1.671179302784798,22.680947186871713,0.5346784471749821,1467,0,12.127013622334347,7.825020477540189,64.52553547997036,0.2135686810764918,0.13780633508211648,0.28515625,,
2.407929999999702,1200,,,,0.4375,-0.03515625,-1.125,0.05091993534442503,1.671179302784798,22.680901031823392,0.5379304964757512,1468,0,12.200748352566135,7.825796434861218,64.1419379264162,0.21354750493384575,0.1369735080580779,0.287109375,,
2.415129999999888,1200,,,,-0.25,-0.033203125,-0.853515625,0.05091993534442503,1.671179302784798,22.68106952904941,0.5358354415331935,1468,0,12.153320905543252,7.8268062785575605,64.40055635318306,0.21351995223941939,0.13750803716723686,0.287109375,,
2.4238450000002048,1200,,,,-0.03125,0.203125,-1.037109375,0.05091993534442503,1.671179302784798,22.680815337735293,0.5323779124767458,1468,0,12.074765122774075,7.8284703350543206,64.83331357136822,0.21347456543350396,0.13840263440261924,0.2890625,,
2.4318650000002235,1200,,,,0.0625,-0.0390625,-1.0234375,0.05091993534442503,1.671179302784798,22.680840736783665,0.5326749713344335,1468,0,12.081516189307091,7.829106473188328,64.80235055362988,0.2134572199915716,0.13832529598097115,0.2890625,,
2.439964999999851,1200,,,,-0.15625,0.09375,-0.953125,0.05091993534442503,1.671179302784798,22.68079972036728,0.5324806305554102,1468,0,12.07708653660214,7.829358214896352,64.8282033184729,0.21345035658288905,0.1383760311495607,0.291015625,,
2.44925,1200,,,,0.125,-0.01953125,-1.025390625,0.05091993534442503,1.671179302784798,22.680980476192218,0.5326343770568482,1469,0,12.08066990697518,7.831791200042957,64.82911345438724,0.21338404716096512,0.13833498602754526,0.29296875,,
2.459689999999944,1200,,,,-0.3125,0.0546875,-0.921875,0.05091993534442503,1.671179302784798,22.680997853292823,0.5339819626112533,1469,0,12.111243747682925,7.833666935222331,64.6809452309226,0.2133329533415206,0.1379857707103386,0.29296875,,
2.4693350000004286,1200,,,,-0.01953125,0.0859375,-0.998046875,0.05091993534442503,1.671179302784798,22.681022988276474,0.5331841156967814,1469,0,12.093161185102561,7.834559510274675,64.7850416475552,0.21330864876233582,0.1381920969385165,0.29296875,,
2.4761800000001677,1200,,,,0.25,-0.0703125,-1.015625,0.05091993534442503,1.671179302784798,22.68106735925374,0.5343094921867411,1469,0,12.118709582976134,7.835168042329179,64.65348466915735,0.21329208177237802,0.137900763389231,0.29296875,,
2.483845000000205,1200,,,,-0.1875,0.08984375,-1.0078125,0.05091993534442503,1.671179302784798,22.68102045860021,0.5327760818878603,1469,0,12.08390521315142,7.835623067343885,64.8434668191211,0.21327969561855067,0.13829794866033737,0.29296875,,
2.4911650000000374,1200,,,,-0.0625,0.01171875,-0.853515625,0.05091993534442503,1.671179302784798,22.68088984618147,0.5318953918606606,1469,0,12.06386079248317,7.835817538437813,64.95281795128311,0.21327440239477205,0.13852773432416324,0.291015625,,
2.500010000000242,1200,,,,0.125,-0.22265625,-0.9765625,0.05091993534442503,1.671179302784798,22.68098693443979,0.5340304145135579,1470,0,12.112336854175473,7.835912910732402,64.693650821238,0.2132718065939553,0.13797331785803946,0.291015625,,
2.5081400000001306,1200,,,,-0.09375,0.1328125,-0.970703125,0.05091993534442503,1.671179302784798,22.680838466052304,0.5329557075195551,1470,0,12.087882311811647,7.836819917949737,64.83203356713695,0.2132471232313337,0.13825244651429217,0.291015625,,
2.5167350000003355,1200,,,,0.125,-0.046875,-1.015625,0.05091993534442503,1.6791220030765854,22.68086306205168,0.5339805934293171,1470,0,12.111140717363435,7.837608990078499,64.71404447346498,0.21423906260214798,0.1386427622518885,0.2890625,,
2.5245849999999628,1200,,,,-0.15625,0.05859375,-0.94140625,0.05091993534442503,1.6791220030765854,22.680816587929254,0.5335205454206956,1470,0,12.100681636578775,7.837931697836962,64.77264614700647,0.21423024183024883,0.13876259648058334,0.287109375,,
2.5313150000004097,1200,,,,0.03125,0.03515625,-0.9453125,0.05095930706177978,1.6791220030765854,22.680953054043783,0.5331743651326859,1470,0,12.092902745194047,7.844096095167026,64.86528718908635,0.2140618858699527,0.13885185703191905,0.2890625,,
2.539845000000205,1200,,,,-0.1875,-0.08984375,-0.90234375,0.05095930706177978,1.6791220030765854,22.680973595731782,0.531360978382824,1469,0,12.051784320503039,7.839372939281773,65.04740485560365,0.21419085634551058,0.1393255934907487,0.2890625,,
2.5476899999999443,1200,,,,0,0.12890625,-1.00390625,0.05095930706177978,1.6791220030765854,22.68092994018264,0.5287575450770596,1469,0,11.992712835235753,7.8378032997082885,65.35471504562389,0.2142337513291613,0.14001185771272384,0.291015625,,
2.555574999999721,1200,,,,0.15625,-0.037109375,-1.037109375,0.05095930706177978,1.6791220030765854,22.680884403724743,0.5280635457280533,1469,0,11.976948238478991,7.837105784804213,65.43491404284038,0.21425281847443292,0.14019614760310803,0.2890625,,
2.5636800000001676,1200,,,,-0.6875,0.234375,-0.90625,0.05095930706177978,1.6791220030765854,22.680971750223705,0.5295277591119945,1468,0,12.01020414537841,7.835856812719082,65.2433274061737,0.2142869686376928,0.13980794853705467,0.29296875,,
2.5711400000001303,1200,,,,0.5625,-0.171875,-1.07421875,0.05095930706177978,1.6791220030765854,22.680843423536732,0.5307574975662254,1468,0,12.038027698167737,7.83448744366325,65.08115482119806,0.21432442328243254,0.1394848097360798,0.294921875,,
2.579910000000149,1200,,,,-0.28125,0.00390625,-0.873046875,0.05095930706177978,1.6791220030765854,22.680724509899008,0.5322463806178137,1468,0,12.071733530183483,7.833811132369607,64.89383743256415,0.21434292641271235,0.13909535021446615,0.294921875,,
2.5880099999997763,1200,,,,0,0.1640625,-1.060546875,0.05095930706177978,1.6791220030765854,22.680688430880473,0.5335282393973874,1468,0,12.10078776684835,7.833578591621011,64.73610431448188,0.21434928920897223,0.1387613794596707,0.296875,,
2.596170000000391,1200,,,,0.125,-0.01953125,-1.029296875,0.05095930706177978,1.6791220030765854,22.680654888701667,0.531864608731151,1468,0,12.06303763814558,7.831546700572676,64.92184585255592,0.21440490202960813,0.13919561999598573,0.294921875,,
2.604179999999702,1200,,,,-0.5,0.3125,-0.88671875,0.05095930706177978,1.6791220030765854,22.680688062120993,0.531234106855431,1467,0,12.048755065547482,7.8307411491417795,64.99211832708926,0.21442695794645325,0.1393606222337368,0.298828125,,
2.614649999999907,1200,,,,0.125,-0.123046875,-0.953125,0.05095930706177978,1.6791220030765854,22.680752457950884,0.532387459193019,1467,0,12.074948173674292,7.8304206423567875,64.84848240946168,0.214435734651824,0.139058319665288,0.298828125,,
2.6319199999999254,1200,,,,-0.15625,0.25390625,-1.048828125,0.05095930706177978,1.6791220030765854,22.6808003756092,0.5329005241594542,1468,0,12.086610408518087,7.831792267104943,64.79725913549306,0.21439817934513225,0.13892414385204452,0.296875,,
2.640100000000093,1200,,,,0.0625,-0.01953125,-0.990234375,0.05095930706177978,1.6791220030765854,22.680565267204532,0.5334917938035915,1468,0,12.099895448880378,7.832133881480858,64.72893848190711,0.21438882793447675,0.13877161254578915,0.296875,,
2.6483300000000747,1200,,,,-0.3125,-0.03515625,-0.953125,0.05095930706177978,1.6791220030765854,22.680668738875376,0.5321341059083587,1468,0,12.06915738076511,7.832486658861115,64.89671492182151,0.21437917180196495,0.13912503997608316,0.296875,,
2.6565500000002795,1200,,,,0,0.021484375,-0.955078125,0.05095930706177978,1.6791220030765854,22.680636136605735,0.5307491474862489,1468,0,12.037728293949304,7.833056536327954,65.07088667440016,0.21436357509858323,0.13948827902359173,0.296875,,
2.665035000000149,1200,,,,0.03125,0.07421875,-0.99609375,0.05095930706177978,1.6824570642472139,22.680711162955816,0.5302784114219019,1468,0,12.027091485411209,7.833296308863022,65.13042923440605,0.214782768059417,0.13988893875863706,0.294921875,,
2.6732150000003165,1200,,,,-0.3125,0.16796875,-1.05859375,0.05095930706177978,1.6824570642472139,22.680479861907795,0.5301474797286345,1468,0,12.023999237826466,7.833377442827889,65.14785378715558,0.21478054345353215,0.1399249144123653,0.294921875,,
2.68151500000013,1200,,,,0.09375,0.03125,-0.97265625,0.050991252532729174,1.6824570642472139,22.680453858740627,0.5304219075982266,1468,0,12.030209600946764,7.837864924978458,65.15152424577563,0.21465757324872983,0.1398526808805398,0.29296875,,
2.6882250000000933,1200,,,,-0.0625,0.01953125,-1.009765625,0.050991252532729174,1.6824570642472139,22.68026200138429,0.5295060694230094,1468,0,12.009336385837031,7.837528310059952,65.26196001390204,0.21466679260190694,0.14009575635098254,0.294921875,,
2.6958800000003538,1200,,,,-0.3125,0.09765625,-0.77734375,0.050991252532729174,1.6824570642472139,22.68019252122897,0.5291398692146639,1468,0,12.000994104446496,7.837380461116093,65.30609375278553,0.21467084220224533,0.14019314146849265,0.296875,,
2.7129300000001675,1200,,,,-0.15625,0.16015625,-1.0390625,0.050991252532729174,1.6824570642472139,22.680215570584355,0.5275035250219804,1467,0,11.963893661741654,7.832772239913039,65.47009244123268,0.21479713857553617,0.1406278851865262,0.296875,,
2.721410000000149,1200,,,,0.3125,-0.1171875,-0.9765625,0.050991252532729174,1.6824570642472139,22.68033499934384,0.5282482877777271,1467,0,11.980848129628642,7.830954852627535,65.36227458940557,0.21484698812721362,0.14042887832677695,0.296875,,
2.7302050000000744,1200,,,,-0.09375,0.01953125,-0.984375,0.050991252532729174,1.6824570642472139,22.680390375088066,0.5315780868436603,1466,0,12.05639852445668,7.830184882964813,64.946301062304,0.2148681147883918,0.1395488927173659,0.298828125,,
2.7384900000002235,1200,,,,-0.1875,0.0390625,-0.921875,0.050991252532729174,1.6824570642472139,22.680371373068525,0.5357191941032,1467,0,12.150310273941558,7.833810581364974,64.47416078061755,0.21476866804125103,0.138470296339307,0.30078125,,
2.7469099999996835,1200,,,,0.3125,-0.0546875,-1.0546875,0.050991252532729174,1.6824570642472139,22.680352853700406,0.5396444614985821,1468,0,12.239326802332986,7.8372355622680505,64.03322412123323,0.21467481114735318,0.13746320295381884,0.30078125,,
2.755935000000056,1200,,,,-0.1875,0.162109375,-0.99609375,0.050991252532729174,1.6824570642472139,22.68045193486768,0.5399648346752804,1468,0,12.24664647937147,7.838693622326633,64.00685800419164,0.21463487990589905,0.1373810428088361,0.30078125,,
2.7660800000000747,1200,,,,-0.0625,0.109375,-0.958984375,0.050991252532729174,1.6824570642472139,22.68049523856999,0.5391470692124425,1468,0,12.228122536161766,7.839130151657754,64.10738957248252,0.214622927760859,0.13758915641152164,0.30078125,,
2.7741949999998323,1200,,,,0.0625,-0.03125,-1.001953125,0.050991252532729174,1.6824570642472139,22.68046437860655,0.5366686741113115,1468,0,12.171894746295608,7.840783977196141,64.41711944298896,0.21457765819596772,0.13822474637806512,0.298828125,,
2.782185000000056,1200,,,,-0.125,-0.080078125,-0.947265625,0.050991252532729174,1.6824570642472139,22.68037811255125,0.5347744670640656,1468,0,12.128887117951093,7.84125059003863,64.64938220451701,0.21456488922628922,0.13871487531260226,0.298828125,,
2.790129999999888,1200,,,,-0.0625,0.30078125,-0.95703125,0.050991252532729174,1.6824570642472139,22.680424462654564,0.5352681585123102,1468,0,12.140109036402661,7.841439103744777,64.59117525412556,0.21455973093557987,0.13858665183338065,0.298828125,,
2.7985449999999257,1200,,,,0,0.037109375,-1.05859375,0.050991252532729174,1.6824570642472139,22.680403243070806,0.5352650376476733,1469,0,12.140026895766706,7.842392519157051,64.5994657712969,0.21453364647808457,0.13858758952452535,0.296875,,
2.807304999999702,1200,,,,-0.1875,0.091796875,-0.98046875,0.050991252532729174,1.6824570642472139,22.680309565868466,0.5357884668355936,1469,0,12.151848289653312,7.843232915754414,64.54353880004025,0.21451065935677163,0.13845277065216008,0.294921875,,
2.815415000000037,1200,,,,0.375,-0.09765625,-0.96875,0.050991252532729174,1.6833835717391865,22.68009746974093,0.5349586454349673,1469,0,12.132914220745636,7.843524963529727,64.64666955378588,0.2146207960791182,0.1387451968349722,0.296875,,
2.8229950000001116,1200,,,,-0.25,0.001953125,-0.904296875,0.050991252532729174,1.6833835717391865,22.680158442511367,0.5319246414014018,1469,0,12.064135146459835,7.843639868358489,65.0161803820655,0.2146176520074581,0.13953619976092257,0.296875,,
2.8313500000000933,1200,,,,-0.03125,0.21484375,-1.03515625,0.05059555061693562,1.6833835717391865,22.680150696445363,0.5320854596848557,1468,0,12.06777840903993,7.779590093330997,64.46580165495361,0.21638461044139795,0.13949407377899564,0.298828125,,
2.839339999999851,1200,,,,0.0625,-0.0390625,-0.97265625,0.05059555061693562,1.6833835717391865,22.680143347768958,0.5300653243410421,1468,0,12.021957539736482,7.778335358385715,64.70107162394963,0.21641951576751625,0.14002574590494568,0.296875,,
2.847220000000205,1200,,,,-0.15625,0.1015625,-0.935546875,0.05059555061693562,1.6833835717391865,22.679939556892915,0.5299979318345717,1468,0,12.020321059286337,7.777837133129425,64.70573535239005,0.21643337896198328,0.14004480940537634,0.298828125,,
2.855214999999851,1200,,,,0.4375,-0.21484375,-1.05859375,0.05059555061693562,1.6833835717391865,22.6798776824119,0.5311481021784391,1468,0,12.046373988652215,7.777963485262246,64.56684387010692,0.21642986302634057,0.13974193174850358,0.30078125,,
2.8645800000000743,1200,,,,-0.25,0.080078125,-0.93359375,0.05059555061693562,1.6833835717391865,22.67981067390998,0.5304718040965494,1468,0,12.031000084757205,7.778360140345494,64.65264803879741,0.21641882625203507,0.13992050202642473,0.30078125,,
2.8719850000003353,1200,,,,0.03125,0.099609375,-1.001953125,0.05059555061693562,1.6833835717391865,22.679627458734437,0.5330474434457567,1468,0,12.089317435180575,7.778491664708878,64.34185971552903,0.21641516688598134,0.13924554308090614,0.302734375,,
2.8805950000002047,1200,,,,-0.0625,0,-0.96484375,0.05059555061693562,1.6833835717391865,22.679821615938465,0.5319387569883681,1468,0,12.06427611910023,7.778542086745487,64.4758293821745,0.21641376404039075,0.13953456926222405,0.30078125,,
2.8893849999997765,1200,,,,-0.0625,0.099609375,-0.98046875,0.05059555061693562,1.6833835717391865,22.68007228831838,0.5315490676085021,1468,0,12.055571278149062,7.777143186833555,64.51078101068313,0.21645269108444587,0.13963532153721733,0.302734375,,
2.8975449999999254,1200,,,,0.09375,-0.04296875,-0.998046875,0.05059555061693562,1.6833835717391865,22.68026878309909,0.5305914824413615,1468,0,12.033957435793079,7.7767177275195145,64.62311146613261,0.21646453307443417,0.13988611649333507,0.30078125,,
2.907185000000056,1200,,,,-0.3125,-0.02734375,-0.81640625,0.05059555061693562,1.6833835717391865,22.68018126718053,0.5293614277754546,1468,0,12.006013137800803,7.77654566718465,64.77209026783653,0.21646932247086298,0.14021170495300156,0.30078125,,
2.9177399999997577,1200,,,,0.03125,0.095703125,-1.029296875,0.05059555061693562,1.6833835717391865,22.680391618823617,0.5295040488459596,1467,0,12.009359191579073,7.773294541652549,64.72697183629215,0.21655985923586407,0.14017263909631167,0.30078125,,
2.9254750000000933,1200,,,,-0.041015625,0.072265625,-0.99609375,0.05059555061693562,1.6833835717391865,22.680367703692603,0.5305819643793482,1467,0,12.03379404907115,7.770400108983622,64.57148990000701,0.21664052663040737,0.13988801577247548,0.298828125,,
2.933550000000279,1200,,,,-0.1875,0.0234375,-1.0625,0.05059555061693562,1.6833835717391865,22.680283944274787,0.533642102459713,1466,0,12.10315440840607,7.769549326585055,64.19441630182646,0.2166642492350432,0.13908635013117052,0.296875,,
2.9414449999998324,1200,,,,-0.03125,-0.033203125,-0.880859375,0.05059555061693562,1.6833835717391865,22.68007669099589,0.5360788443502368,1467,0,12.158309302283818,7.770497734409767,63.911005561851894,0.2166378048454644,0.1384553995038586,0.296875,,
2.9490200000000186,1200,,,,-0.0625,-0.05078125,-0.97265625,0.05059555061693562,1.6833835717391865,22.680008527398773,0.5372434249500018,1467,0,12.184685459154963,7.773435010593017,63.79676386929174,0.21655594591647137,0.13815568546124235,0.294921875,,
2.957995000000112,1200,,,,-0.0625,0.15234375,-0.990234375,0.05059555061693562,1.6833835717391865,22.679898205301328,0.5351621436523877,1467,0,12.137422941367,7.774685234076105,64.055485844349,0.21652112221353864,0.1386936567895188,0.294921875,,
2.965035000000149,1200,,,,0.15625,0.01171875,-0.9921875,0.05059555061693562,1.6837676468197782,22.67990261628133,0.5341795927153455,1467,0,12.11514114238886,7.775079223669981,64.17654678793856,0.21655954857589332,0.13898044001555673,0.294921875,,
2.9734950000001117,1200,,,,-0.5,0.09375,-0.89453125,0.05059555061693562,1.6837676468197782,22.679974126539,0.533310188907451,1468,0,12.095461285840615,7.778522551010943,64.3094328292941,0.2164636839165486,0.13920656740812834,0.296875,,0.438035000000149,2188,
2.983380000000354,1200,,,,0.09375,0.0234375,-1.009765625,0.05042967687785588,1.6837676468197782,22.679757842688858,0.5346536597007242,1468,0,12.1258155317198,7.754413852324206,63.94962740476723,0.21713667581916687,0.13885809514545452,0.296875,,
3.0015449999999255,1400,,,,-0.1875,0.111328125,-0.935546875,0.05042967687785588,1.6837676468197782,22.679786472092914,0.5344987920427964,1468,0,12.122318473122217,7.752785909222405,63.95464635260982,0.21718227054571898,0.13889815306808287,0.298828125,,
3.009720000000205,1400,,,,-0.125,0.1484375,-0.994140625,0.05042967687785588,1.6837676468197782,22.679884876588037,0.5349638134547383,1468,0,12.132917702293984,7.749911533057833,63.87508531103404,0.21726282159964536,0.13877681264593317,0.30078125,,
3.0185049999998883,1400,,,,0.3125,-0.2109375,-1.0859375,0.05042967687785588,1.6837676468197782,22.679963919022263,0.533734681197848,1467,0,12.105083311898042,7.748542713672507,64.01065167437959,0.21730120217944027,0.13909591561132084,0.302734375,,
3.0262299999999813,1400,,,,-0.25,0.083984375,-0.890625,0.05042967687785588,1.6837676468197782,22.679965682856647,0.6397280376758107,1469,0,14.50900994084861,7.755989098064557,53.456363526420745,0.2170925752383985,0.11604979620830677,0.302734375,,
3.0343900000001303,1400,,,,0.09375,0.326171875,-1,0.05042967687785588,1.6837676468197782,22.66432433978517,1.0210528241026136,1472,0,23.141472373515253,7.774938409216584,33.59742320507997,0.2165634707567333,0.0727597457777493,0.3046875,,
3.0434199999999256,1400,,,,-0.1875,0.6796875,-0.5234375,0.05042967687785588,1.6837676468197782,22.64439213991355,1.37862400582914,1474,0,31.218102601493506,7.782830546746158,24.930504733410093,0.21634386573195105,0.05393561768674644,0.30859375,,
3.0511650000000374,1400,,,,0.53125,-0.255859375,-0.76171875,0.05042967687785588,1.6837676468197782,22.632157098510827,1.713387389763918,1474,0,38.7776525757444,7.785484487985086,20.07724545155924,0.21627011773233187,0.04342108237549641,0.3125,,
3.0594950000001115,1400,,,,-0.28125,0.255859375,-1.1328125,0.05042967687785588,1.6837676468197782,22.620031351553667,2.134690684406062,1523,0,48.28677020713468,8.044159183738358,16.659136962839945,0.20931555534400573,0.03487016504928695,0.32421875,,
3.06975,1400,,,,-0.28125,0.0390625,-0.705078125,0.05042967687785588,1.6837676468197782,22.60871428852002,2.434985406063521,1543,0,55.05188934240606,8.14695291591044,14.798679960353155,0.20667452778958567,0.03058510192715193,0.328125,,
3.078,1400,,,,0.25,0.25390625,-1.046875,0.05042967687785588,1.6837676468197782,22.596898328943414,2.721697075007765,1551,0,61.501912086133146,8.192593223373102,13.320875637003631,0.20552315987275732,0.027377484531890154,0.330078125,,
3.0863199999998323,1400,,,,0.21875,-0.080078125,-0.978515625,0.05042967687785588,1.6837676468197782,22.589343135669743,2.911184737172572,1656,0,65.76175095931576,8.747699245152411,13.302108167047244,0.19248119987125162,0.02560405740810429,0.328125,,
3.0944750000000933,1400,,,,0.0625,-0.1953125,-0.9296875,0.05042967687785588,1.6837676468197782,22.584471145301258,3.11279496699379,1695,0,70.30082811331023,8.951994926930153,12.733839937847403,0.18808853898638003,0.023950893495961342,0.33203125,,
3.1024750000000934,1400,,,,-0.25,0.34375,-1.1796875,0.05042967687785588,1.6837676468197782,22.579397548184026,3.3231586813043617,1710,0,75.03492098087017,9.032717499590492,12.038018274042487,0.18640765051006122,0.02243978703261442,0.333984375,,
3.1111949999998325,1400,,,,0.0625,-0.220703125,-0.77734375,0.05042967687785588,1.7678999689868533,22.573685720896936,3.4155174049997377,1800,0,77.10081647471753,9.508305999586154,12.33230260629479,0.1859321701535269,0.02292971786578386,0.3359375,,
3.1195550000001675,1400,,,,-0.03125,0.087890625,-1.19921875,0.05042967687785588,1.7678999689868533,22.570389893593596,3.5464000715989865,1832,0,80.04363233465737,9.67431920907174,12.086307088893745,0.1827415377537956,0.022086703431890436,0.333984375,,
3.1274849999998695,1400,,,,-0.125,0.244140625,-1.076171875,0.05042967687785588,1.7678999689868533,22.566893747464256,3.6223857563769486,1895,0,81.74599447648654,10.007243009596284,12.241875670709188,0.1766620404132841,0.021626747344732262,0.3359375,,
3.136625,1400,,,,-0.5,-0.11328125,-0.91796875,0.051918102246595585,1.7678999689868533,22.563428397429085,3.6806891987410104,1947,0,83.04896718898343,10.586871105631255,12.747745654127316,0.16698984537995282,0.02128744075725686,0.3359375,,
3.1453900000001305,1400,,,,-0.125,-0.052734375,-0.9375,0.051918102246595585,1.7678999689868533,22.56092163829488,3.740491487405708,1967,0,84.38893533606922,10.692176803657661,12.670116954405572,0.16534518662112627,0.02094942852337685,0.341796875,,
3.153839999999851,1400,,,,0,0.12890625,-1.056640625,0.051918102246595585,1.7678999689868533,22.55930617130803,3.7881482972425222,2038,0,85.45799725981324,11.080368561786111,12.96586500628967,0.15955245162908868,0.020687355492453263,0.34765625,,
3.1623300000000745,1400,,,,-0.09375,-0.107421875,-0.888671875,0.051918102246595585,1.7678999689868533,22.557406542844767,3.8351533628978305,2068,0,86.51111356104464,11.240862537329086,12.993547389026755,0.15727440515493749,0.020435524364616743,0.349609375,,
3.1710600000000557,1400,,,,0.4375,0.26171875,-1.21484375,0.051918102246595585,1.7678999689868533,22.55607048543507,3.8550932916902094,2119,0,86.95575601529227,11.522777447277727,13.251310753081489,0.1534265481630492,0.020331028674811888,0.3515625,,
3.179285000000149,1400,,,,-0.34375,-0.1875,-1.01171875,0.051918102246595585,1.7678999689868533,22.555060571771165,3.886988713744936,2140,0,87.67126588030793,11.636592060338012,13.272982822245,0.151925921250822,0.020165101430159066,0.3515625,,
3.1873449999997394,1400,,,,-0.09375,0.708984375,-0.935546875,0.051918102246595585,1.7678999689868533,22.55510678179126,3.906702052750658,2186,0,88.1160819644342,11.886326868084677,13.489395582615996,0.14873391827493357,0.020063306601630575,0.357421875,,
3.1953950000000186,1400,,,,0.9375,-0.08984375,-0.76171875,0.051918102246595585,1.7678999689868533,22.554752418252985,3.9089659262506458,2224,0,88.16575867797027,12.091645533817378,13.714673037616226,0.14620838528903857,0.02005200199596982,0.365234375,,
3.2034199999999253,1400,,,,0.78125,0.091796875,-1.041015625,0.051918102246595585,1.7678999689868533,22.554909092025113,3.914392442128602,2238,0,88.2887656827208,12.17012276806944,13.78445227312911,0.14526558217023616,0.020024064843539354,0.369140625,,
3.2124799999999816,1400,,,,0,0.513671875,-1.091796875,0.051918102246595585,1.7678999689868533,22.55466619471058,3.9098677112161457,2286,0,88.18576109195723,12.426986391771571,14.09182870102251,0.14226296812857656,0.020047453773669253,0.373046875,,
3.226375,1400,,,,-0.125,0.666015625,-0.513671875,0.051918102246595585,1.7678999689868533,22.554666212650165,3.89744340731466,2312,0,87.9055351346761,12.571802384762066,14.301491214974545,0.14062422514131118,0.020111361204710642,0.376953125,,
3.236594999999739,1400,,,,-0.03125,-0.16796875,-0.94921875,0.051918102246595585,1.7678999689868533,22.555209857217328,3.8760216890084402,2341,0,87.42448260671132,12.725624919100172,14.556134093864529,0.1389244127676098,0.02022202381156714,0.3828125,,
3.245379999999888,1400,,,,-0.1875,0.03125,-1.009765625,0.051918102246595585,1.7678999689868533,22.555816865110994,3.8631459753771282,2366,0,87.13641314379709,12.863900063532231,14.762944215185387,0.13743110256264032,0.020288877005636804,0.3828125,,
3.2534799999999815,1400,,,,0.375,-0.134765625,-1.115234375,0.051918102246595585,1.7678999689868533,22.55634739425396,3.8462632771250806,2382,0,86.75765064859502,12.951331815479655,14.928172580350289,0.13650333372463122,0.020377453236344444,0.3828125,,
3.2613150000004096,1400,,,,-0.40625,0.25,-0.916015625,0.051918102246595585,2.1115846434876255,22.557109458475814,3.8196304221010053,2420,0,86.15982152225655,13.159453736810006,15.273306634474276,0.1604614207944696,0.02450776482797341,0.38671875,,
3.269375,1400,,,,-0.1875,-0.29296875,-0.91796875,0.051918102246595585,2.1115846434876255,22.55804211835565,3.7955273539867225,2436,0,85.61966591260347,13.242731713879422,15.466927571753178,0.1594523463217577,0.024662378917047305,0.388671875,,
3.277494999999646,1400,,,,0.25,0.06640625,-0.927734375,0.051918102246595585,2.1115846434876255,22.558725010562256,3.7758359531503527,2456,0,85.17804495211304,13.354950769526644,15.6788651078277,0.1581124992467845,0.024790245475518426,0.38671875,,
3.2858449999997394,1400,,,,-0.6875,0.34765625,-1.0703125,0.09448166351849845,2.1115846434876255,22.559643732183,3.7536807923452207,2465,0,84.68170135964658,24.384735562318816,28.795755364852514,0.0865945270594039,0.024935548171376963,0.390625,,
3.294020000000019,1400,,,,0.03125,-0.228515625,-0.818359375,0.09448166351849845,2.1115846434876255,22.56068425444762,3.7279868992501832,2481,0,84.1059353387006,24.54969811961555,29.189019800745523,0.08601265209857875,0.025106250052200515,0.388671875,,
3.301454999999609,1400,,,,0.21875,0.171875,-1.154296875,0.09448166351849845,2.1115846434876255,22.561522305906692,3.705416761552052,2492,0,83.59984291843716,24.6602575236623,29.497971123847304,0.08562703132607165,0.025258236974772294,0.392578125,,
3.309360000000335,1400,,,,-0.5,0.216796875,-0.8515625,0.09448166351849845,2.1115846434876255,22.562618710963395,3.681777698842963,2505,0,83.070546397522,24.78546309092729,29.836643871728096,0.0851944801572245,0.025419173642881134,0.396484375,,
3.3167800000002607,1400,,,,0.5,-0.21875,-1.28125,0.09448166351849845,2.1115846434876255,22.56344416755128,3.6597220891805526,2517,0,82.57593502797953,24.90234987711869,30.156909357043226,0.08479459383983022,0.025571428803950556,0.3984375,,
3.3395100000002422,1400,,,,-0.103515625,-0.021484375,-0.826171875,0.09448166351849845,2.1115846434876255,22.56677460439577,3.585468044756548,2628,0,80.91244921728463,25.99954482034187,32.13293513155428,0.08121621582526845,0.02609715394743663,0.400390625,,
3.346959999999963,1400,,,,-0.375,0.1953125,-1.24609375,0.09448166351849845,2.1115846434876255,22.567546864777064,3.560558309456667,4768,0,80.35306651343473,47.177686231047296,58.71298791460481,0.044758122158564166,0.026278830853761835,0.404296875,,
3.355660000000149,1400,,,,-0.0625,0.111328125,-0.970703125,0.09448166351849845,2.1115846434876255,22.568351884132802,3.538214284450053,5388,0,79.85166501293395,53.31128833996603,66.76290135131303,0.03960858402111861,0.02644383987667135,0.404296875,,
3.363415000000037,1400,,,,-0.0625,-0.0625,-1.00390625,0.09448166351849845,2.1115846434876255,22.569217513663634,3.51562068644719,5309,0,79.34480796796208,52.524294285658684,66.19751894398307,0.04020205644274931,0.02661276392955974,0.40625,,
3.374910000000149,1400,,,,0.5,-0.1640625,-1.28515625,0.09448166351849845,2.1115846434876255,22.570138254762668,3.4927515658066643,5232,0,78.8318857297952,51.767612794510285,65.66836796464487,0.04078968547129044,0.026785920746908297,0.40625,,
3.39,1400,,,,-0.0625,0.02734375,-0.93359375,0.09448166351849845,2.1115846434876255,22.572257927605552,3.4247320757171793,4883,0,77.30393574603212,48.31685460966205,62.50245106329152,0.04370285815470625,0.02731535753140498,0.404296875,,
3.3974549999996086,1400,,,,0.0625,0.056640625,-1.005859375,0.09448166351849845,2.1115846434876255,22.57303456266855,3.4041189599985873,5097,0,76.84129493948343,50.42574530437928,65.62323727637882,0.041875130069802716,0.027479815965498883,0.40234375,,
3.4056500000003727,1400,,,,-0.5625,0.140625,-0.63671875,0.09448166351849845,2.1115846434876255,22.573836877468082,3.3800464937044716,5188,0,76.30061818714269,51.33302238719891,67.27733484582562,0.041135014953146386,0.027674541748908734,0.404296875,,
3.41375,1400,,,,0.15625,0.056640625,-1.109375,0.09448166351849845,3.6612240317662135,22.57453280766348,3.3565462536533808,5173,0,75.77246352353819,51.180704612991164,67.54525619599558,0.07153524085787767,0.04831866170787597,0.408203125,,
3.4217299999999815,1400,,,,0.5,0.12890625,-0.82421875,0.09448166351849845,3.6612240317662135,22.575384279899964,3.3322615386961187,5318,0,75.22708475719563,52.62066484538639,69.94909481767884,0.06957768478455889,0.048668960701896795,0.408203125,,
3.4295849999999626,1400,,,,-0.375,-0.173828125,-0.921875,0.15347724421492304,3.6612240317662135,22.576287883055134,3.3088383406226898,4388,0,74.70128693638829,70.5178684953623,94.39980405613578,0.051919096675575205,0.049011525529458685,0.41015625,,
3.4375450000003913,1400,,,,0.3125,0.201171875,-1.1640625,0.15347724421492304,3.6612240317662135,22.577069283642942,3.287285772588731,3913,0,74.2172786428695,62.89182297931947,84.74013616418401,0.058214627249239106,0.049331154398477385,0.41015625,,
3.445430000000168,1400,,,,-0.5,0.2578125,-0.8515625,0.15347724421492304,3.6612240317662135,22.577997168037964,3.262858147098816,3533,0,73.66880200490667,56.777063389791934,77.07070271892074,0.0644842091714182,0.04969843315115074,0.412109375,,
3.4531000000000933,1400,,,,0.03125,-0.08984375,-0.9921875,0.15347724421492304,3.6612240317662135,22.578672660627728,3.243554994045012,3255,0,73.23516646728665,52.31673347514548,71.43662805561424,0.06998189276296427,0.04999270443935759,0.408203125,,
3.4608849999997764,1400,,,,-0.25,0.453125,-0.95703125,0.15347724421492304,3.6612240317662135,22.579336963351793,3.222564136128823,2899,0,72.76336151566537,46.599104356423446,64.0419895202217,0.07856854938160486,0.0503168621611576,0.408203125,,
3.4686099999998694,1400,,,,0.125,-0.07421875,-0.927734375,0.15347724421492304,3.6612240317662135,22.580135780362653,3.2046879857739663,2745,0,72.36228985247305,44.12160163375887,60.973197122024146,0.08298030661164603,0.050595745922778976,0.41015625,,
3.4767150000003166,1400,,,,-0.5,-0.1484375,-0.73828125,0.15347724421492304,3.6612240317662135,22.580842813044185,3.182043131073961,2689,0,71.85321576710807,43.2186330991795,60.14850224555086,0.0847140172935206,0.05095421259408957,0.412109375,,
3.4858300000000746,1400,,,,0.25,0.24609375,-1.158203125,0.15347724421492304,3.6612240317662135,22.581562194425405,3.1606689298857593,2667,0,71.37284201620326,42.858443703966884,60.048671866306016,0.08542596779890396,0.05129715909218008,0.412109375,,
3.4942350000003355,1400,,,,-0.25,-0.0625,-0.8828125,0.15347724421492304,3.6612240317662135,22.582261243068924,3.1402400624002667,2661,0,70.91372145507388,42.774674078156906,60.31931930868419,0.08559326542328549,0.05162927507740115,0.412109375,,
3.501850000000093,1400,,,,-0.09375,-0.01953125,-0.93359375,0.15347724421492304,3.6612240317662135,22.583013581082607,3.1232590599318866,2660,0,70.53260176768109,42.745935477904915,60.604506861522914,0.08565081079249454,0.05190825150368736,0.412109375,,
3.5096149999997577,1400,,,,0.6875,0.18359375,-1.171875,0.15347724421492304,3.6612240317662135,22.58371503591446,3.1114517660259193,2660,0,70.26814003192214,42.749005028418,60.83696680885182,0.08564466071976094,0.05210361381563472,0.4140625,,
3.5175250000003726,1400,,,,-0.59375,-0.015625,-0.888671875,0.15347724421492304,3.6612240317662135,22.58390330097166,3.1051002150669946,2660,0,70.12528299689932,42.750146266445405,60.962529403746814,0.08564237438972012,0.05220975766940006,0.416015625,,
3.5276199999996463,1400,,,,0.75,-0.0625,-0.8359375,0.15347724421492304,3.6612240317662135,22.5844363457177,3.0905162713519054,2664,0,69.79756800575193,42.81542685288158,61.3422903923432,0.08551179565128648,0.05245489400811926,0.419921875,,
3.5366450000000187,1400,,,,-0.125,0.078125,-1.072265625,0.15347724421492304,3.6612240317662135,22.58538103096053,3.0702083057814504,2666,0,69.34182443049384,42.84842712707312,61.793048393214825,0.08544593762819651,0.05279964958862763,0.41796875,,
3.5450800000000746,1400,,,,-0.6875,-0.29296875,-0.8203125,0.15347724421492304,3.6612240317662135,22.585921803371953,3.051363513148362,2667,0,68.91785770163122,42.86055754628585,62.190786213703475,0.08542175467065251,0.05312446082721976,0.419921875,,
3.554310000000056,1400,,,,0.375,0.1484375,-1.091796875,0.15347724421492304,3.6612240317662135,22.586742935331618,3.0349532927748513,2668,0,68.5497098446438,42.887818983576565,62.564552177936974,0.08536745674029822,0.05340976701526166,0.421875,,
3.5620300000002607,1400,,,,-0.375,0.037109375,-0.865234375,0.15347724421492304,4.88114349022619,22.58767160401353,3.0184932318294457,2670,0,68.180733859501,42.909211803587425,62.93451151759349,0.11375514219578609,0.07159124306706184,0.421875,,
3.5695400000000372,1400,,,,0.125,0.060546875,-0.95703125,0.15347724421492304,4.88114349022619,22.588131442397966,3.0051877449640942,2673,0,67.8815757923325,42.959322798478546,63.28568878527858,0.11362244961643254,0.07190674985446545,0.419921875,,
3.578225000000093,1400,,,,0.25,0.3515625,-1.05859375,0.15347724421492304,4.88114349022619,22.588651508850038,2.9909734180916043,2674,0,67.56205621350527,42.98192623893796,63.618440065099904,0.11356269756482645,0.07224681668658979,0.419921875,,
3.5869499999997205,1400,,,,-0.40625,-0.25,-0.919921875,0.16957498193771234,4.88114349022619,22.58905087769197,2.9774565694865505,2675,0,67.25791793424989,47.50044883467715,70.624322449459,0.10275994458946602,0.07257351461574987,0.419921875,,
3.5948250000001862,1400,,,,0.3125,0.107421875,-1.095703125,0.16957498193771234,4.88114349022619,22.589327503473577,2.9650699504404203,2675,0,66.97893618120682,47.50399388199678,70.92378080398,0.10275227599496771,0.07287579899777145,0.419921875,,
3.602774999999907,1400,,,,-0.5,0.1015625,-0.94921875,0.16957498193771234,4.88114349022619,22.589588591819243,2.9544336467551107,2675,0,66.73944060202618,47.50538145921162,71.18037105298929,0.10274927471990025,0.07313731499988031,0.421875,,
3.6104650000003167,1400,,,,0,-0.255859375,-0.87109375,0.16957498193771234,4.88114349022619,22.58990439855315,2.9422190107674826,2675,0,66.46444617284305,47.50593188171016,71.47570560983742,0.10274808422620241,0.07343991820126824,0.421875,,
3.619154999999795,1400,,,,-0.3125,0.3984375,-1.0390625,0.16957498193771234,4.88114349022619,22.590203195266117,2.932476416377041,2678,0,66.24523811128317,47.563685245883384,71.79940264684797,0.10262332418089179,0.07368293373821858,0.421875,,
3.62773499999987,1400,,,,0.0625,0.056640625,-1.12109375,0.16957498193771234,4.88114349022619,22.590523918543035,2.918650651695626,2680,0,65.93384735700126,47.587940603813784,72.17528251634873,0.10257101753705657,0.07403092168726418,0.423828125,,
3.6356999999997206,1400,,,,-0.125,0.0703125,-0.8125,0.16957498193771234,4.88114349022619,22.590884517198482,2.9121823491319963,2679,0,65.78877514226473,47.5745751304205,72.31412201784121,0.10259983356330706,0.07419416883307187,0.42578125,,
3.6436650000000372,1400,,,,-0.125,0.24609375,-1.076171875,0.16957498193771234,4.88114349022619,22.591333490311143,2.902850284621841,2679,0,65.57925885233664,47.56917155573934,72.53691546415581,0.10261148829356201,0.07443120852001321,0.427734375,,
3.652120000000112,1400,,,,0.25,-0.3125,-0.79296875,0.16957498193771234,4.88114349022619,22.59169696952991,2.892149823950804,2678,0,65.33857241317584,47.552569663012385,72.77870927804841,0.10264731274917557,0.0747053893274516,0.427734375,,
3.6598900000001304,1400,,,,-0.09375,0.056640625,-1.060546875,0.16957498193771234,4.88114349022619,22.59200267920663,2.887401667175051,2677,0,65.23218620076443,47.546148298813534,72.88755914523736,0.10266117582332099,0.0748272252474192,0.4296875,,
3.6669900000002236,1400,,,,0.375,0.06640625,-1.1875,0.16957498193771234,4.88114349022619,22.592386308364688,2.8750775620570868,2681,0,64.95486294850505,47.60774513745441,73.29358107521048,0.10252834861498306,0.07514669831719706,0.4296875,,
3.674570000000298,1400,,,,-0.40625,-0.19140625,-0.85546875,0.16957498193771234,4.88114349022619,22.592545388903158,2.8679462097075428,2682,0,64.79420491575044,47.63129942141551,73.51166587096604,0.10247764704129779,0.07533302548542674,0.4296875,,
3.684880000000354,1400,,,,0.3125,0.26953125,-0.99609375,0.16957498193771234,4.88114349022619,22.59284662004176,2.857111959503459,2685,0,64.55029227734862,47.67106110122119,73.85103834448395,0.10239217205301834,0.07561768224462456,0.4296875,,
3.6927999999998136,1400,,,,0,0.25,-1.04296875,0.16957498193771234,4.88114349022619,22.593042073841875,2.848308064146726,2685,0,64.35194393253008,47.688531298321664,74.10581310227519,0.10235466174648108,0.07585075433531324,0.427734375,,
3.700754999999888,1400,,,,-0.15625,-0.2109375,-1.0078125,0.16957498193771234,4.88114349022619,22.59328401957275,2.8378887637972348,2683,0,64.11722685642513,47.63585883145217,74.29494562845184,0.10246783851419415,0.07612842491077038,0.42578125,,
3.7084199999999257,1400,,,,0.15625,0.287109375,-1.06640625,0.16957498193771234,5.412611964236525,22.593544394106164,2.8328930789455766,2681,0,64.00509554291298,47.615134078695434,74.39272400862413,0.11367419348837463,0.08456532903083593,0.42578125,,
3.7168700000001116,1400,,,,-0.1875,-0.12109375,-0.9140625,0.16957498193771234,5.412611964236525,22.593665810158996,2.8263240415143716,2682,0,63.85702086519365,47.62125615346365,74.57481653269613,0.11365957980599906,0.08476142311215715,0.423828125,,
3.7314500000001862,1400,,,,0.0625,0.05078125,-1.2578125,0.1640251404911618,5.412611964236525,22.59403415249212,2.818665919479303,2683,0,63.685034049180985,46.08602807870055,72.36555458714281,0.11744583314911569,0.08499032849784799,0.423828125,,
3.739470000000205,1400,,,,-0.125,0.029296875,-0.97265625,0.1640251404911618,5.412611964236525,22.594228864868438,2.81283516438335,2684,0,63.553841463227236,46.09518829555751,72.52935028676207,0.11742249385188375,0.08516577188128441,0.421875,,
3.7460099999997767,1400,,,,-0.1875,-0.064453125,-0.89453125,0.1640251404911618,5.412611964236525,22.594300026345604,2.809343409181374,2685,0,63.47514786408056,46.11090336018959,72.64402669675846,0.11738247507225309,0.08527135652880337,0.421875,,
3.753584999999963,1400,,,,0.8125,0.3359375,-1.22265625,0.1640251404911618,5.412611964236525,22.59437936363114,2.8024163273454192,2685,0,63.318857634876316,46.118763532905966,72.83574792022706,0.11736246919054107,0.08548183221257666,0.42578125,,
3.7620950000002047,1400,,,,-0.625,-0.1875,-1.0390625,0.1640251404911618,5.412611964236525,22.59473151172633,2.797007809730385,2687,0,63.19764049705978,46.15779959159358,73.03721978946514,0.11726321471403696,0.0856457918628836,0.427734375,,
3.7700500000002792,1400,,,,-0.03125,-0.095703125,-0.78515625,0.1640251404911618,5.412611964236525,22.594794209582442,2.7890001640029576,2688,0,63.01688475613851,46.17258363447631,73.27017800571079,0.11722566809527671,0.08589145568179297,0.427734375,,
3.7809399999999442,1400,,,,-0.0625,0.392578125,-1.01171875,0.1640251404911618,5.412611964236525,22.595271981422176,2.781485030280138,2684,0,62.84841077143401,46.101354476442786,73.35325414051181,0.11740678827565255,0.08612169978205203,0.427734375,,
3.789024999999907,1400,,,,-0.15625,-0.28125,-0.865234375,0.1640251404911618,5.412611964236525,22.59538721104246,2.7788672116517175,2684,0,62.78958065534044,46.10375141570143,73.4257992082643,0.11740068428343049,0.08620239071107998,0.42578125,,
3.8052400000002233,1400,,,,0,0.65625,-1.16796875,0.1640251404911618,5.412611964236525,22.5956952584834,2.7653458890390747,2688,0,62.48491299302678,46.16495485583718,73.88176224393418,0.1172450396873321,0.08662270146460098,0.427734375,,
3.8199300000001677,1400,,,,0.03125,-0.048828125,-1.025390625,0.1640251404911618,5.412611964236525,22.595722307687897,2.7616270806662424,2688,0,62.40095863212522,46.17222756633283,73.99281770418584,0.11722657210897082,0.08673924380145674,0.431640625,,
3.8279150000000373,1400,,,,-0.01953125,0.1484375,-0.958984375,0.1640251404911618,5.412611964236525,22.595587647249182,2.7584234192985906,2686,0,62.32819813898608,46.13874265303461,74.02547166556862,0.11731164858434931,0.08684050118321894,0.4296875,,
3.839125,1400,,,,-0.125,-0.02734375,-0.876953125,0.1640251404911618,5.412611964236525,22.595608100390347,2.7563872400960894,2685,0,62.28224585012779,46.122899161068005,74.05464997530011,0.1173519458378989,0.0869045727294598,0.431640625,,
3.856569999999832,1400,,,,-0.125,-0.29296875,-0.60546875,0.1640251404911618,5.412611964236525,22.595857192291096,2.751910611915224,2686,0,62.1817791927868,46.1439395963909,74.20813652392835,0.11729843640528402,0.08704498382806646,0.43359375,,
3.8732749999999068,1400,,,,0,0.1640625,-0.970703125,0.1640251404911618,5.736496129814653,22.596396140196788,2.744149701406526,2686,0,62.00789372098459,46.137111674661355,74.40522311927477,0.12433583121253676,0.09251235263089284,0.431640625,,
3.8808700000001117,1400,,,,-0.125,0.0078125,-0.873046875,0.1640251404911618,5.736496129814653,22.596376662629183,2.7442157972270858,2685,0,62.009333797680455,46.122295663512716,74.37960197088584,0.12437577200548557,0.09251020416589663,0.435546875,,
3.8885550000001676,1400,,,,0.125,0.2734375,-1.28515625,0.1604897768168327,5.736496129814653,22.596453538926042,2.74119041560155,2685,0,61.941181867489796,45.12260429465105,72.84750296043983,0.127131317429182,0.0926119902278695,0.435546875,,
3.896790000000037,1400,,,,-0.28125,-0.09765625,-0.89453125,0.1604897768168327,5.736496129814653,22.59656365713758,2.7410805156586573,2685,0,61.939000361420355,45.12027903726533,72.84631455784549,0.12713786909599603,0.0926152520438111,0.43359375,,
3.904924999999814,1400,,,,0.25,-0.125,-1.19921875,0.1604897768168327,5.736496129814653,22.596736408118815,2.737702478801122,2688,0,61.86314127732244,45.17035960487019,73.01659545928777,0.12699691080600017,0.09272882060900965,0.43359375,,
3.9133150000004098,1400,,,,0.09375,0.21875,-1.02734375,0.1604897768168327,5.736496129814653,22.596700611099234,2.735230641307678,2690,0,61.80718790393456,45.21445586950519,73.15404146809095,0.12687305463480372,0.092812766999378,0.431640625,,
3.921225000000093,1400,,,,-0.375,-0.23046875,-0.91015625,0.1604897768168327,5.736496129814653,22.59679737256598,2.7326348735276675,2687,0,61.74879653031217,45.163246969744584,73.14028694887061,0.1270169111990022,0.09290053332454239,0.431640625,,
3.9295099999997767,1400,,,,0.4375,0.265625,-0.81640625,0.1604897768168327,5.736496129814653,22.597165319177066,2.727642054424207,2686,0,61.63697843536357,45.142753841560925,73.23972554706015,0.12707457214391996,0.09306906787830792,0.43359375,,
3.937844999999739,1400,,,,-0.03125,0.076171875,-1.0859375,0.1604897768168327,5.736496129814653,22.596967508214636,2.7294602553515626,2683,0,61.67752470514248,45.092738055614774,73.11048598527023,0.12721552021834626,0.09300788508032265,0.43359375,,
3.9459799999999814,1400,,,,-0.03125,-0.2265625,-0.896484375,0.1604897768168327,5.736496129814653,22.597118516308278,2.7247508016228927,2682,0,61.57151679167849,45.074195177614186,73.20624458565564,0.12726785486041572,0.09316801710803317,0.43359375,,
3.9542299999999813,1400,,,,-0.375,0.4140625,-1.02734375,0.1604897768168327,5.736496129814653,22.597063760734503,2.7257661767742656,2688,0,61.59431209342159,45.1835226119388,73.35664784015746,0.12695991366328097,0.09313353676414098,0.43359375,,
3.961964999999851,1400,,,,0.0625,0.04296875,-1.103515625,0.1604897768168327,5.736496129814653,22.59701225878266,2.721990807377712,2691,0,61.50885964260787,45.22644063818807,73.5283354316314,0.12683943394322522,0.09326292444935719,0.435546875,,
3.9702450000001117,1400,,,,-0.0625,0.046875,-0.818359375,0.1604897768168327,5.736496129814653,22.59689593213332,2.719603932929118,2687,0,61.45460704901977,45.16086273042133,73.48653729800664,0.12702361697688352,0.0933452576669946,0.439453125,,
3.9790149999996647,1400,,,,0,0.328125,-1.34765625,0.1604897768168327,5.736496129814653,22.59684680356009,2.7189997439312665,2686,0,61.440820672533945,45.13388678331092,73.45912097083567,0.12709953736880084,0.09336620290911989,0.439453125,,
3.9903349999999627,1400,,,,-0.21875,0.041015625,-0.8984375,0.1604897768168327,5.736496129814653,22.59700014562179,2.7206035233084926,2687,0,61.477478212381165,45.16572752016377,73.46711158862675,0.12700993529338486,0.0933105308906337,0.439453125,,
4.00675,1400,,,,-0.625,-0.21875,-1.05859375,0.1604897768168327,5.736496129814653,22.597219432645083,2.7154963623693096,2689,0,61.362667169008795,45.184460361377546,73.63509841729623,0.1269572787621041,0.09348511716439649,0.443359375,,
4.015040000000037,1400,,,,-0.0625,-0.029296875,-0.931640625,0.1604897768168327,5.969596914472771,22.59706191744541,2.712821586125457,2684,0,61.30179735265941,45.11058604660711,73.5877054095056,0.13233250635017546,0.09738045493398241,0.4453125,,
4.023174999999814,1400,,,,0.0625,0.16015625,-1.23828125,0.1604897768168327,5.969596914472771,22.59700983920642,2.7117631108786178,2682,0,61.27773769812114,45.08137160159969,73.56892289935493,0.13241826285207664,0.09741868970230942,0.443359375,,
4.031260000000242,1400,,,,-0.1875,0.060546875,-0.947265625,0.1573285880310937,5.969596914472771,22.59686249447987,2.712458569479255,2686,0,61.2930533164963,44.249253733289,72.19293433596958,0.13490842016126037,0.09739434718071266,0.44140625,,
4.039129999999888,1400,,,,-0.09375,-0.03515625,-0.890625,0.1573285880310937,5.969596914472771,22.596918124259485,2.706108026756342,2689,0,61.14970151601445,44.30486546806261,72.45311811777141,0.13473908229731532,0.09762266644767512,0.439453125,,
4.048475000000093,1400,,,,0,0.158203125,-1.12109375,0.1573285880310937,5.969596914472771,22.59701379302514,2.713595781258024,2689,0,61.3191612977824,44.30911759431078,72.25982328612379,0.13472615205587526,0.0973528793957699,0.44140625,,
4.056375,1400,,,,-0.125,-0.3046875,-0.58203125,0.1573285880310937,5.969596914472771,22.596446159926955,2.7334369603102484,2689,0,61.76596110520492,44.3011422266431,71.72420121688985,0.134750406297258,0.09664865255322196,0.443359375,,
4.06481500000041,1400,,,,0.125,0.19140625,-1.197265625,0.1573285880310937,5.969596914472771,22.596087411221944,2.750356546422972,2691,0,62.14729693499998,44.33943645057091,71.34571998673674,0.13463402768160143,0.09605561639658099,0.443359375,,
4.073655000000261,1400,,,,-0.0625,0.025390625,-0.837890625,0.1573285880310937,5.969596914472771,22.596082942590535,2.743393906993798,2692,0,61.98995626662936,44.35437012402089,71.55089758935333,0.13458869774908225,0.09629942129329012,0.443359375,,
4.082270000000019,1400,,,,-0.03125,0.134765625,-0.9296875,0.1573285880310937,5.969596914472771,22.596217943316876,2.738858716734292,2694,0,61.88784847928124,44.380999003659674,71.71197592774212,0.1345079436805944,0.09645830419312877,0.439453125,,
4.090174999999814,1400,,,,0.3125,0.2578125,-1.30859375,0.1573285880310937,5.969596914472771,22.59630542592363,2.737266383586041,2694,0,61.85210723562362,44.390665634429155,71.76904331702772,0.13447865286892172,0.09651404262965178,0.439453125,,
4.098390000000131,1400,,,,-0.375,-0.140625,-0.84375,0.1573285880310937,5.969596914472771,22.596421203797924,2.7318228022365774,2695,0,61.72941869347726,44.40798622330468,71.93974471688509,0.1344262017299044,0.0967058663570982,0.439453125,,
4.106110000000335,1400,,,,0.4375,0,-0.8828125,0.1573285880310937,5.969596914472771,22.59666109592502,2.7285712063697076,2696,0,61.65659882643557,44.414812488664964,72.03578097730214,0.13440554130440746,0.09682008135540032,0.44140625,,
4.113554999999702,1400,,,,-0.03125,0.29296875,-1.173828125,0.1573285880310937,5.969596914472771,22.5966293381049,2.7246864825341297,2696,0,61.56873050836856,44.410800337249405,72.1320708914292,0.13441768374225385,0.09695825892757966,0.44140625,,
4.122154999999795,1400,,,,-0.1875,-0.34375,-0.8984375,0.1573285880310937,5.969596914472771,22.596597868663803,2.722144644212914,2695,0,61.511207865616115,44.409159402774485,72.19685800967432,0.13442265052420285,0.09704893013179947,0.439453125,,
4.130035000000149,1400,,,,0.1875,0.50390625,-0.93359375,0.1573285880310937,5.969596914472771,22.596568687385183,2.723073419243343,2693,0,61.53211555872503,44.36135076867555,72.09462955379449,0.13456751904606173,0.09701595435599003,0.44140625,,
4.140530000000261,1400,,,,0.09375,0.099609375,-1.091796875,0.1573285880310937,5.969596914472771,22.596540609830164,2.7206416211079807,2691,0,61.47708887616066,44.34231845704714,72.12820136355226,0.1346252772113238,0.09710279103322406,0.439453125,,
4.148705000000074,1400,,,,-0.03125,-0.12890625,-0.90234375,0.1573285880310937,5.969596914472771,22.59625688692122,2.7231453621690567,2693,0,61.53289214400013,44.371891569069604,72.11085002347994,0.1345355517508298,0.09701472995130211,0.439453125,,
4.157575000000186,1400,,,,-0.125,0.17578125,-1.0390625,0.1573285880310937,6.064263734017765,22.59638590211545,2.720275177385604,2692,0,61.46838766815067,44.35246773102488,72.15492290194841,0.13672889118130777,0.09865662601656157,0.439453125,,
4.1652450000001116,1400,,,,0.1875,-0.01171875,-0.83984375,0.1573285880310937,6.064263734017765,22.59636707831022,2.723418048526132,2690,0,61.53935393219176,44.318742544423934,72.0169122887727,0.13683293762089724,0.09854285666859264,0.4375,,
4.174035000000149,1400,,,,-0.25,-0.0390625,-0.9296875,0.1573285880310937,6.064263734017765,22.596420325211117,2.719504347131187,2690,0,61.45106330401514,44.31410330087501,72.11283404754296,0.13684726266136638,0.09868443942159635,0.4375,,
4.182064999999944,1400,,,,0.03125,0.0625,-1.12890625,0.1559159612701891,6.064263734017765,22.596594725483605,2.7169645211758504,2690,0,61.39414616852831,43.919095863908865,71.53629230928622,0.13807806410243428,0.09877592755132102,0.439453125,,
4.190229999999981,1400,,,,-0.3125,-0.125,-0.609375,0.1559159612701891,6.064263734017765,22.596697508971214,2.714613076341805,2693,0,61.341290539993544,43.96732575703722,71.67655810627464,0.1379265995737106,0.09886103928745943,0.44140625,,
4.19825,1400,,,,0.125,0.1015625,-1.03515625,0.1559159612701891,6.064263734017765,22.596663438088147,2.712621381441446,2694,0,61.29619239139408,43.98606596158318,71.75986671524278,0.13786783613051937,0.09893377545045003,0.44140625,,
4.207479999999982,1400,,,,0,0.1015625,-0.953125,0.1559159612701891,6.064263734017765,22.596480846467927,2.7154970157129523,2692,0,61.36067630419854,43.946743132028196,71.62036955746719,0.13799119802345844,0.0988298059811773,0.439453125,,
4.217625,1400,,,,-0.125,0.169921875,-0.96875,0.1559159612701891,6.064263734017765,22.59630601111825,2.713185938030662,2689,0,61.307979720803765,43.90883564746,71.62009879859134,0.1381103289257584,0.09891475402768764,0.439453125,,
4.226929999999702,1400,,,,-0.09375,0.01171875,-1.09765625,0.1559159612701891,6.064263734017765,22.596527108272458,2.718363739000414,2689,0,61.425579918467726,43.902235223530205,71.47223564157333,0.13813109294188083,0.09872538024170176,0.443359375,,
4.233705000000074,1400,,,,0.09375,-0.099609375,-0.912109375,0.1559159612701891,6.064263734017765,22.59663215976758,2.7161766951839676,2690,0,61.37644566200527,43.922553861830906,71.56255691916175,0.13806719329423295,0.09880441378787454,0.443359375,,
4.2423450000002045,1400,,,,-0.125,0.484375,-1.03125,0.1559159612701891,6.064263734017765,22.596302948217026,2.7184398583170184,2693,0,61.426690585039516,43.97548515017585,71.590191057576,0.1379010081027728,0.09872359517109844,0.443359375,,
4.251350000000093,1400,,,,-0.03125,0.009765625,-1.009765625,0.1559159612701891,6.064263734017765,22.596066488328972,2.7119384116212846,2693,0,61.27914066124781,43.977754715840454,71.76627191779707,0.13789389142764635,0.09896130507999654,0.439453125,,
4.260274999999907,1400,,,,-0.5,-0.3125,-0.64453125,0.1559159612701891,6.064263734017765,22.59620814884568,2.7096292154294934,2690,0,61.22734575803825,43.920399888561654,71.73330698039535,0.13807396447674655,0.09904502079810665,0.44140625,,
4.26939000000013,1400,,,,0.375,0.197265625,-1.1171875,0.1559159612701891,6.064263734017765,22.596490935893733,2.7043070492337953,2688,0,61.10784972588498,43.88304733003228,71.81245539956159,0.13819149086001511,0.09923870273983759,0.44140625,,
4.278459999999963,1400,,,,-0.3125,-0.13671875,-0.869140625,0.1559159612701891,6.064263734017765,22.596463726656705,2.7040634017861622,2685,0,61.10227057304095,43.83660243867661,71.74300075522537,0.13833790477948454,0.09924776407070855,0.443359375,,
