Time (s),ESC signal (µs),Servo 1 (µs),Servo 2 (µs),Servo 3 (µs),AccX (g),AccY (g),AccZ (g),Torque (N·m),Thrust (N),Voltage (V),Current (A),Motor Electrical Speed (RPM),Motor Optical Speed (RPM),Electrical Power (W),Mechanical Power (W),Motor Efficiency (%),Propeller Mech. Efficiency (N/W),Overall Efficiency (N/W),Vibration (g),App message,90% settling time (s),Max acceleration (RPM/s),
0,1000,,,,-0.0625,0.048828125,-0.955078125,-0.0014052442330738846,0.013786943145721745,22.689157845642924,0.0533136019476672,0,0,1.209640729910397,0,0,0,0,0.060546875,,
0,1200,,,,-0.0625,0.048828125,-0.95703125,-0.0014052442330738846,0.013786943145721745,22.68944115086093,0.05409118803464624,0,0,1.2272988276922587,0,0,0,0,0.060546875,,
0.007065000000409782,1200,,,,-0.0625,0.046875,-0.955078125,-0.0014052442330738846,0.013786943145721745,22.689378441046685,0.05448801872659463,0,0,1.2362992773905443,0,0,0,0,0.060546875,,
0.015490000000223518,1200,,,,-0.0625,0.046875,-0.95703125,-0.0014052442330738846,0.013786943145721745,22.6895095803158,0.05427274043477451,0,0,1.231421864044809,0,0,0,0,0.060546875,,
0.023205000000074506,1200,,,,-0.0625,0.048828125,-0.95703125,-0.0014052442330738846,0.013786943145721745,22.689437518425716,0.05438833426746077,0,0,1.2340407120928034,0,0,0,0,0.060546875,,
0.03030500000016764,1200,,,,-0.0625,0.05078125,-0.95703125,-0.0014052442330738846,0.013786943145721745,22.68924089271305,0.06822214862723888,0,0,1.5479087644218958,0,0,0,0,0.060546875,,
0.038675000000279396,1200,,,,-0.1875,0.052734375,-0.896484375,-0.001278831798780547,0.013786943145721745,22.68804449326846,0.11060954862605951,0,0,2.5095143606083794,0,0,0,0,0.060546875,,
0.04684499999973923,1200,,,,0.25,0.14453125,-0.9140625,-0.001278831798780547,0.013786943145721745,22.68620998959254,0.16251570565729367,0,0,3.6868654251481767,0,0,0,0,0.064453125,,
0.05416000000014901,1200,,,,-0.125,0.060546875,-0.95703125,-0.001278831798780547,0.013786943145721745,22.684714579854585,0.2029696266315101,0,0,4.604308048515459,0,0,0,0,0.06640625,,
0.06254500000039115,1200,,,,0.1875,0.08984375,-1.20703125,-0.001278831798780547,0.013786943145721745,22.683296912413194,0.24548740305965208,0,0,5.568463651859339,0,0,0,0,0.0703125,,
0.0713249999997206,1200,,,,-0.125,0,-0.90625,-0.001278831798780547,0.006812243993233287,22.681807066923895,0.29132595634486874,0,0,6.607799135401406,0,0,0,0,0.072265625,,
0.07917499999981374,1200,,,,0,0.021484375,-1.0078125,-0.001278831798780547,0.006812243993233287,22.68034793358802,0.3291330105425698,0,0,7.464851195534778,0,0,0,0,0.07421875,,
0.09893500000005588,1200,,,,-0.125,0.0078125,-0.96875,-0.001278831798780547,0.006812243993233287,22.67830769332418,0.39886607982126,0,0,9.045607686616536,0,0,0,0,0.076171875,,
0.10825000000046567,1200,,,,-0.041015625,0.06640625,-0.947265625,-0.001278831798780547,0.006812243993233287,22.676724337338946,0.44622925123722396,0,0,10.119017721563692,0,0,0,0,0.078125,,
0.1193800000003539,1200,,,,0.125,-0.109375,-0.99609375,-0.001278831798780547,0.006812243993233287,22.6758456261082,0.48287538216380377,0,0,10.949607622594415,0,0,0,0,0.08203125,,
0.12721499999985098,1200,,,,-0.3125,0.1328125,-0.83203125,-0.001278831798780547,0.006812243993233287,22.67486002474702,0.5070840965806152,0,0,11.498060910740747,0,0,0,0,0.0859375,,
0.136,1200,,,,0,0.04296875,-1.001953125,-0.001278831798780547,0.006812243993233287,22.674329759415482,0.5234530260383146,0,0,11.868946525956643,0,0,0,0,0.087890625,,
0.14354000000003725,1200,,,,-0.25,0.125,-0.9609375,-0.001278831798780547,0.006812243993233287,22.67348707894367,0.5348109994118532,0,0,12.126030284841603,0,0,0,0,0.08984375,,
0.15083000000007452,1200,,,,0.1875,-0.044921875,-1.02734375,-0.001278831798780547,0.006812243993233287,22.673153968132006,0.5488681644401184,0,0,12.444572400556801,0,0,0,0,0.09375,,
0.1575449999999255,1200,,,,-0.375,0.125,-0.83984375,-0.001278831798780547,0.006812243993233287,22.672994810649048,0.5621795236650649,0,0,12.746293422711169,0,0,0,0,0.095703125,,
0.16452000000001862,1200,,,,0.09375,0.037109375,-1.0234375,-0.001278831798780547,0.006812243993233287,22.672611139668607,0.5625566410702136,0,0,12.75462796702308,0,0,0,0,0.09765625,,
0.17849500000011176,1200,,,,0.4375,-0.09375,-1.02734375,-0.001278831798780547,0.006812243993233287,22.672165842662096,0.5898312596445539,0,0,13.372752137847613,0,0,0,0,0.1015625,,
0.18710499999998137,1200,,,,-0.1875,0.0234375,-0.9453125,-0.0011686702161238507,0.006812243993233287,22.671946950925843,0.6020162150337941,0,0,13.648879690843344,0,0,0,0,0.1015625,,
0.21057000000029802,1200,,,,-0.03125,0.087890625,-1.005859375,-0.0011686702161238507,0.006812243993233287,22.671632868631775,0.6375086323469797,0,0,14.453361663154276,0,0,0,0,0.103515625,,
0.22264500000001863,1200,,,,0.03125,0.056640625,-0.962890625,-0.0011686702161238507,0.012786909058028012,22.671476744531997,0.6318101616132032,0,0,14.32406938597274,0,0,0,0,0.10546875,,
0.23003000000026078,1200,,,,-0.0625,0.015625,-1.009765625,-0.0011686702161238507,0.012786909058028012,22.671601705804296,0.6297691193705872,5,0,14.277874640985074,0.0005869572826437453,0.00411095696945585,0,0.0008955751034066933,0.109375,,
0.2385749999997206,1200,,,,-0.1875,0.0625,-0.71484375,-0.0011686702161238507,0.012786909058028012,22.67168656500505,0.6313556702071798,5,0,14.313897865975877,0.0005869572826437453,0.004100611085390948,0,0.0008933212446920194,0.111328125,,
0.2490649999999441,1200,,,,0.0625,-0.001953125,-1.005859375,-0.0011686702161238507,0.012786909058028012,22.671701905075643,0.6252296209488061,5,0,14.175019588374768,0.0005869572826437453,0.004140786395280338,0,0.0009020734665167465,0.111328125,,
0.25637999999988825,1200,,,,-0.03125,0.037109375,-1.021484375,-0.0011686702161238507,0.012786909058028012,22.671914697273476,0.6142794883895413,5,0,13.926892161052471,0.0005869572826437453,0.004214560404834701,0,0.0009181451906253355,0.111328125,,
0.2646450000004843,1200,,,,-0.09375,0.115234375,-0.9140625,-0.0011686702161238507,0.012786909058028012,22.672102006032585,0.6091622540111341,5,0,13.810988761165165,0.0005869572826437453,0.004249929478577221,0,0.000925850370248889,0.111328125,,
0.27345999999996273,1200,,,,0.0625,-0.03125,-1.14453125,-0.0011686702161238507,0.012786909058028012,22.672390710950744,0.5999932121613842,5,0,13.603280530041268,0.0005869572826437453,0.004314821570778594,0,0.0009399871619047778,0.11328125,,
0.2815650000004098,1200,,,,-0.0625,0.0546875,-0.93359375,-0.0011686702161238507,0.012786909058028012,22.6727625440079,0.5896633772827974,5,0,13.369297734030607,0.0005869572826437453,0.004390337430736447,0,0.0009564383494489643,0.11328125,,
0.2892299999999814,1200,,,,0,-0.01953125,-0.9609375,-0.0011686702161238507,0.012786909058028012,22.672988139955233,0.5809211900227284,5,0,13.171219251634,0.0005869572826437453,0.004456362554065967,0,0.0009708219727981288,0.111328125,,
0.2964350000000559,1200,,,,-0.0625,0.076171875,-0.978515625,-0.0011686702161238507,0.012786909058028012,22.673204575365375,0.5726234327320824,5,0,12.983208234982477,0.0005869572826437453,0.004520895544617577,0,0.0009848805338864128,0.11328125,,
0.30381000000005587,1200,,,,-0.09375,0.07421875,-0.984375,-0.0011686702161238507,0.012786909058028012,22.67353075213114,0.5634841460177822,5,0,12.776175113072538,0.0005869572826437453,0.004594154959907936,0,0.0010008401532430853,0.11328125,,
0.3105600000000559,1200,,,,-0.0625,0.08984375,-0.95703125,-0.0011686702161238507,0.012786909058028012,22.67386254020082,0.5554089597461244,281,0,12.593266406879554,0.034420735058992014,0.27332650598250163,0.37148855293511757,0.001015376681862513,0.111328125,,
0.31821500000031666,1200,,,,-0.0625,-0.046875,-1.00390625,-0.0011686702161238507,0.012786909058028012,22.674220991099382,0.5443398268696752,406,0,12.342481528699793,0.04964899207426012,0.4022610198671316,0.25754619628335257,0.0010360079557984185,0.111328125,,
0.3275950000002049,1200,,,,-0.0625,0.05859375,-0.98046875,-0.0011686702161238507,0.012786909058028012,22.67430837425162,0.5354198461624508,462,0,12.14027470158177,0.05658947603967668,0.4661301118030185,0.22595913503533244,0.0010532635687693288,0.111328125,,
0.334875,1200,,,,-0.0625,0.09765625,-1.013671875,0.043112730088191324,0.012786909058028012,22.674472258428807,0.52407154528691,486,0,11.883045715039957,2.1937804969268178,18.461432780236013,0.005828709424639657,0.0010760632723851315,0.111328125,,
0.34344499999983236,1200,,,,-0.03125,0.001953125,-1.01171875,0.043112730088191324,0.012786909058028012,22.674745679856635,0.514156920474878,494,0,11.658377411306132,2.2305674279316854,19.132743341869446,0.005732581269638997,0.00109680006118411,0.111328125,,
0.35172500000009316,1200,,,,0,0.046875,-0.8828125,0.043112730088191324,0.012786909058028012,22.67506945128207,0.5038356210650146,497,0,11.42450769967904,2.244944948644232,19.65025546533879,0.005695867538199673,0.0011192525222235394,0.111328125,,
0.3602450000001118,1200,,,,-0.0625,0.103515625,-1.025390625,0.043112730088191324,0.012786909058028012,22.67542352140478,0.4925484524917221,499,0,11.16874476506232,2.2510132162762,20.15457657621241,0.00568051265340019,0.0011448832726509766,0.111328125,,
0.3687050000000745,1200,,,,-0.0625,0.060546875,-0.998046875,0.043112730088191324,0.0733065666186287,22.675741980001064,0.4834295441322193,499,0,10.962123608251742,2.2529785474191053,20.552391379013233,0.03253762300693226,0.006687259625812571,0.111328125,,
0.3766899999999441,1200,,,,-0.0625,0.08984375,-0.99609375,0.043112730088191324,0.0733065666186287,22.676083960014736,0.471468000649292,499,0,10.691047967183628,2.2537701786822577,21.080909800425996,0.03252619424642926,0.006856817670601103,0.111328125,,
0.38435499999998135,1200,,,,-0.0625,0.0234375,-0.962890625,0.043112730088191324,0.0733065666186287,22.6764635275874,0.46281993211133376,560,0,10.495119310363137,2.528452012791113,24.09169384377039,0.028992666757280825,0.006984824512308689,0.109375,,
0.39179999999981374,1200,,,,0,0.00390625,-1.11328125,0.043112730088191324,0.0733065666186287,22.676734215962703,0.45295395885140566,583,0,10.271516536941434,2.6331686694387404,25.635636762775672,0.027839677522159635,0.00713687860550895,0.111328125,,
0.4017700000000186,1200,,,,-0.0625,0.025390625,-0.98046875,0.043112730088191324,0.0733065666186287,22.676989688440635,0.44446991183013024,594,0,10.079239607393982,2.6812100127455625,26.601312372598684,0.02734085217873802,0.007273025493396554,0.111328125,,
0.41024000000022354,1200,,,,-0.09375,0.04296875,-0.96875,0.043112730088191324,0.0733065666186287,22.677465459124047,0.430419621818198,599,0,9.76082610671142,2.703567012264466,27.69813725505803,0.02711475849723002,0.007510283024940279,0.111328125,,
0.4184850000003353,1200,,,,-0.03125,0.009765625,-0.96875,0.043112730088191324,0.0733065666186287,22.677781535845924,0.4213198773344063,600,0,9.554600134899069,2.709221748381168,28.35515573786791,0.0270581640880564,0.0076723845669762385,0.109375,,
0.4273349999999628,1200,,,,-0.0625,0.0234375,-0.9453125,0.043112730088191324,0.0733065666186287,22.677976561366748,0.41238564582078924,601,0,9.352072010167948,2.711628741710425,28.994951479867066,0.027034145748281467,0.007838537442710755,0.109375,,
0.43547500000009315,1200,,,,-0.0625,0.08203125,-0.919921875,0.043112730088191324,0.0733065666186287,22.675196866497135,0.4735609334461778,601,0,10.73808739417423,2.712445265118688,25.260040876462604,0.027026007699152976,0.006826780592081971,0.109375,,
0.44456000000005585,1200,,,,-0.09375,-0.060546875,-0.990234375,0.043112730088191324,0.0733065666186287,22.67232202267533,0.5383277930870736,625,0,12.205141078626268,2.822343739085653,23.124220530544807,0.025973649348033572,0.006006203955069696,0.111328125,,
0.4537549999998882,1200,,,,0,-0.013671875,-1.18359375,0.043112730088191324,0.0733065666186287,22.669011323086746,0.6585840962855551,663,0,14.929450335902102,2.994594159780676,20.05830149405651,0.024479633201447793,0.0049101986321855575,0.11328125,,
0.46256000000005587,1200,,,,-0.15625,-0.005859375,-1.017578125,0.043112730088191324,0.0733065666186287,22.666995758180747,0.7498329053830181,675,0,16.996459285661217,3.047181151912956,17.92832907547786,0.024057173815415726,0.004313049287887423,0.12109375,,
0.47135499999998137,1200,,,,-0.125,0.0234375,-0.83203125,0.043112730088191324,0.0733065666186287,22.66435516110632,0.8013371580407175,679,0,18.161789953626407,3.0662104587825043,16.88275476487529,0.023907871818993284,0.004036307368701366,0.123046875,,
0.47962999999988826,1200,,,,-0.0625,0.060546875,-1.146484375,0.043112730088191324,0.0733065666186287,22.66302274665569,0.8622500684537171,681,0,19.541192914672017,3.0727182766972088,15.724312687124312,0.023857236497914207,0.0037513864654387754,0.125,,
0.48767499999981373,1200,,,,0,0.14453125,-0.875,0.08110357204949785,0.0733065666186287,22.661391440119345,0.8906383219475734,681,0,20.183103645225,5.785203467083933,28.663596881704663,0.012671389526007338,0.003632076013045291,0.126953125,,
0.495464999999851,1200,,,,0.03125,0.013671875,-1.009765625,0.08110357204949785,0.0733065666186287,22.660341767447886,0.931796519996815,785,0,21.114827600846414,6.669448443256682,31.586563571986392,0.010991398650475692,0.003471805122182959,0.126953125,,
0.5037400000002236,1200,,,,-0.0625,0.12109375,-1.04296875,0.08110357204949785,0.0733065666186287,22.659216875635526,0.9686949371956721,826,0,21.949868668246868,7.017424782873335,31.970235853961558,0.010446363001644143,0.003339726889786611,0.126953125,,
0.5117599999997765,1200,,,,-0.0625,0.109375,-1.01953125,0.08110357204949785,0.0733065666186287,22.658070015333195,0.9921463248959799,843,0,22.480120894948627,7.15579439311777,31.83165440505129,0.010244364579442469,0.0032609507289216126,0.126953125,,
0.5195749999997206,1200,,,,-0.125,0.12890625,-1.03125,0.08110357204949785,0.19677743084898694,22.657388526844105,1.0053870391816135,849,0,22.779444766591254,7.209495604317563,31.64912787905673,0.02729420220897874,0.00863837696068801,0.126953125,,
0.527785000000149,1200,,,,-0.03125,0.087890625,-1.001953125,0.08110357204949785,0.19677743084898694,22.65682523705196,1.024004063134155,851,0,23.200681100461672,7.231136301048349,31.167775936131704,0.027212518566474636,0.008481536813377055,0.126953125,,
0.5353599999998696,1200,,,,-0.03125,-0.13671875,-0.931640625,0.08110357204949785,0.19677743084898694,22.65625894146332,1.0381492086469504,903,0,23.52057729098054,7.667396785950912,32.59867600652445,0.02566417733976481,0.008366182020729796,0.12890625,,
0.5435400000000372,1200,,,,-0.25,0.125,-0.984375,0.08110357204949785,0.19677743084898694,22.655666197737773,1.0486162140843704,973,0,23.757098915831026,8.260878059649936,34.7722509760867,0.02382040134572881,0.008282889739447956,0.12890625,,
0.5539700000002049,1200,,,,0.03125,0.001953125,-0.9375,0.08110357204949785,0.19677743084898694,22.655099584563864,1.064617700487264,1001,0,24.119020024028348,8.498242743852405,35.23461042524161,0.02315507296980131,0.008158599754589916,0.130859375,,
0.5622700000000186,1200,,,,0.03125,0.078125,-1.0078125,0.08110357204949785,0.19677743084898694,22.65425805497525,1.0930620842097218,1014,0,24.762510525796127,8.608428902190663,34.76395857852502,0.022858692693496163,0.007946586459559332,0.130859375,,
0.5718250000001862,1200,,,,0.03125,0.255859375,-0.953125,0.08110357204949785,0.19677743084898694,22.653441803205418,1.1050409968229074,1017,0,25.032981911683834,8.637514997732099,34.50453896465545,0.022781717994197825,0.00786072676212591,0.130859375,,
0.5796850000000559,1200,,,,0,0.07421875,-0.830078125,0.08110357204949785,0.19677743084898694,22.6536613567978,1.1000140243273393,1095,0,24.919345194839885,9.300637562092898,37.32296129522218,0.021157413084346297,0.007896573096540842,0.130859375,,
0.5871000000000931,1200,,,,0.0625,0,-0.8203125,0.08110357204949785,0.19677743084898694,22.653762187387485,1.097835958688989,1119,0,24.87011472890291,9.50150383450258,38.20450342941268,0.020710135392929468,0.007912204386427748,0.1328125,,
0.595429999999702,1200,,,,-0.15625,0.064453125,-1.07421875,0.08110357204949785,0.19677743084898694,22.65397323085581,1.0939721256995059,1130,0,24.782815250899034,9.59638704583284,38.721940783078374,0.02050536622889091,0.007940075768504489,0.1328125,,
0.6034700000002049,1200,,,,0.09375,0.05859375,-0.962890625,0.08110357204949785,0.19677743084898694,22.65413861732069,1.0875729677724693,1134,0,24.638028768368365,9.633153375909401,39.09871794726112,0.02042710451814129,0.007986735980340297,0.1328125,,
0.611785000000149,1200,,,,-0.3125,0.0625,-0.875,0.08110357204949785,0.19677743084898694,22.654362128906854,1.0808237761339166,1187,0,24.485373222070297,10.081561612930976,41.17381230621305,0.019518546670050905,0.008036529770827357,0.134765625,,
0.6209250000002794,1200,,,,0,-0.056640625,-1.087890625,0.08110357204949785,0.19677743084898694,22.654676794821587,1.0723529872327011,1209,0,24.293810335718284,10.268860111588943,42.26945040601976,0.0191625388515044,0.008099899856370921,0.134765625,,
0.6288250000001863,1200,,,,0,0.076171875,-0.869140625,0.08110357204949785,0.19677743084898694,22.6550691948374,1.0631925902524544,1216,0,24.08670169960776,10.330923228473992,42.89056823683845,0.019047419722046804,0.008169546553241508,0.13671875,,
0.6368799999998882,1200,,,,-0.125,0.16796875,-0.859375,0.08755515835750946,0.19677743084898694,22.65557233827321,1.0568284764924298,1219,0,23.94305399832131,11.179123039366823,46.69046413273182,0.01760222426714898,0.00821856020801621,0.138671875,,
0.6448449999997392,1200,,,,0.03125,0.0703125,-0.97265625,0.08755515835750946,0.19677743084898694,22.655878189656672,1.0457945275351823,1252,0,23.69339342724664,11.47889927417478,48.447679347502906,0.017142534850157334,0.008305160316238163,0.138671875,,
0.6529799999999814,1200,,,,0,0.0625,-1.0703125,0.08755515835750946,0.19677743084898694,22.656282639239254,1.0354456672375043,1266,0,23.459349694508575,11.603098809606012,49.46044524125106,0.01695904120768826,0.008388017289969855,0.138671875,,
0.6608349999999628,1200,,,,-0.03125,-0.064453125,-0.95703125,0.08755515835750946,0.19677743084898694,22.656769440054745,1.0258745898157093,1271,0,23.24300405586526,11.653388155568775,50.137185914348706,0.016885855703257718,0.008466092867170975,0.138671875,,
0.6704950000001118,1200,,,,-0.0625,0.017578125,-0.978515625,0.08755515835750946,0.4942377125284014,22.657135122287443,1.011771412449139,1273,0,22.923841604727762,11.671175355190234,50.9128249812335,0.04234686717380278,0.02155998636923363,0.138671875,,
0.6783149999999442,1200,,,,-0.0625,0.021484375,-0.951171875,0.08755515835750946,0.4942377125284014,22.657435802816615,0.9974899317405908,1284,0,22.600564092368362,11.770428483855024,52.0802420494876,0.04198978084836295,0.02186837950187681,0.138671875,,
0.6873900000001304,1200,,,,-0.1875,0.046875,-0.96875,0.08755515835750946,0.4942377125284014,22.657660860507768,0.9867329383034633,1292,0,22.357060275972206,11.848371402016845,52.996106177477365,0.04171355672090694,0.022106560810214088,0.138671875,,
0.6961450000000187,1200,,,,-0.0625,0.146484375,-1.02734375,0.08755515835750946,0.4942377125284014,22.65800485749055,0.9770121648010193,1296,0,22.13714637588885,11.880533665876566,53.66786425018405,0.041600632297180196,0.02232617086846889,0.138671875,,
0.7050150000001304,1200,,,,0.03125,0.025390625,-1.01171875,0.08755515835750946,0.4942377125284014,22.65836455293245,0.9636994539976071,1308,0,21.835853548139738,11.988481003042398,54.90273589082454,0.04122604960569861,0.022634229133237017,0.138671875,,
0.7122199999997393,1200,,,,-0.125,0.1015625,-1.01171875,0.08755515835750946,0.4942377125284014,22.658754075796278,0.9526634730729929,1335,0,21.586167353354917,12.24084742535467,56.70690505163808,0.040376102679351975,0.022896038209932024,0.140625,,
0.72,1200,,,,0,0,-0.95703125,0.08755515835750946,0.4942377125284014,22.659060382083215,0.9457500271975561,1343,0,21.429806972626267,12.317575732126498,57.47870593449845,0.04012459296185521,0.023063096795959217,0.138671875,,
0.7277050000000745,1200,,,,-0.0625,0,-0.958984375,0.08755515835750946,0.4942377125284014,22.65930624614577,0.9368273700810317,1347,0,21.227858278437438,12.35481743920774,58.20096062991601,0.040003643514791964,0.02328250481257602,0.138671875,,
0.7357849999996834,1200,,,,0.1875,0.0546875,-0.97265625,0.08755515835750946,0.4942377125284014,22.659601898911834,0.9239954175855168,1349,0,20.93736831890661,12.369225013038214,59.07726713614101,0.039957047592507434,0.02360553174594062,0.138671875,,
0.7459700000002049,1200,,,,-0.09375,0.072265625,-0.919921875,0.08755515835750946,0.4942377125284014,22.65985467066048,0.9115638531968577,1366,0,20.65590443646808,12.528481670549573,60.65327087992569,0.039449130830449715,0.02392718818236895,0.140625,,
0.7550099999997765,1200,,,,-0.03125,0.091796875,-0.908203125,0.08755515835750946,0.4942377125284014,22.66038068160896,0.8992792204438614,1372,0,20.378009474318443,12.583380170158526,61.749800371900086,0.03927702301329858,0.024253483302737126,0.140625,,
0.7637450000001118,1200,,,,0.03125,-0.05859375,-0.98046875,0.08755515835750946,0.4942377125284014,22.6610911338125,0.8874642239404823,1374,0,20.110907656713454,12.601869890003647,62.661865417083106,0.039219394966175006,0.024575604491098847,0.142578125,,
0.7732900000000372,1200,,,,-0.0625,-0.02734375,-0.935546875,0.08755515835750946,0.4942377125284014,22.661349979219352,0.8787513934511644,1385,0,19.91369287172352,12.695914172249072,63.754695093629046,0.038928879466491186,0.02481898840722782,0.142578125,,
0.7815049999998882,1200,,,,0,0.24609375,-1.046875,0.08755515835750946,0.4942377125284014,22.661549444183347,0.8749703828734373,1392,0,19.828184593682433,12.76341976149795,64.37008744393358,0.0387229850435003,0.02492601933340247,0.14453125,,
0.7908300000000745,1200,,,,-0.09375,0.103515625,-1.05859375,0.09010635744103543,0.4942377125284014,22.661792109273954,0.8669217378376142,1395,0,19.646000197886508,13.163483371954008,67.00337595115224,0.03754611895369728,0.025157167237612615,0.14453125,,
0.7990100000002421,1200,,,,-0.15625,0.125,-0.97265625,0.09010635744103543,0.4942377125284014,22.6622980515869,0.8550480381184362,1402,0,19.37735348826464,13.224547223152022,68.24743756241587,0.037372751156511924,0.025505945010897535,0.146484375,,
0.8068300000000745,1200,,,,0,-0.001953125,-0.9765625,0.09010635744103543,0.4942377125284014,22.66257604611827,0.8431143506283467,1409,0,19.10714308668853,13.29916357264139,69.60309823558387,0.03716306742366349,0.025866646326248764,0.1484375,,
0.8141999999997206,1200,,,,-0.125,0.0078125,-0.92578125,0.09010635744103543,0.9588594121117947,22.66277528724915,0.8311277044547682,1413,0,18.83566040106564,13.328735859544654,70.76330521859788,0.07193926132350799,0.05090659906235869,0.1484375,,
0.8218150000004097,1200,,,,-0.0625,0.173828125,-1.048828125,0.09010635744103543,0.9588594121117947,22.663264597854845,0.8217687266603182,1414,0,18.623962090545042,13.33976432514856,71.62688723427358,0.07187978653446836,0.05148525364528022,0.150390625,,
0.8299350000000559,1200,,,,0.0625,-0.04296875,-0.98828125,0.09010635744103543,0.9588594121117947,22.663693050467415,0.8120252652093523,1419,0,18.403491359929156,13.391518294815498,72.76618350783983,0.07160199396382226,0.052102038322987314,0.15234375,,
0.8392349999998696,1200,,,,-0.0625,0.060546875,-0.986328125,0.09010635744103543,0.9588594121117947,22.664095931979546,0.8032822677187581,1424,0,18.20566637603601,13.434968505299,73.79553281819639,0.07137042500200896,0.05266818540484377,0.15234375,,
0.846855000000447,1200,,,,0.03125,-0.001953125,-0.984375,0.09010635744103543,0.9588594121117947,22.664330686195992,0.7914072102274375,1426,0,17.936714720034477,13.454205233159385,75.00930601372427,0.07126838007113041,0.05345791729857828,0.15234375,,
0.8558899999996648,1200,,,,-0.125,0.01953125,-0.85546875,0.09010635744103543,0.9588594121117947,22.664777257306792,0.783203897826544,1426,0,17.751141891293088,13.459574119601372,75.82370870576656,0.07123995184330491,0.05401677356779589,0.15234375,,
0.8752900000000372,1200,,,,-0.15625,0.140625,-1.015625,0.09010635744103543,0.9588594121117947,22.665784541246587,0.7605072810166116,1434,0,17.23749417357179,13.52915762314528,78.48680026756985,0.07087354873236207,0.0556263806361078,0.154296875,,
0.8842650000001304,1200,,,,-0.15625,0.107421875,-0.982421875,0.09010635744103543,0.9588594121117947,22.666162553724114,0.751362413949189,1434,0,17.030502611330864,13.534860954178946,79.47423081438495,0.07084368397709641,0.05630247292137104,0.15625,,
0.8926850000000559,1200,,,,0.0625,0.0234375,-0.947265625,0.09010635744103543,0.9588594121117947,22.666548083982093,0.7456932557672479,1437,0,16.902292037749483,13.560093884446792,80.22636133704088,0.07071185644308783,0.05672954945816127,0.16015625,,
0.9010499999998137,1200,,,,0.09375,-0.03515625,-0.951171875,0.09010635744103543,0.9588594121117947,22.666684650300994,0.7426626359794641,1439,0,16.833699771307796,13.581766823956654,80.68200697689821,0.07059901885669827,0.056960705319582985,0.162109375,,
0.9099249999998137,1200,,,,-0.375,0.2578125,-0.9609375,0.09010635744103543,0.9588594121117947,22.66682974485094,0.738731907480315,1440,0,16.744710373945278,13.590816690822129,81.16483586344617,0.07055200831009016,0.057263421743249575,0.1640625,,
0.9186850000000559,1200,,,,0.125,0.03125,-1.060546875,0.09010635744103543,0.9588594121117947,22.667111319728857,0.7267612991079988,1443,0,16.47357926975177,13.612475051016698,82.63216407384803,0.0704397553360569,0.05820589420250765,0.1640625,,
0.9258249999997206,1200,,,,-0.125,0.083984375,-0.8984375,0.09010635744103543,0.9588594121117947,22.6674130572121,0.718803762251067,1447,0,16.29342178602302,13.652223881110782,83.7897898943613,0.07023466802639186,0.058849480772315894,0.16796875,,
0.9334650000003166,1200,,,,-0.0625,0.08984375,-0.9765625,0.09010635744103543,0.9588594121117947,22.667635591187814,0.7110035494435035,1449,0,16.116769362826425,13.670376341224557,84.82082254496667,0.0701414056334533,0.059494517202896675,0.166015625,,
0.9419899999997579,1200,,,,-0.03125,-0.083984375,-0.98046875,0.08111143228780221,0.9588594121117947,22.66785224790047,0.7042739487175962,1450,0,15.964377811575902,12.31230446153832,77.123609869785,0.07787814337333186,0.060062435469080286,0.16796875,,
0.9505500000002794,1200,,,,-0.125,0.15625,-1.009765625,0.08111143228780221,0.9588594121117947,22.668079663469552,0.6973221150410641,1451,0,15.80695325484992,12.32857714021178,77.99464540346573,0.07777535081354274,0.060660609078324164,0.16796875,,
0.9588250000001862,1200,,,,0.03125,0.0703125,-1.01953125,0.08111143228780221,0.9588594121117947,22.66827147927944,0.6915743490658484,1453,0,15.676795092730615,12.340483177697054,78.71815064687156,0.07770031353753964,0.061164249863572,0.16796875,,
0.9670249999999069,1200,,,,-0.3125,0.0859375,-0.94140625,0.08111143228780221,1.2404487772677097,22.668653075259567,0.6856220879349014,1453,0,15.542129252131389,12.345219873537776,79.43068593284796,0.10048008783761206,0.07981202299534342,0.16796875,,
0.9747350000003353,1200,,,,0,0.0703125,-0.98828125,0.08111143228780221,1.2404487772677097,22.668816654856105,0.6795977006777117,1454,0,15.405675675724826,12.347067551118375,80.14622539778642,0.10046505148952167,0.08051894661279423,0.169921875,,
0.9831150000002236,1200,,,,-0.125,-0.23828125,-0.890625,0.08111143228780221,1.2404487772677097,22.668907709188357,0.6736192965368665,1455,0,15.27021366432261,12.358996334827726,80.93532026800212,0.10036808359365863,0.08123322990338372,0.171875,,
0.990625,1200,,,,-0.0625,0.16796875,-1.033203125,0.08111143228780221,1.2404487772677097,22.668960689227386,0.6664451028040943,1456,0,15.107617836994118,12.363650863756925,81.83719628836505,0.10033029814065587,0.08210750302607042,0.171875,,
0.998410000000149,1200,,,,0.09375,-0.013671875,-1.029296875,0.08111143228780221,1.2404487772677097,22.669309098453194,0.659946072262394,1456,0,14.960521500426337,12.365528088336557,82.65439201423675,0.10031506688644612,0.08291480863366697,0.173828125,,
1.0082750000003726,1200,,,,-0.5,0.20703125,-0.75390625,0.08111143228780221,1.2404487772677097,22.66960100242381,0.6544571755929823,1457,0,14.836283043866128,12.377047244499192,83.42417846777548,0.10022170496432502,0.0836091340128859,0.17578125,,
1.0165600000000559,1200,,,,0.0625,-0.01171875,-1.025390625,0.08111143228780221,1.2404487772677097,22.669757673533603,0.6474568719790652,1459,0,14.677690391829477,12.389742361797232,84.41207050323216,0.10011901305490688,0.08451253188704821,0.177734375,,
1.0250449999999256,1200,,,,-0.03125,-0.05078125,-0.984375,0.08111143228780221,1.2404487772677097,22.669769859348577,0.6429945115321657,1459,0,14.57653759725845,12.393180215264339,85.02142660816273,0.10009124015963902,0.08509900029352738,0.1796875,,
1.033035000000149,1200,,,,-0.15625,0.1953125,-1.0078125,0.08111143228780221,1.2404487772677097,22.669814371842257,0.6381345129531395,1459,0,14.46639095291364,12.394515076580745,85.67800439600587,0.10008046055884183,0.08574694139714743,0.1796875,,
1.0409250000002794,1200,,,,0.125,-0.11328125,-1.0078125,0.08111143228780221,1.2404487772677097,22.669920325704112,0.6340467552169217,1460,0,14.373789423538833,12.398075940103784,86.25474865939265,0.10005171635182984,0.08629935646867928,0.1796875,,
1.049035000000149,1200,,,,-0.125,0.041015625,-0.93359375,0.08111143228780221,1.2404487772677097,22.670023418022094,0.6291462066019144,1460,0,14.262759237025167,12.399514637819651,86.93629634882528,0.10004010749616182,0.08697116432054662,0.1796875,,
1.0568950000000186,1200,,,,0.1875,0.00390625,-0.953125,0.08111143228780221,1.2404487772677097,22.670252556481806,0.6240323012867014,1460,0,14.146969873572067,12.40007554976959,87.65181279514952,0.10003558222600983,0.08768300126128002,0.1796875,,
1.0650150000001304,1200,,,,-0.09375,-0.0859375,-0.94921875,0.08111143228780221,1.2404487772677097,22.6703376208096,0.6201832587347668,1460,0,14.059763862291078,12.403696215639918,88.22122716375908,0.10000638162224727,0.08822685710921856,0.181640625,,
1.0740049999998882,1200,,,,-0.09375,0.18359375,-0.99609375,0.08111143228780221,1.2404487772677097,22.67042899921828,0.615460464781776,1461,0,13.952752768661135,12.412451952861089,88.9605955087252,0.0999358371721056,0.0889035158749351,0.181640625,,
1.082185000000056,1200,,,,0.125,0.00390625,-1.0390625,0.08111143228780221,1.2404487772677097,22.670507591503252,0.6107510872884276,1462,0,13.846037160891164,12.415450868232439,89.66790081497477,0.09991169796673763,0.08958872223537147,0.181640625,,
1.0908549999999815,1200,,,,-0.1875,0.1015625,-0.97265625,0.06780562176850483,1.2404487772677097,22.67058913909636,0.6078684006997911,1462,0,13.780734762904558,10.379795196895966,75.32105780626912,0.11950609368850176,0.09001325390913055,0.181640625,,
1.0977349999998696,1200,,,,0.03125,0.03515625,-0.982421875,0.06780562176850483,1.2404487772677097,22.670733309788517,0.6050720941302558,1462,0,13.717428079222282,10.384065774471706,75.69980111796902,0.11945694530530053,0.09042867001771354,0.185546875,,
1.105445000000298,1200,,,,-0.1875,-0.234375,-0.81640625,0.06780562176850483,1.2404487772677097,22.670858219507075,0.6010416525700413,1463,0,13.626130089433635,10.386095370337472,76.22190087845524,0.11943360166039033,0.09103456147315182,0.1875,,
1.1121099999998696,1200,,,,-0.03125,0.154296875,-1.0390625,0.06780562176850483,1.2404487772677097,22.670995264460196,0.6005834090699207,1463,0,13.615823622937533,10.386868122945735,76.28527227282656,0.11942471614975277,0.09110346987588917,0.1875,,
1.1194199999999255,1200,,,,0,-0.00390625,-0.9765625,0.06780562176850483,1.5024168263882647,22.670952770030663,0.6001542178192931,1463,0,13.60606792691589,10.387198151613324,76.34239522694936,0.14464120203145556,0.11042255811586413,0.1875,,
1.1284449999998323,1200,,,,-0.125,0.07421875,-0.931640625,0.06780562176850483,1.5024168263882647,22.671010702816133,0.5971079846901596,1463,0,13.53704151164758,10.39010061370766,76.75311185806574,0.14460079668584983,0.11098561122794451,0.19140625,,
1.1358349999999628,1200,,,,0.09375,-0.015625,-1.017578125,0.06780562176850483,1.5024168263882647,22.671143877263113,0.5915981363476137,1463,0,13.412206466657471,10.391025857338413,77.47439530677026,0.14458792105951876,0.11201861752749248,0.193359375,,
1.143774999999907,1200,,,,-0.3125,-0.0390625,-0.85546875,0.06780562176850483,1.5024168263882647,22.671056162640703,0.5869183202589721,1463,0,13.306058201473897,10.391439297514319,78.09554971256078,0.14458216839583038,0.11291223919506406,0.1953125,,
1.1512250000000932,1200,,,,0,0.14453125,-1.052734375,0.06780562176850483,1.5024168263882647,22.671268883586777,0.5851124060617524,1463,0,13.265240684948399,10.391593260792128,78.33701255479745,0.14458002624649868,0.11325967331244913,0.197265625,,
1.1604900000002236,1200,,,,-0.0625,0.03125,-1.01953125,0.06780562176850483,1.5024168263882647,22.671501929097303,0.5834570395170537,1465,0,13.227847396956285,10.403744748174121,78.65032333656958,0.14441115797770238,0.11357984268354723,0.19921875,,
1.1681000000000932,1200,,,,0,0.068359375,-0.958984375,0.06780562176850483,1.5024168263882647,22.67175693264187,0.5811512927464965,1466,0,13.175720850239166,10.408875234229294,79.00042322193211,0.14433997839147972,0.11402919380771434,0.201171875,,
1.1760400000000373,1200,,,,0.0625,-0.0703125,-0.99609375,0.06780562176850483,1.5024168263882647,22.671956428995912,0.5779222284601978,1466,0,13.102627582997826,10.410500764073433,79.45353478246044,0.14431744067231567,0.11466530792173504,0.201171875,,
1.1843600000003354,1200,,,,-0.15625,-0.033203125,-0.97265625,0.06780562176850483,1.5024168263882647,22.672088733169304,0.5751473731838661,1466,0,13.039792279473852,10.409457831029377,79.82840223164499,0.14433189996790569,0.11521784965495527,0.203125,,
1.1922000000001862,1200,,,,0,0.37109375,-1.0546875,0.06780562176850483,1.5024168263882647,22.6722822168574,0.5734938393976887,1466,0,13.002414176453492,10.409042304545222,80.05468956215304,0.14433766166290032,0.11554906696550565,0.205078125,,
1.2011049999999814,1200,,,,-0.0625,0.009765625,-0.99609375,0.06780562176850483,1.5024168263882647,22.672266924535872,0.5728833339904215,1466,0,12.988563864848869,10.40887081122361,80.13873527152052,0.14434003972537043,0.11567228232632218,0.205078125,,
1.2083000000002795,1200,,,,0.1875,0.109375,-0.97265625,0.06780562176850483,1.5024168263882647,22.67238256936121,0.5732116336689734,1466,0,12.996073451751498,10.409668271630276,80.09856446469492,0.14432898217158735,0.11560544282594694,0.203125,,
1.2157800000002608,1200,,,,-0.09375,0.025390625,-0.978515625,0.06780562176850483,1.5024168263882647,22.672277863063677,0.5725422315726023,1466,0,12.98083656255259,10.411595477299217,80.2074306006966,0.14430226660880544,0.1157411403454898,0.20703125,,
1.224070000000298,1200,,,,-0.25,0.037109375,-0.91796875,0.06780562176850483,1.5024168263882647,22.672461436712673,0.5713431897999957,1466,0,12.953756437868812,10.412477691149995,80.38191655904782,0.14429004036812795,0.11598309985172504,0.208984375,,
1.2320500000002794,1200,,,,0.375,0.109375,-1.109375,0.06780562176850483,1.5024168263882647,22.67256909449414,0.568785203020144,1466,0,12.895821815400092,10.412821710363534,80.74570088994733,0.14428527330809468,0.11650415521359715,0.2109375,,
1.2401850000000558,1200,,,,-0.21875,0.142578125,-0.99609375,0.05671043709696151,1.5024168263882647,22.672738204648894,0.5658469736634,1467,0,12.829300297763126,8.711597620978907,67.90391852077725,0.17246168748315543,0.11710824374811937,0.212890625,,
1.2480750000001863,1200,,,,0.3125,-0.0546875,-1.03515625,0.05671043709696151,1.5024168263882647,22.67289732489221,0.5643004985952554,1468,0,12.794327265035708,8.71515515355129,68.11733804377535,0.1723912884988689,0.11742835674479453,0.212890625,,
1.2560250000003725,1200,,,,-0.09375,0,-0.958984375,0.05671043709696151,1.5024168263882647,22.672853227094627,0.5598267836649223,1468,0,12.69287049863124,8.716571255471809,68.67297083360124,0.17236328165677822,0.1183669861399973,0.216796875,,
1.2640200000000186,1200,,,,-0.1875,0.1640625,-0.8515625,0.05671043709696151,1.6061949536445548,22.67294170976383,0.5577262178819576,1468,0,12.645294028044667,8.717125990896237,68.93573191389177,0.1842573980600935,0.12701918595821846,0.21875,,
1.2718650000002236,1200,,,,0.0625,-0.080078125,-1.009765625,0.05671043709696151,1.6061949536445548,22.67299385356933,0.5590234902311995,1467,0,12.67473615801286,8.712999192408454,68.74304193622342,0.18434466917476774,0.1267241332380029,0.220703125,,
1.2799300000001677,1200,,,,-0.1875,0.158203125,-0.98046875,0.05671043709696151,1.6061949536445548,22.67301056161356,0.5574819591094533,1467,0,12.639794346797652,8.711382612258166,68.92028757149228,0.18437887820291674,0.1270744530785417,0.22265625,,
1.2881750000002794,1200,,,,-0.09375,0.09375,-0.978515625,0.05671043709696151,1.6061949536445548,22.673156397883904,0.5567125248346634,1467,0,12.62243014423715,8.710747061267835,69.01006352762255,0.18439233080093315,0.12724926462578787,0.22265625,,
1.2964150000000372,1200,,,,0.0625,-0.15625,-1.03515625,0.05671043709696151,1.6061949536445548,22.673165267777836,0.5554774372174515,1467,0,12.594431736552965,8.710492432237608,69.1614565423944,0.1843977210404332,0.12753214970254487,0.224609375,,
1.3050449999999254,1200,,,,-0.09375,0.048828125,-0.8984375,0.05671043709696151,1.6061949536445548,22.67332001864485,0.552416672535645,1467,0,12.525120000035617,8.711151070980542,69.54944200898491,0.18438377896983926,0.12823788942860326,0.22265625,,
1.3158600000003353,1200,,,,0.03125,0.033203125,-1.01171875,0.05671043709696151,1.6061949536445548,22.673451481812435,0.5510936664269429,1467,0,12.495195507665416,8.711375997435082,69.71780467213115,0.1843790182076255,0.1285450037703855,0.224609375,,
1.3246650000000373,1200,,,,0,0.0546875,-1.04296875,0.05671043709696151,1.6061949536445548,22.67334681215665,0.5485379533126984,1467,0,12.437191255089404,8.711481558154526,70.04380152624664,0.1843767840088061,0.12914450865160462,0.22265625,,
1.332970000000205,1200,,,,0.0625,0.01953125,-0.8984375,0.05671043709696151,1.6061949536445548,22.67341244261606,0.5496549527812334,1466,0,12.46255344553556,8.707872883699586,69.8723012242647,0.18445319254156986,0.12888169031041863,0.22265625,,
1.3422400000002235,1200,,,,-0.03125,-0.0078125,-0.9765625,0.05671043709696151,1.6061949536445548,22.67333544234073,0.5501097492531678,1466,0,12.472822874919022,8.706396701051908,69.80293706053638,0.18448446685762598,0.12877557628709474,0.224609375,,
1.350489999999758,1200,,,,-0.21875,-0.013671875,-0.9375,0.05671043709696151,1.6061949536445548,22.673401081417325,0.5497495742997114,1466,0,12.46469259243579,8.705890911425941,69.84440929340784,0.1844951849254766,0.12885957208597953,0.2265625,,
1.35925,1200,,,,-0.0625,0.123046875,-0.966796875,0.05671043709696151,1.6061949536445548,22.673178521039457,0.5506762491828803,1466,0,12.485580905019853,8.707207326905246,69.73810344222346,0.18446729167472753,0.12864399068518956,0.2265625,,
1.3672999999998137,1200,,,,0.125,0.0625,-1.03515625,0.05671043709696151,1.6061949536445548,22.67331886084361,0.5485579195378347,1466,0,12.43762862332232,8.708384507304649,70.01643778762771,0.18444235578909823,0.1291399672951089,0.2265625,,
1.3753599999998696,1200,,,,-0.1875,0.06640625,-0.904296875,0.05671043709696151,1.6061949536445548,22.673449339708185,0.5472747493999652,1466,0,12.408606305421603,8.708838363031894,70.18385585516404,0.18443274368975363,0.12944201098094082,0.23046875,,
1.3831699999999254,1200,,,,0.09375,-0.021484375,-0.98828125,0.05671043709696151,1.6061949536445548,22.673379125245972,0.5455851154675802,1466,0,12.370258168087545,8.709018617430363,70.40288487994253,0.18442892640393393,0.12984328474147555,0.232421875,,
1.390649999999907,1200,,,,-0.25,-0.03125,-0.83984375,0.05065301929576159,1.6061949536445548,22.673312283573313,0.5449229539486717,1466,0,12.355208305365474,7.7782038877984,62.95485835249393,0.20649946656247709,0.130001446673063,0.234375,,
1.3985449999999255,1200,,,,0,0.12890625,-1.03125,0.05065301929576159,1.6061949536445548,22.67344388529017,0.5449253255751957,1466,0,12.355333791102675,7.777973571150276,62.95235485059377,0.20650558129975963,0.13000012632610608,0.236328125,,
1.4062700000000186,1200,,,,0,0.0546875,-0.9453125,0.05065301929576159,1.6061949536445548,22.673322110278274,0.5451177262205028,1466,0,12.359629794619945,7.77788783399601,62.92977996300234,0.20650785765051943,0.12995494042578198,0.234375,,
1.4141200000001117,1200,,,,-0.0625,0.080078125,-0.9609375,0.05065301929576159,1.6753918308158033,22.67345395063793,0.5435092195072814,1466,0,12.323231260245507,7.777848541910826,63.11533377615015,0.21540556129217203,0.13595393898194405,0.236328125,,
1.4224600000004284,1200,,,,0.09375,-0.0078125,-1.017578125,0.05065301929576159,1.6753918308158033,22.673382688126345,0.5426230604771443,1466,0,12.303100305600617,7.776544296343765,63.20800532532216,0.21544168810348174,0.13617639368941267,0.236328125,,
1.4307650000001304,1200,,,,-0.03125,-0.076171875,-0.97265625,0.05065301929576159,1.6753918308158033,22.673380056134707,0.5419266875750747,1466,0,12.287309749951843,7.776003173419914,63.28483070470645,0.2154566804374078,0.13635139545679392,0.23828125,,
1.439220000000205,1200,,,,-0.3125,0.3046875,-0.88671875,0.05065301929576159,1.6753918308158033,22.673580779837398,0.5397699401983862,1466,0,12.238517341616111,7.775813436926173,63.53558376295414,0.2154619377645583,0.13689499994568505,0.240234375,,
1.4482349999998696,1200,,,,0.0625,0.048828125,-1.052734375,0.05065301929576159,1.6753918308158033,22.673495159571672,0.5382877079897281,1466,0,12.204863741562031,7.7766421315280665,63.71756617852071,0.21543897770779868,0.13727247319529512,0.240234375,,
1.4563750000004656,1200,,,,-0.21875,0.076171875,-0.931640625,0.05065301929576159,1.6753918308158033,22.673620201602052,0.5392711264152085,1466,0,12.227228706028566,7.777363799761628,63.60692178700348,0.21541898694094178,0.13702138653788007,0.240234375,,
1.4661550000002608,1200,,,,0.3125,-0.015625,-1.01171875,0.05065301929576159,1.6753918308158033,22.67354228026775,0.5395457464454082,1466,0,12.233413294168585,7.777639231363672,63.57701684999976,0.2154113582511917,0.13695211553217349,0.240234375,,
1.4734650000003167,1200,,,,-0.125,-0.080078125,-0.927734375,0.05065301929576159,1.6753918308158033,22.67352971206381,0.5385625692823993,1466,0,12.211114416429906,7.777524823934855,63.69217877010709,0.21541452695334223,0.13720220560390328,0.2421875,,
1.4811350000002421,1200,,,,-0.09375,0.09375,-0.98046875,0.05065301929576159,1.6753918308158033,22.673637128654946,0.5379920989449003,1466,0,12.198237629560097,7.777090975117128,63.755857290981396,0.21542654395791877,0.137347039932704,0.240234375,,
1.4940150000001304,1200,,,,0.125,0.02734375,-1.05859375,0.05065301929576159,1.6753918308158033,22.673826092897354,0.5369889057706307,1466,0,12.175593063258527,7.776843124678648,63.87239688673817,0.2154334096696895,0.13760248245085666,0.240234375,,
1.5098250000001863,1200,,,,-0.25,0.0390625,-0.91015625,0.05065301929576159,1.6753918308158033,22.674084192163434,0.5349970024293361,1466,0,12.130567075637833,7.776771771658413,64.10888891811767,0.21543538630278233,0.1381132324951684,0.24609375,,
1.5175749999997206,1200,,,,0.5,0.04296875,-1.09375,0.05065301929576159,1.6753918308158033,22.6742391036816,0.5349552029537548,1466,0,12.129702181531952,7.776764035679949,64.11339634966835,0.21543560060830855,0.13812308049629338,0.248046875,,
1.525195000000298,1200,,,,-0.21875,0.1171875,-0.96484375,0.05065301929576159,1.6753918308158033,22.674039914889086,0.5338964539620942,1466,0,12.105589507554267,7.776760939203466,64.24107586293523,0.2154356863884008,0.13839820272860784,0.25,,
1.5324300000001676,1200,,,,0.3125,0.03125,-1.1015625,0.05065301929576159,1.6753918308158033,22.67394955819875,0.5342432073660053,1465,0,12.113403535627118,7.773106878381917,64.16947025268483,0.2155369605781826,0.13830892580175794,0.25,,
1.5401150000002235,1200,,,,-0.15625,-0.009765625,-0.951171875,0.04816134621087222,1.6753918308158033,22.674043706244717,0.5342873918097983,1465,0,12.114455673590863,7.389225310933575,60.995107910971655,0.22673443565684556,0.13829691370022554,0.25390625,,
1.548625,1200,,,,-0.125,0.18359375,-0.94140625,0.04816134621087222,1.6753918308158033,22.67420781562842,0.5331966436835128,1465,0,12.089811505475549,7.388566478365154,61.11399234817539,0.2267546533852819,0.13857882151901277,0.25390625,,
1.5659750000000932,1200,,,,-0.1875,0.197265625,-0.99609375,0.04816134621087222,1.696613725816017,22.6741318697216,0.5336972111005244,1466,0,12.101120942995935,7.391781552606565,61.08344497527634,0.22952703806807437,0.14020302200169382,0.2578125,,
1.5730200000000187,1200,,,,0.125,0.05859375,-1.0625,0.04816134621087222,1.696613725816017,22.674155148997706,0.5341873334562178,1466,0,12.112246477415656,7.393157091624958,61.038694229102305,0.22948433325432216,0.14007424047879985,0.255859375,,
1.5924850000003352,1200,,,,-0.0625,0.11328125,-0.951171875,0.04816134621087222,1.696613725816017,22.67418466175839,0.535052337741195,1466,0,12.131875509649372,7.393783059980805,60.945095044043164,0.2294649047791269,0.13984760431036203,0.25390625,,
1.6004699999997392,1200,,,,0.03125,0.0078125,-1.001953125,0.04816134621087222,1.696613725816017,22.67427431662672,0.5350599131606775,1466,0,12.132095246835673,7.3934293606634345,60.94107580132796,0.22947588230744587,0.1398450713827467,0.25390625,,
1.6086100000003354,1200,,,,-0.125,0.056640625,-1.00390625,0.04816134621087222,1.696613725816017,22.67422798223036,0.5366178495168367,1466,0,12.167395459278938,7.393290720692928,60.76313328876605,0.22948018546969892,0.13943935096826068,0.25390625,,
1.6195150000001304,1200,,,,0.25,0.02734375,-0.9453125,0.04816134621087222,1.696613725816017,22.67421690670451,0.5370230410432361,1466,0,12.176576916512412,7.393236703096954,60.716872679308864,0.22948186213290347,0.1393342100533421,0.25390625,,
1.6269300000001676,1200,,,,-0.0625,-0.015625,-0.984375,0.04816134621087222,1.696613725816017,22.674202552760597,0.5365800952207285,1465,0,12.166525764814367,7.3889872124289235,60.7321050829309,0.22961383976442187,0.13944931845068126,0.255859375,,
1.6359699999997392,1200,,,,-0.28125,-0.001953125,-0.91015625,0.04816134621087222,1.696613725816017,22.67419254193416,0.5360297699443266,1465,0,12.154042211926335,7.38786288734283,60.78523308149596,0.22964878364522992,0.13959254840757337,0.2578125,,
1.6573349999999627,1200,,,,0.21875,-0.03125,-1.0546875,0.04816134621087222,1.696613725816017,22.674019217024796,0.5377527254782241,1465,0,12.193015631500712,7.39083200778956,60.61529182899849,0.22955652679263616,0.13914635862786953,0.26171875,,
1.6657450000001117,1200,,,,-0.125,0.041015625,-0.947265625,0.04816134621087222,1.696613725816017,22.674110108187758,0.5370390537920346,1466,0,12.176882638077561,7.392215245519217,60.70695977970163,0.2295135719761972,0.13933071182854662,0.263671875,,
1.6739900000002235,1200,,,,-0.25,0.048828125,-0.87109375,0.04816134621087222,1.696613725816017,22.674066903613074,0.5396569740809077,1466,0,12.23621833531189,7.392851604383519,60.41778106434125,0.2294938160005845,0.1386550713074353,0.263671875,,
1.6821599999996832,1200,,,,0.4375,-0.19140625,-1.01953125,0.04816134621087222,1.696613725816017,22.6739654271779,0.5409851337492917,1466,0,12.266278219248653,7.393676520315584,60.2764456191217,0.22946821126867487,0.13831528157853407,0.267578125,,
1.6895400000000373,1200,,,,-0.1875,0.208984375,-1.01953125,0.046534707548933074,1.696613725816017,22.673879432758824,0.5403046791315776,1466,0,12.250803151584835,7.144251063402055,58.31659341026823,0.23747957774150485,0.13848999978393525,0.267578125,,
1.6972799999997952,1200,,,,-0.03125,0.10546875,-1.001953125,0.046534707548933074,1.696613725816017,22.673981306250163,0.5403724260641124,1466,0,12.252394286990732,7.144384754864096,58.31011137512784,0.23747513383303093,0.1384720150262742,0.267578125,,
1.705560000000056,1200,,,,-0.0625,-0.07421875,-1,0.046534707548933074,1.696613725816017,22.673751467281235,0.5402778836921904,1466,0,12.250126458105404,7.144439243717424,58.321350952179294,0.23747332266950988,0.138497649931886,0.265625,,
1.7134249999998137,1200,,,,-0.125,0.080078125,-0.939453125,0.046534707548933074,1.7051174855494813,22.673861569506844,0.5406669990438263,1467,0,12.259008691520407,7.14741955534066,58.30340556234821,0.23856406810138797,0.13909097615118882,0.265625,,
1.7214700000002048,1200,,,,0.0625,0.048828125,-0.978515625,0.046534707548933074,1.7051174855494813,22.673868319169333,0.5415135734471609,1467,0,12.278207457383758,7.148595481034213,58.2218170351508,0.2385248249216636,0.13887348714930478,0.265625,,
1.729635000000242,1200,,,,-0.3125,0.01953125,-0.9453125,0.046534707548933074,1.7051174855494813,22.674042008229506,0.5396192834868639,1467,0,12.23535030223186,7.149067542774664,58.429610646052346,0.238509074833513,0.13935992378072326,0.265625,,
1.7386000000000932,1200,,,,0.15625,0.0546875,-1.001953125,0.046534707548933074,1.7051174855494813,22.67393167732412,0.5403785134712936,1467,0,12.252505494342083,7.150192887176176,58.35698576489491,0.23847153670603746,0.13916480072886842,0.265625,,
1.7466400000001303,1200,,,,-0.0625,-0.03125,-0.96484375,0.046534707548933074,1.7051174855494813,22.674034069323653,0.5398006547163625,1468,0,12.239458435682018,7.151477080308388,58.429685577096265,0.23842871429239798,0.13931314808656134,0.267578125,,
1.7547050000000746,1200,,,,-0.25,0.0859375,-0.90625,0.046534707548933074,1.7051174855494813,22.67367488574525,0.5510677989401611,1468,0,12.494732113172443,7.151976226708446,57.2399324925786,0.23841207401974648,0.1364669102230594,0.26953125,,
1.7637549999998883,1200,,,,0.0625,0.0078125,-0.990234375,0.046534707548933074,1.7051174855494813,22.67299526096448,0.5665029215755026,1468,0,12.844318056203903,7.152186758334037,55.68366282302918,0.23840505612673002,0.13275266760666182,0.26953125,,
1.7736400000001304,1200,,,,-0.21875,0.12890625,-0.98046875,0.046534707548933074,1.7051174855494813,22.67284989230786,0.5679875834644107,1470,0,12.877897220583264,7.163507890162952,55.6263788059531,0.23802828330669906,0.13240651453749164,0.2734375,,
1.7809150000000373,1200,,,,-0.21875,0.103515625,-0.958984375,0.046534707548933074,1.7051174855494813,22.673042447487845,0.5648567836738371,1471,0,12.807021832988367,7.168533905893369,55.9734651769597,0.23786139647713408,0.1331392659265587,0.2734375,,
1.7885,1200,,,,0.5,-0.15625,-1.03515625,0.046534707548933074,1.7051174855494813,22.67299706326498,0.5612439418804847,1471,0,12.725082246031489,7.16991601541221,56.344751859252284,0.23781554510320876,0.1339965787711312,0.27734375,,
1.7965300000002609,1200,,,,-0.3125,-0.0078125,-0.8984375,0.046534707548933074,1.7051174855494813,22.672948535044583,0.5575946398573689,1474,0,12.642314572902844,7.181900432709582,56.80843006472131,0.23741870296385825,0.1348738378337918,0.27734375,,
1.8053300000000745,1200,,,,0.625,-0.04296875,-1.10546875,0.046534707548933074,1.7051174855494813,22.672969763234963,0.5561835860505739,1477,0,12.610333629332255,7.1990377137859065,57.08840008039591,0.23685352867151127,0.13521589005252757,0.28125,,
1.8133349999999628,1200,,,,-0.25,0.15234375,-0.966796875,0.046534707548933074,1.7051174855494813,22.67311813245225,0.5548371249240649,1478,0,12.57988767767349,7.204818344648597,57.27251728515471,0.2366634943427773,0.13554314070511828,0.283203125,,
1.8214150000000373,1200,,,,-0.125,0.125,-0.931640625,0.046534707548933074,1.7051174855494813,22.67319300041293,0.5533116109164787,1478,0,12.545340943678708,7.204696873342556,57.42926322757954,0.2366674844931272,0.135916392643649,0.28515625,,
1.829910000000149,1200,,,,0.3125,-0.23828125,-1.109375,0.046534707548933074,1.7051174855494813,22.673200030907925,0.5519230878942554,1477,0,12.513862573502829,7.1997942971815805,57.53454822515478,0.2368286391483384,0.13625828760177858,0.287109375,,
1.8387400000002234,1200,,,,-0.25,0.0703125,-0.87890625,0.049925710463222875,1.7051174855494813,22.673023490491346,0.5475883560700581,1477,0,12.415483660295966,7.722289136429808,62.19885868099737,0.2208046675571379,0.13733798313491027,0.287109375,,
1.8473900000001304,1200,,,,0.09375,0.08203125,-1.013671875,0.049925710463222875,1.7051174855494813,22.673259106996962,0.5447166060029751,1477,0,12.350500747789432,7.721522497185353,62.51991441373256,0.22082659037398783,0.13806059530458095,0.2890625,,
1.855364999999758,1200,,,,0.09375,-0.05078125,-1.037109375,0.049925710463222875,1.7051174855494813,22.673198076558702,0.5422026451226766,1476,0,12.293467970500512,7.71657360352052,62.76970519659108,0.22096821376414505,0.13870109635792705,0.2890625,,
1.864489999999758,1200,,,,-0.1875,0.10546875,-1.021484375,0.049925710463222875,1.708768562013218,22.673279881716805,0.5407860517640553,1475,0,12.261393507775017,7.711942864521468,62.89613704699456,0.22157432854882128,0.13936169334502463,0.2890625,,
1.8733050000001676,1200,,,,0.25,0.01171875,-0.8984375,0.049925710463222875,1.708768562013218,22.673217135204865,0.5376863362991877,1475,0,12.191079053544268,7.710403517696454,63.24627609936494,0.22161856485089987,0.14016548941305026,0.2890625,,
1.8809099999996834,1200,,,,-0.125,-0.068359375,-0.951171875,0.049925710463222875,1.708768562013218,22.673367237168534,0.5365578343261146,1474,0,12.165572821655829,7.708194390764659,63.36071883967001,0.2216820795361009,0.14045935913280252,0.2890625,,
1.8901750000002795,1200,,,,-0.125,0.189453125,-0.994140625,0.049925710463222875,1.708768562013218,22.673398674534248,0.5361673069987024,1474,0,12.156735107832976,7.704408078429195,63.37563507051327,0.22179102464697176,0.14056147039941697,0.2890625,,
1.8975400000000373,1200,,,,0.1875,-0.01953125,-0.98828125,0.049925710463222875,1.708768562013218,22.673461159552293,0.5324302086654846,1473,0,12.072035656349188,7.702936413917494,63.808098594094176,0.22183339835518476,0.14154767353710598,0.2890625,,
1.906614999999758,1200,,,,-0.21875,0.08984375,-0.966796875,0.049925710463222875,1.708768562013218,22.673380746948933,0.5318074329304577,1473,0,12.057872410889777,7.7023241837127685,63.877970517888386,0.22185103109871138,0.14171393623886622,0.2890625,,
1.9157150000003167,1200,,,,0.0625,-0.009765625,-0.96484375,0.049925710463222875,1.708768562013218,22.673305148088716,0.5319937196618139,1472,0,12.06205594275907,7.696005915486359,63.803434107817424,0.22203316639540682,0.141664785018594,0.29296875,,
1.9306900000004097,1200,,,,-0.1875,-0.0703125,-0.90625,0.049925710463222875,1.708768562013218,22.67324116017836,0.5322048466038318,1472,0,12.06680883366441,7.693859438072544,63.760514848034575,0.22209511049259517,0.14160898590238993,0.291015625,,
1.9531900000004099,1200,,,,-0.125,0.095703125,-1.03125,0.049925710463222875,1.708768562013218,22.673183410087184,0.5323830069869046,1471,0,12.070817561827813,7.69052033466936,63.71167731827462,0.22219154070888797,0.1415619574449495,0.298828125,,
1.9620249999999069,1200,,,,-0.25,0.076171875,-0.884765625,0.049925710463222875,1.708768562013218,22.67326453542164,0.5291578789724072,1471,0,11.997736570944017,7.689736418947591,64.09322603040401,0.2222141916077636,0.14242424409879897,0.298828125,,
1.970429999999702,1200,,,,0,0.08984375,-1.0390625,0.049925710463222875,1.708768562013218,22.673268368507394,0.5293117123104647,1471,0,12.001226503809345,7.688549724705321,64.06469973935477,0.22224848940268901,0.1423828274110844,0.30078125,,
1.978689999999944,1200,,,,0.125,0.00390625,-1.0625,0.049925710463222875,1.708768562013218,22.67340269102192,0.5299219132927225,1470,0,12.0151329348827,7.687722499686,63.98366577673702,0.22227240409406185,0.14221803214946285,0.298828125,,
1.9887450000001117,1200,,,,-0.375,0.28515625,-0.8359375,0.049925710463222875,1.708768562013218,22.67339932409132,0.5303409478102268,1470,0,12.024632087618347,7.6873970850684685,63.930414078815026,0.2222818130901844,0.14210568353045255,0.30078125,,
1.9956699999999254,1200,,,,0.0625,-0.01953125,-1.01171875,0.05078484174243381,1.708768562013218,22.673235552800513,0.5313493881911014,1470,0,12.047409839293282,7.819539585879646,64.90639639713918,0.21852546984976903,0.14183700768940194,0.298828125,,
2.0033149999999442,1200,,,,-0.0625,-0.07421875,-0.939453125,0.05078484174243381,1.708768562013218,22.673354843664356,0.5299709451406887,1470,0,12.01621929600701,7.815269221198524,65.0393358233362,0.21864487500677124,0.14220517451616763,0.30078125,,
2.0116349999997767,1200,,,,-0.125,0.1796875,-1.01171875,0.05078484174243381,1.708768562013218,22.673288118291296,0.529266820138267,1469,0,12.000219104446785,7.8132622490212,65.1093299298671,0.21870103774224173,0.14239478022363933,0.30078125,,
2.0196800000001676,1200,,,,0.125,0.0234375,-1.078125,0.05078484174243381,1.7206411545867006,22.67315946192903,0.5321726738531907,1469,0,12.06603589555454,7.812474914673727,64.74765185765821,0.22024277496941694,0.1426020251788437,0.298828125,,
2.027575000000186,1200,,,,-0.1875,0.07421875,-0.95703125,0.05078484174243381,1.7206411545867006,22.673298629602076,0.535031899308841,1469,0,12.13093802939254,7.814759692630409,64.42007760402132,0.22017838324693786,0.14183908535495685,0.296875,,
2.0353349999999626,1200,,,,0.3125,-0.0703125,-1.01953125,0.05078484174243381,1.7206411545867006,22.673170477336413,0.5361503971400959,1470,0,12.156229355849016,7.816953400614902,64.30409604647468,0.22011659356333768,0.14154398573919696,0.298828125,,
2.0435800000000746,1200,,,,-0.1875,0.009765625,-0.923828125,0.05078484174243381,1.7206411545867006,22.673112558598046,0.5352971072944376,1470,0,12.136851565978718,7.8178304174281505,64.41399052240712,0.22009190052919358,0.14176997594746044,0.298828125,,
2.051655000000261,1200,,,,0.25,0.125,-0.98828125,0.05078484174243381,1.7206411545867006,22.67318853189517,0.5339679444651454,1470,0,12.106755874846773,7.818171245955833,64.57692982972438,0.22008230575363133,0.14212239615416195,0.296875,,
2.059969999999739,1200,,,,-0.1875,0.146484375,-1.072265625,0.05078484174243381,1.7206411545867006,22.673343931794232,0.5332568299053616,1471,0,12.09071550842256,7.820385891199552,64.68091888980237,0.22001998092229372,0.14231094540170744,0.298828125,,
2.0678500000000932,1200,,,,0.25,0.015625,-1,0.05078484174243381,1.7206411545867006,22.673372089051,0.5320819022452273,1471,0,12.0640909514561,7.821076505786397,64.82938944390514,0.2200005527773178,0.14262501513875145,0.296875,,
2.078075000000186,1200,,,,-0.125,0.01171875,-0.9375,0.05078484174243381,1.7206411545867006,22.6735004491319,0.5315985936069118,1471,0,12.0532009509042,7.821401421781182,64.89065812177006,0.21999141353300541,0.14275387605295192,0.30078125,,
2.094660000000149,1200,,,,0,0.1171875,-1.0390625,0.05078484174243381,1.7206411545867006,22.673389369487623,0.5311998891050781,1470,0,12.044101918708082,7.8184948706432635,64.9155489003195,0.22007319606326423,0.1428617232069443,0.3046875,,
2.102850000000093,1200,,,,0.1875,0.00390625,-1.033203125,0.05078484174243381,1.7206411545867006,22.673451816775838,0.5307060625226174,1470,0,12.032938337477391,7.817785735540569,64.96988114026607,0.22009315844567912,0.1429942634400152,0.3046875,,
2.1114550000000745,1200,,,,-0.09375,-0.0078125,-0.92578125,0.05078484174243381,1.7206411545867006,22.673445319705824,0.5302955730717266,1470,0,12.023627679323857,7.817487486158025,65.01771091599234,0.22010155534413595,0.1431049929752532,0.306640625,,
2.1194900000002237,1200,,,,-0.1875,0.12109375,-0.94921875,0.05078484174243381,1.7206411545867006,22.673570485162386,0.5287821351201686,1469,0,11.989379011941804,7.812200949372791,65.15934596438723,0.22025049864146717,0.1435137843980816,0.306640625,,
2.127655000000261,1200,,,,0.03125,-0.072265625,-0.92578125,0.05078484174243381,1.7206411545867006,22.673624377217116,0.5284049155531936,1469,0,11.98085457432824,7.8101106931132005,65.1882605256571,0.22030944530708477,0.14361589516941248,0.30859375,,
2.1375800000000744,1200,,,,-0.1875,0.224609375,-1.0234375,0.05078484174243381,1.7206411545867006,22.673530765252888,0.5282339646465634,1468,0,11.97692904866536,7.809218397181913,65.20217632960033,0.22033461827724304,0.14366296632427986,0.310546875,,
2.1459249999998136,1200,,,,-0.0625,0.107421875,-0.970703125,0.050984068943028205,1.7206411545867006,22.67365976940553,0.5288818611797673,1468,0,11.99168737860001,7.840008424876762,65.37869256721783,0.2194692991817477,0.1434861583914623,0.30859375,,
2.15394000000041,1200,,,,-0.0625,-0.140625,-0.96484375,0.050984068943028205,1.7206411545867006,22.673643769540483,0.5293522198744521,1468,0,12.002343662048796,7.840281668583547,65.32292266696531,0.21946165039980733,0.14335876417431193,0.306640625,,
2.161480000000447,1200,,,,-0.09375,0.115234375,-0.939453125,0.050984068943028205,1.725222976720395,22.673661282771096,0.5265976856179622,1469,0,11.939897555992854,7.840388946122496,65.66546244935964,0.22004303467286693,0.14449227630554284,0.306640625,,
2.1701400000001305,1200,,,,0.125,-0.22265625,-0.953125,0.050984068943028205,1.725222976720395,22.67364524762075,0.5268600474644465,1469,0,11.94583781135349,7.840431502437984,65.63316551130745,0.22004184032268334,0.14442042525311363,0.306640625,,
2.1788350000004284,1200,,,,-0.125,0.126953125,-1.00390625,0.050984068943028205,1.725222976720395,22.673628211114664,0.5251186533951884,1467,0,11.906345113803686,7.834949756145014,65.80482659671542,0.22019579326176134,0.144899459929164,0.3046875,,
2.1866400000001303,1200,,,,0.09375,0.099609375,-0.97265625,0.050984068943028205,1.725222976720395,22.673840726060035,0.5232360374999321,1467,0,11.863770576408236,7.833095029254285,66.02534142754605,0.22024793140861937,0.14541944869964835,0.302734375,,
2.194779999999795,1200,,,,-0.375,0.00390625,-0.96875,0.050984068943028205,1.725222976720395,22.673881661265444,0.5233451861757319,1467,0,11.866266819341476,7.832350467096854,66.00517741881953,0.22026886870907195,0.14538885758984957,0.302734375,,
2.204185000000056,1200,,,,0.03125,0.02734375,-0.96875,0.050984068943028205,1.725222976720395,22.673693128645056,0.523921550562936,1467,0,11.879236460947904,7.833354211099313,65.94156313708271,0.22024064407503433,0.14523012336625638,0.302734375,,
2.2131749999998136,1200,,,,0.09375,-0.029296875,-1.00390625,0.050984068943028205,1.725222976720395,22.673773260718313,0.5250122133244307,1467,0,11.904007884026017,7.834525519637107,65.81418288667511,0.22020771677827236,0.1449279094510237,0.302734375,,
2.221089999999851,1200,,,,-0.1875,0.080078125,-0.984375,0.050984068943028205,1.725222976720395,22.673676525263417,0.5271675833182303,1467,0,11.952827258762406,7.8348865013963485,65.54839563713038,0.22019757100666645,0.14433597502680084,0.3046875,,
2.230435000000056,1200,,,,-0.125,0.11328125,-0.94140625,0.050984068943028205,1.725222976720395,22.67377944334848,0.5270910864511358,1467,0,11.951147040747978,7.835003037624996,65.55858622533216,0.22019429583314587,0.14435626729703593,0.3046875,,
2.2386850000000558,1200,,,,0.3125,-0.2265625,-0.94921875,0.050984068943028205,1.725222976720395,22.673834100633496,0.52779064583427,1467,0,11.967037543512449,7.829991227847411,65.42965374159951,0.22033523748846987,0.1441645829594368,0.306640625,,
2.2570800000000744,1200,,,,0,0.072265625,-1.02734375,0.050984068943028205,1.725222976720395,22.673722896287057,0.5271111376891764,1466,0,11.951571871510998,7.827905848172697,65.49687298314377,0.2203939355150933,0.14435113600687244,0.30859375,,
2.2647949999999253,1200,,,,0.125,0.0078125,-1.029296875,0.050984068943028205,1.725222976720395,22.6737035627941,0.5281078337260157,1467,0,11.974160471093034,7.830325639041167,65.39352514896098,0.2203258275899303,0.14407882547467746,0.306640625,,
2.272864999999758,1200,,,,-0.3125,0.1484375,-0.86328125,0.050984068943028205,1.725222976720395,22.67381710722052,0.5273323339176992,1467,0,11.95663689397365,7.831265687406999,65.49722766402726,0.22029938014931932,0.14428998655884057,0.306640625,,
2.2810250000003727,1200,,,,0.09375,-0.05078125,-1.017578125,0.050984068943028205,1.725222976720395,22.673857866162226,0.527345650432943,1467,0,11.956960324255421,7.8316280433453045,65.4984864962575,0.22028918727650154,0.14428608358101475,0.306640625,,
2.2898050000001677,1200,,,,-0.03125,-0.056640625,-0.95703125,0.047993201820838285,1.725222976720395,22.673756237446916,0.5284884207681407,1467,0,11.982817626810101,7.371919289768218,61.520750122028424,0.23402629748197337,0.14397473369371974,0.306640625,,
2.297889999999665,1200,,,,-0.25,0.30078125,-0.89453125,0.047993201820838285,1.725222976720395,22.67373538447394,0.5283378329371966,1467,0,11.979392217624396,7.371004502070416,61.53070513231882,0.23405534160721284,0.14401590209077567,0.306640625,,
2.305969999999739,1200,,,,0,0.03515625,-1.056640625,0.047993201820838285,1.725222976720395,22.67358410967995,0.5269099243386637,1467,0,11.94693648771779,7.37064570922379,61.69485973915808,0.23406673509776935,0.1444071439145955,0.306640625,,
2.313935000000056,1200,,,,-0.15625,0.00390625,-0.8828125,0.047993201820838285,1.72727730997108,22.673604272203935,0.5236807342516232,1467,0,11.873729733398497,7.37050642411206,62.07406257008071,0.23434988189148329,0.1454704923182296,0.3046875,,
2.3210849999999628,1200,,,,0.25,-0.01953125,-0.98828125,0.047993201820838285,1.72727730997108,22.673526643126703,0.5242383826058677,1466,0,11.886332935363793,7.3696419781430516,62.00097219401584,0.23437737071812365,0.14531624844800925,0.302734375,,
2.3297700000000185,1200,,,,-0.15625,-0.013671875,-0.900390625,0.047993201820838285,1.72727730997108,22.673450181295976,0.5263688675874979,1466,0,11.934598296230313,7.368879004170245,61.74383771674825,0.23440163815874407,0.14472856707013437,0.302734375,,
2.33739000000013,1200,,,,-0.09375,0.1640625,-1,0.047993201820838285,1.72727730997108,22.67357472783157,0.527118334666447,1466,0,11.951656951469817,7.368587800163827,61.653273935859055,0.2344109016293023,0.14452199531703086,0.302734375,,
2.344764999999665,1200,,,,0.125,-0.0625,-0.98046875,0.047993201820838285,1.72727730997108,22.673508470015427,0.5268646531263728,1466,0,11.945870175212553,7.368481659900169,61.68225128705671,0.23441427823198,0.1445920041517902,0.30078125,,
2.352725000000093,1200,,,,-0.15625,0.083984375,-0.96875,0.047993201820838285,1.72727730997108,22.67363373960672,0.5287554489697363,1466,0,11.988807387761112,7.36842973750646,61.46090682071173,0.23441593005616493,0.14407415634472429,0.302734375,,
2.3609849999998698,1200,,,,0.375,-0.1328125,-1.00390625,0.047993201820838285,1.72727730997108,22.67368406084871,0.5290168126142407,1466,0,11.994760072092499,7.368409977795795,61.430240650994264,0.2344165586844534,0.14400265612563892,0.3046875,,
2.369279999999795,1200,,,,-0.28125,0.001953125,-0.884765625,0.047993201820838285,1.72727730997108,22.673700401482304,0.5298425554007679,1466,0,12.0134913611128,7.368401888734899,61.33439203682393,0.23441681602788375,0.14377812894278252,0.3046875,,
2.3779300000001675,1200,,,,0,0.15234375,-1.056640625,0.047993201820838285,1.72727730997108,22.673542987482588,0.5302898909122408,1466,0,12.023550637426142,7.3692379259742875,61.29003110808044,0.2343902215292793,0.14365783968959397,0.306640625,,
2.3879000000003727,1200,,,,0.1875,-0.060546875,-1.015625,0.047993201820838285,1.72727730997108,22.673467450434384,0.53132793643388,1467,0,12.047046672240047,7.371170285644494,61.186533813551556,0.23432877589803996,0.1433776556997357,0.306640625,,
2.3962999999998136,1200,,,,-0.5625,0.2578125,-0.875,0.047993201820838285,1.72727730997108,22.67337092483227,0.5324401627273279,1467,0,12.072213304794758,7.372047991677263,61.066250285266946,0.23430087703187835,0.14307875998886235,0.30859375,,
2.404100000000093,1200,,,,0.0625,-0.01953125,-1.041015625,0.047993201820838285,1.72727730997108,22.67331050129952,0.531557171891143,1467,0,12.05216080748053,7.372651392747231,61.17285946077965,0.2342817011082704,0.1433168157612861,0.30859375,,
2.412560000000056,1200,,,,0.0625,-0.087890625,-0.943359375,0.047993201820838285,1.72727730997108,22.673311793995126,0.5305103626392076,1467,0,12.028426862064176,7.373803966351432,61.30314504889485,0.2342450813519171,0.14359960199106744,0.310546875,,
2.421255000000354,1200,,,,-0.375,0.265625,-0.94140625,0.047993201820838285,1.72727730997108,22.67331290899914,0.5305823277167646,1467,0,12.030059140307332,7.374199889263226,61.29811834885823,0.23423250466616474,0.14358011792176056,0.310546875,,
2.428760000000242,1200,,,,0.09375,-0.03125,-1.017578125,0.047993201820838285,1.72727730997108,22.67305383381101,0.5287449469214555,1467,0,11.988262645905705,7.374351875095108,61.51309904453617,0.23422767712027615,0.14408070301671183,0.30859375,,
2.4370600000000557,1200,,,,-0.125,0.06640625,-0.9375,0.047993201820838285,1.72727730997108,22.67306904859901,0.5273875429242529,1467,0,11.957494176092561,7.37152035265008,61.64770180184128,0.23431764783096876,0.14445144480392422,0.30859375,,
2.4447749999999067,1200,,,,0.125,-0.04296875,-0.94140625,0.047899751543349266,1.72727730997108,22.673022035048373,0.5281614689357081,1466,0,11.975016623242828,7.353669461726379,61.40842800546367,0.2348864494061142,0.14424007617814347,0.306640625,,
2.453010000000242,1200,,,,-0.125,-0.015625,-0.939453125,0.047899751543349266,1.72727730997108,22.672971924430463,0.528827038910915,1466,0,11.990080606106872,7.352071665985293,61.31795029168264,0.23493749631990263,0.14405885720996162,0.30859375,,
2.4605099999997764,1200,,,,0,0.26171875,-1.0546875,0.047899751543349266,1.7167998461068896,22.67298947127785,0.5290833337966668,1466,0,11.995900856600413,7.351447081241724,61.282992991700105,0.23353223210809088,0.14311554143616217,0.306640625,,
2.4678300000000744,1200,,,,-0.0625,0.02734375,-0.974609375,0.047899751543349266,1.7167998461068896,22.67312046417202,0.5303409565763081,1466,0,12.024484395538854,7.351212221219711,61.135363308775624,0.23353969310683817,0.14277533985106516,0.3046875,,
2.4774150000000374,1200,,,,-0.15625,0.080078125,-0.966796875,0.047899751543349266,1.7167998461068896,22.67316319476347,0.5288373086576549,1466,0,11.99041460267451,7.351104230351348,61.30817385340165,0.233543123904915,0.14318102442629052,0.3046875,,
2.485004999999888,1200,,,,0.0625,0.03125,-0.9609375,0.047899751543349266,1.7167998461068896,22.67309322247301,0.5294169468678805,1466,0,12.003519789892497,7.351056585654798,61.24084197240811,0.2335446375772885,0.1430247024337405,0.3046875,,
2.4920200000000188,1200,,,,-0.3125,-0.12890625,-0.90625,0.047899751543349266,1.7167998461068896,22.673046129114276,0.5293858365807651,1466,0,12.002789492895438,7.351042955480122,61.2444545480971,0.23354507061165164,0.1430334046200743,0.3046875,,
2.4998950000000186,1200,,,,0.5625,0.06640625,-1.015625,0.047899751543349266,1.7167998461068896,22.673088074220605,0.5284964150032235,1466,0,11.982645764277931,7.35275593320916,61.3617065700868,0.23349066142027927,0.14327385452926664,0.306640625,,
2.5079350000000558,1200,,,,-0.21875,0.123046875,-1.00390625,0.047899751543349266,1.7167998461068896,22.673165338233805,0.5280286647640022,1466,0,11.972081219521053,7.353537463647048,61.422382030425524,0.23346584614467014,0.14340028392954476,0.30859375,,
2.515745000000112,1200,,,,-0.15625,0.083984375,-0.9453125,0.047899751543349266,1.7167998461068896,22.67310861260021,0.5288545259011312,1466,0,11.99077610602154,7.353846943537286,61.3291990319486,0.23345602094909643,0.14317670773993899,0.310546875,,
2.523845000000205,1200,,,,0.125,-0.078125,-0.978515625,0.047899751543349266,1.7167998461068896,22.67315295664701,0.529656007012174,1466,0,12.008971661393922,7.351517902185217,61.21688109081524,0.23352998237229022,0.1429597716202467,0.3125,,
2.531625,1200,,,,-0.375,-0.01171875,-0.8515625,0.047899751543349266,1.7167998461068896,22.673291507523643,0.5295564736496517,1465,0,12.006788296754817,7.348195922700345,61.20034551359924,0.23363555683147774,0.1429857680234859,0.3125,,
2.544635000000242,1200,,,,0.0625,0.06640625,-1.0078125,0.047899751543349266,1.7167998461068896,22.673325968589506,0.5293560724120647,1465,0,12.002262783251014,7.346876943391266,61.21243198943892,0.23367750124781958,0.14303968152594185,0.314453125,,
2.5602549999998883,1200,,,,-0.125,0.0703125,-0.939453125,0.047899751543349266,1.7167998461068896,22.67319031496932,0.5269011101398422,1465,0,11.946529147369255,7.350754093958889,61.53045795378651,0.23355424819853743,0.14370699848708327,0.3125,,
2.568060000000056,1200,,,,0.0625,0.02734375,-0.984375,0.047899751543349266,1.7167998461068896,22.673080805822067,0.5272145321906366,1466,0,11.953577690361984,7.3520498983335,61.505016228416395,0.23351308408503038,0.14362226026197356,0.310546875,,
2.575420000000391,1200,,,,-0.09375,-0.060546875,-0.958984375,0.047899751543349266,1.7167998461068896,22.67302910164908,0.5286880981900693,1466,0,11.98696063595895,7.352644043233217,61.3386851473965,0.23349421459983424,0.14322228113077864,0.310546875,,
2.5836800000001676,1200,,,,0,0.26171875,-0.98046875,0.047899751543349266,1.7167998461068896,22.673110668780957,0.529822972228952,1465,0,12.01273488420949,7.350433884880135,61.188679811307075,0.23356442258984902,0.1429149866916309,0.30859375,,
2.590700000000186,1200,,,,-0.03125,0.04296875,-1.025390625,0.047863197681643134,1.7167998461068896,22.673148840523762,0.531591350457585,1465,0,12.052849811259854,7.342902419537513,60.92254142815025,0.23380398485739662,0.14243932953541358,0.30859375,,
2.599105000000447,1200,,,,-0.1875,0.060546875,-0.939453125,0.047863197681643134,1.7167998461068896,22.673091958994572,0.5306407965928088,1465,0,12.031267578342888,7.341990725319335,61.0242493362497,0.23383301754746066,0.1426948436586389,0.306640625,,
2.606995000000112,1200,,,,0.375,-0.07421875,-0.9765625,0.047863197681643134,1.7167998461068896,22.6732342594754,0.5315011540418533,1465,0,12.05085017477246,7.341637160857306,60.9221511709312,0.23384427866582466,0.14246296495336733,0.30859375,,
2.6159799999999813,1200,,,,-0.25,0.033203125,-0.92578125,0.047863197681643134,1.7122567533586355,22.67316686384196,0.5302200058217932,1465,0,12.021766666544773,7.342131636006364,61.07364948646602,0.23320975954198367,0.14242971111090136,0.30859375,,
2.6248900000001303,1200,,,,-0.03125,0.138671875,-1.029296875,0.047863197681643134,1.7122567533586355,22.673176086983897,0.5298367602044742,1465,0,12.013082161473106,7.342309893008387,61.119284745722865,0.23320409766265904,0.1425326764891342,0.310546875,,
2.6332999999998137,1200,,,,0.0625,0.09375,-0.98828125,0.047863197681643134,1.7122567533586355,22.673250513806686,0.5307009288399821,1465,0,12.03271510749881,7.34237048548765,61.02006421569701,0.23320217315960112,0.14230011581438956,0.30859375,,
2.642334999999963,1200,,,,-0.1875,0.10546875,-1.009765625,0.047863197681643134,1.7122567533586355,22.673327760435377,0.5324245493861829,1465,0,12.071836315935037,7.341967400407521,60.818977397133814,0.23321497631051802,0.1418389637290249,0.310546875,,
2.6502050000000743,1200,,,,0.125,0.0234375,-1.005859375,0.047863197681643134,1.7122567533586355,22.673459083314736,0.5360820196734963,1465,0,12.154833738367744,7.341627062613334,60.400884295429535,0.23322578752034,0.14087043806726493,0.3125,,
2.6594900000002237,1200,,,,0.0625,-0.0859375,-0.96875,0.047863197681643134,1.7122567533586355,22.673127758117968,0.5426546942792526,1465,0,12.303679211935941,7.341493279656747,59.669088840797144,0.23323003755970098,0.13916623831492253,0.3125,,
2.6672450000001118,1200,,,,-0.375,0.20703125,-1.01171875,0.047863197681643134,1.7122567533586355,22.672980310046558,0.5463053969077537,1465,0,12.38637150736167,7.341435055314059,59.27026370031593,0.23323188728874303,0.13823715462926162,0.314453125,,
2.675125000000466,1200,,,,0.125,0.009765625,-1.02734375,0.047863197681643134,1.7122567533586355,22.67302515010048,0.5442422696606181,1466,0,12.33961866776296,7.348304525884583,59.55049927986755,0.23301385337626784,0.138760913076826,0.3125,,
2.684060000000056,1200,,,,-0.125,0.041015625,-0.943359375,0.047863197681643134,1.7122567533586355,22.672969033418642,0.5437471848792251,1467,0,12.328363084775233,7.351612595596096,59.63170085958033,0.2329090020853852,0.1388875993985906,0.3125,,
2.694,1200,,,,0.0625,0,-0.92578125,0.047863197681643134,1.7122567533586355,22.67311798143041,0.5438073335836571,1467,0,12.32980783350934,7.352737978060706,59.633840829844885,0.23287335390812408,0.13887132520469206,0.310546875,,
2.701689999999944,1200,,,,-0.08203125,0.06640625,-0.9765625,0.047863197681643134,1.7122567533586355,22.673048906970635,0.5442826899196929,1468,0,12.34054804776673,7.360410264628023,59.64411172127836,0.23263061321285855,0.13875046284257228,0.3125,,
2.710345000000205,1200,,,,-0.1875,0.11328125,-1.0078125,0.047863197681643134,1.7122567533586355,22.673062783996144,0.5439994358383955,1469,0,12.334133363222422,7.364723723716229,59.71010290577981,0.23249436334519186,0.1388226236035517,0.310546875,,
2.7191699999999255,1200,,,,0.03125,0.072265625,-0.982421875,0.047863197681643134,1.7122567533586355,22.673294477890483,0.5425223992884007,1470,0,12.300770119917592,7.366558490830378,59.886969832094785,0.2324364566561156,0.139199150676438,0.310546875,,
2.7390150000001303,1200,,,,-0.15625,-0.046875,-0.90625,0.05102608148836456,1.7122567533586355,22.673240829073436,0.5398698924757843,1469,0,12.240600088469439,7.849787213443125,64.12910442877364,0.21812779210451927,0.13988339958688542,0.30859375,,
2.7457100000004284,1200,,,,-0.0625,0.10546875,-0.97265625,0.05102608148836456,1.7122567533586355,22.673272613999696,0.5399472133493686,1469,0,12.24237036543969,7.848793984151394,64.1117181547505,0.2181553951876039,0.13986317210205876,0.306640625,,
2.753755000000354,1200,,,,0.0625,0.05078125,-0.96875,0.05102608148836456,1.7122567533586355,22.67327563051417,0.5393425438405162,1469,0,12.228662155758695,7.848310555624797,64.17963351721912,0.21816883279822305,0.1400199573386941,0.3046875,,
2.7611750000002795,1200,,,,-0.1875,0.0703125,-0.91796875,0.05102608148836456,1.7104794577087306,22.673408049947536,0.5378751228359645,1469,0,12.195462139975477,7.848120777435273,64.35279522298656,0.21794764711402756,0.14025540304060752,0.306640625,,
2.768445000000298,1200,,,,0.5,-0.16015625,-1.01953125,0.05102608148836456,1.7104794577087306,22.673607874582185,0.5370509408792271,1469,0,12.176882442171015,7.84804985361526,64.45040338433317,0.21794961673450455,0.1404694071599963,0.30859375,,
2.775860000000335,1200,,,,-0.28125,0.02734375,-0.912109375,0.05102608148836456,1.7104794577087306,22.673711821350203,0.5373947908824288,1469,0,12.184734622762946,7.848019151547226,64.40861778709507,0.21795046937054324,0.14037888478205293,0.30859375,,
2.784310000000056,1200,,,,0.4375,0.00390625,-1.12109375,0.05102608148836456,1.7104794577087306,22.673692982268918,0.5377727006025483,1469,0,12.193293107707804,7.848004764182392,64.36329131808859,0.21795086892852175,0.14028035269876987,0.310546875,,
2.7930500000002794,1200,,,,-0.21875,0.142578125,-1.013671875,0.05102608148836456,1.7104794577087306,22.67374653911954,0.5374525138332582,1468,0,12.186062075467936,7.846618414647423,64.39010704240253,0.21798937673785027,0.14036359302256793,0.3125,,
2.801170000000391,1200,,,,-0.125,0.103515625,-0.96875,0.05102608148836456,1.7104794577087306,22.673562895364643,0.5378212616375708,1468,0,12.194324202203825,7.8461499477139025,64.34263857193417,0.2180023921422895,0.14026849125428398,0.3125,,
2.8092949999999255,1200,,,,0.09375,-0.005859375,-0.958984375,0.05102608148836456,1.7104794577087306,22.673551586871472,0.5359219872970418,1468,0,12.151254825518155,7.845964158609388,64.56916813342214,0.21800755434650043,0.1407656643095535,0.314453125,,
2.816885000000242,1200,,,,-0.375,-0.07421875,-0.82421875,0.05102608148836456,1.7104794577087306,22.673475860122792,0.5369991024423727,1468,0,12.175636186134744,7.845242737822333,64.433945117022,0.2180276015504808,0.14048378512299622,0.314453125,,
2.8239150000000373,1200,,,,0.03125,0.115234375,-0.986328125,0.05102608148836456,1.7104794577087306,22.673326823487695,0.5372016156149649,1468,0,12.180147800943711,7.844976833807438,64.40789522438811,0.21803499155504527,0.14043174891327703,0.31640625,,
2.831070000000298,1200,,,,-0.0625,0.0625,-1.0625,0.05102608148836456,1.7104794577087306,22.673269778540636,0.537115809929162,1468,0,12.178171660843244,7.844860189320985,64.41738881497906,0.2180382334967759,0.14045453663693006,0.314453125,,
2.8390849999999626,1200,,,,0.25,-0.078125,-1.05859375,0.05102608148836456,1.7104794577087306,22.673403787158023,0.5371818203150883,1468,0,12.179740319124564,7.844805339822177,64.40864200942204,0.2180397579817453,0.14043644715667253,0.314453125,,
2.849024999999907,1200,,,,-0.15625,0.07421875,-0.9765625,0.05102608148836456,1.7104794577087306,22.67334419009954,0.5350235949010721,1467,0,12.130774117016394,7.841185811731266,64.63879168875195,0.21814040615510827,0.14100332272359786,0.314453125,,
2.8567700000000187,1200,,,,-0.09375,0.0625,-0.888671875,0.05102608148836456,1.7104794577087306,22.67338879374552,0.5347045765682515,1467,0,12.123564754327038,7.836907650441685,64.64194161741581,0.21825948881920645,0.14108717133698165,0.3125,,
2.8651400000001304,1200,,,,0.09375,0.0078125,-0.97265625,0.05102608148836456,1.7104794577087306,22.67332143135109,0.5358348461503069,1466,0,12.149155700884467,7.835823789460345,64.49685873142519,0.21828967874563854,0.14078998572585638,0.3125,,
2.8729400000004097,1200,,,,-0.25,0.16796875,-1.05859375,0.05102608148836456,1.7104794577087306,22.673256289162598,0.5356429566240941,1466,0,12.14477003502289,7.8350623333803995,64.51387972588837,0.2183108933826124,0.14084082718537097,0.3125,,
2.879635000000242,1200,,,,0.125,0.052734375,-0.94921875,0.05102608148836456,1.7104794577087306,22.67328731476953,0.5360322259212977,1466,0,12.153612668289036,7.834494040008419,64.46226528553132,0.2183267290745035,0.14073835528522968,0.310546875,,
2.8871949999998323,1200,,,,-0.5,0.015625,-0.9609375,0.05102608148836456,1.7104794577087306,22.673231505784837,0.5369849127170737,1466,0,12.175183241147877,7.834234393294464,64.34592595549184,0.21833396498485888,0.14048901144484677,0.310546875,,
2.895035000000149,1200,,,,0.09375,-0.01171875,-0.89453125,0.052738854180768645,1.7104794577087306,22.673269941024547,0.5365704524227701,1466,0,12.165806710159135,8.097077109587179,66.55602297894198,0.21124653187302272,0.14059729029562698,0.3125,,
2.9031599999996835,1200,,,,-0.25,-0.07421875,-0.93359375,0.052738854180768645,1.7104794577087306,22.67327303495166,0.536661643903837,1466,0,12.167875979617696,8.097361578144293,66.5470423244625,0.21123911056726313,0.14057338031501473,0.3125,,
2.911435000000056,1200,,,,-0.0625,0.16796875,-1.03125,0.052738854180768645,1.7188650813677901,22.673210834988744,0.5345227023133939,1466,0,12.119345925639507,8.097811065946688,66.81722855038802,0.21226292727377227,0.14182820524426032,0.314453125,,
2.9192349999998695,1200,,,,0.21875,-0.056640625,-0.98046875,0.052738854180768645,1.7188650813677901,22.673249951301127,0.5337495999322136,1466,0,12.101838090670059,8.097990141369525,66.9153733564878,0.21225823338395633,0.14203338934875961,0.314453125,,
2.9281049999999813,1200,,,,-0.09375,0.05859375,-0.9765625,0.052738854180768645,1.7188650813677901,22.67325460271584,0.5336501264603453,1466,0,12.099585186006914,8.098064095537454,66.9284440007316,0.21225629497239887,0.14205983551862966,0.318359375,,
2.9350849999999626,1200,,,,-0.1875,0.03515625,-0.81640625,0.052738854180768645,1.7188650813677901,22.673257985564753,0.534500429479747,1466,0,12.118866130989463,8.09560942416743,66.80170683184575,0.2123206532465049,0.14183382032519,0.318359375,,
2.943220000000205,1200,,,,0.03125,0,-1.0234375,0.052738854180768645,1.7188650813677901,22.67339175394807,0.5362823899790103,1466,0,12.159340718737656,8.094441640192226,66.56974113504869,0.21235128471776477,0.1413617005335662,0.3203125,,
2.9514899999997577,1200,,,,-0.4375,0.2734375,-0.96875,0.052738854180768645,1.7188650813677901,22.67352211240784,0.5384502650699498,1466,0,12.20856399149537,8.093973041237426,66.29750269463128,0.21236357875303793,0.14079174934621075,0.322265625,,
2.9603900000001304,1200,,,,0.15625,-0.0390625,-0.9765625,0.052738854180768645,1.7188650813677901,22.67343896318225,0.5397579990345863,1466,0,12.238170046000077,8.093782696390159,66.13556329065334,0.2123685729954681,0.14045115200287514,0.3203125,,
2.9706200000001117,1200,,,,-0.15625,0.087890625,-0.9609375,0.052738854180768645,1.7188650813677901,22.67359551729962,0.5404744976841769,1467,0,12.254500147906716,8.099683698904393,66.09558612056455,0.21221385244960778,0.14026398960559827,0.3203125,,
2.978379999999888,1200,,,,-0.125,0.044921875,-0.912109375,0.052738854180768645,1.7188650813677901,22.673582775764544,0.5412221453074036,1467,0,12.271445111704283,8.101407592534176,66.01836636833586,0.21216869559208504,0.14007030677490198,0.318359375,,
2.9863850000002423,1200,,,,0.125,-0.0703125,-1.12109375,0.052738854180768645,1.7188650813677901,22.673700486154946,0.5404538034610619,1467,0,12.254087666279368,8.102091153446978,66.1174570812171,0.21215079524704078,0.14026871099492294,0.318359375,,
2.994665000000037,1200,,,,-0.125,0.177734375,-0.990234375,0.052738854180768645,1.7188650813677901,22.673715182568845,0.5419543402911536,1468,0,12.288118353718612,8.105053939250162,65.95846252406433,0.21207324396002858,0.13988025114094296,0.31640625,,
3.004589999999851,1200,,,,0.0625,0.0859375,-0.990234375,0.052738854180768645,1.7188650813677901,22.673473742560105,0.5424797174252753,1468,0,12.299899628913407,8.106292261171937,65.90535293569758,0.2120408475279044,0.13974626893110978,0.314453125,,
3.0133549999999816,1200,,,,0,-0.03125,-1.0078125,0.052738854180768645,1.7188650813677901,22.673629213309134,0.5403641456703047,1468,0,12.252016279095052,8.106757608109511,66.16672246788987,0.2120286758849606,0.14029242552514365,0.314453125,,
3.0219900000002236,1200,,,,-0.21875,-0.0390625,-0.912109375,0.052738854180768645,1.7188650813677901,22.67374267883008,0.5395462277912454,1468,0,12.233532332272137,8.10910497248428,66.28588335923557,0.21196729937523598,0.14050439682359062,0.314453125,,
3.0299199999999256,1200,,,,0.375,0.21484375,-1.0546875,0.052738854180768645,1.7188650813677901,22.673527142871702,0.5385382126641669,1469,0,12.210560782314602,8.111180707033549,66.42758552728824,0.2119130547636905,0.14076872569663967,0.314453125,,0.40839500000001866,3486,
3.0475550000001674,1200,,,,-0.21875,0.0703125,-0.912109375,0.05341823506222851,1.7188650813677901,22.673723096479367,0.5394665448533,1469,0,12.231715057818192,8.21687086404522,67.17676814089297,0.20918730619086082,0.1405252716600144,0.314453125,,
3.0566200000001116,1400,,,,0.5,-0.1484375,-1.0234375,0.05341823506222851,1.7188650813677901,22.67363441925085,0.5385203366180183,1468,0,12.210213239808855,8.214179746475976,67.27302451766654,0.20925583983053364,0.14077273243384392,0.318359375,,
3.0643700000001117,1400,,,,-0.28125,0.021484375,-0.865234375,0.05341823506222851,1.7224070423651852,22.673549679844996,0.5393615755465894,1468,0,12.229241478555064,8.213157646716882,67.1599923929812,0.20971313548981957,0.14084332584204518,0.318359375,,
3.0730449999999254,1400,,,,0,0.10546875,-1.03515625,0.05341823506222851,1.7224070423651852,22.673605861268978,0.5377891225005839,1468,0,12.193618600055938,8.212778936874548,67.3530902207887,0.20972280583758945,0.14125479062936114,0.3203125,,
3.081485000000335,1400,,,,0.0625,-0.015625,-1.03515625,0.05341823506222851,1.7224070423651852,22.673734858389743,0.5371235536970017,1468,0,12.178597042721883,8.21119809386859,67.42318565155031,0.20976318226341772,0.14142901980606398,0.3203125,,
3.0906500000003727,1400,,,,-0.09375,0.109375,-0.99609375,0.05341823506222851,1.7224070423651852,22.667537815582275,0.7644729388062663,1468,0,17.328719249380356,8.20988523037805,47.37733419434112,0.2097967260238876,0.09939609601712344,0.3203125,,
3.0994150000000373,1400,,,,-0.15625,0.138671875,-0.939453125,0.05341823506222851,1.7224070423651852,22.655022778841996,1.1714188946843973,1468,0,26.538521742640935,8.209451839740776,30.934096176691668,0.20980780154251716,0.06490214711536464,0.3203125,,
3.1076099999998696,1400,,,,0.40625,-0.650390625,-1.23046875,0.05341823506222851,1.7224070423651852,22.637784388320288,1.5894876190273524,1483,0,35.982478007445785,8.295637615388802,23.05465903063208,0.20762804768256007,0.04786793844517242,0.328125,,
3.1153549999999814,1400,,,,-0.125,0.91015625,-1.32421875,0.05341823506222851,1.7224070423651852,22.627624614266477,1.9104528041009163,1496,0,43.22900889446831,8.366313137370907,19.3534696985419,0.20587408265553486,0.03984377820389004,0.3359375,,
3.1232599999997763,1400,,,,0.03125,-0.20703125,-0.953125,0.05341823506222851,1.7224070423651852,22.617816639533398,2.2293234303684737,1501,0,50.42242857828974,8.393980368687918,16.647314707689613,0.20519550519682933,0.03415954151614978,0.337890625,,
3.131535000000149,1400,,,,-0.28125,0.265625,-0.978515625,0.05341823506222851,1.7224070423651852,22.607918345805242,2.4716059717329877,1533,0,55.877865991944006,8.575504727927557,15.346872282423776,0.20085197280060732,0.03082449574243775,0.337890625,,
3.1394850000003354,1400,,,,0.1875,0.0625,-1.0625,0.05341823506222851,1.7224070423651852,22.59929236732318,2.7194927633727706,1608,0,61.45861205028088,8.994577096965275,14.635177718635395,0.19149394393943397,0.028025479015960197,0.337890625,,
3.147339999999851,1400,,,,-0.125,-0.1953125,-0.880859375,0.05341823506222851,1.7224070423651852,22.59227541831894,2.8905396522580147,1637,0,65.30386793138493,9.155196404593594,14.019378475732863,0.1881343628522237,0.026375268371161817,0.33984375,,
3.1582900000000373,1400,,,,-0.25,0.236328125,-0.974609375,0.05341823506222851,1.7224070423651852,22.585271423472882,3.0482347381876,1693,0,68.84520892442575,9.472644690533338,13.759337561066673,0.1818295838844778,0.0250185462325482,0.341796875,,
3.175625,1400,,,,-0.28125,0.4140625,-0.990234375,0.05341823506222851,1.7224070423651852,22.57384305082492,3.432715530798892,1792,0,77.48958163038334,10.022672011574048,12.934218769409641,0.17185108326164644,0.022227595066661665,0.349609375,,
3.1832900000000373,1400,,,,0.09375,-0.265625,-0.845703125,0.05341823506222851,1.7224070423651852,22.570622849136132,3.534636494888784,1873,0,79.77894723492724,10.476506488590735,13.131918697473258,0.16440662202051265,0.021589743936995885,0.357421875,,
3.1928500000000932,1400,,,,0.875,0.0625,-1.1640625,0.05378684094419159,1.7224070423651852,22.566381877781147,3.5993418708268456,1908,0,81.22412316576582,10.749080386450327,13.233852170386776,0.16023761851631071,0.021205609555796867,0.36328125,,
3.201485000000335,1400,,,,-0.3125,0.333984375,-0.99609375,0.05378684094419159,1.7224070423651852,22.563154635094854,3.6682146933191286,1970,0,82.76649536008655,11.096658313389563,13.407186404489025,0.15521853460035592,0.020810438268186012,0.369140625,,
3.2101699999999256,1400,,,,-0.0625,-0.16796875,-1.0546875,0.05378684094419159,1.7238177199874594,22.560629294591486,3.7344882705691544,2018,0,84.25240547731076,11.365163894234081,13.48942363110894,0.1516755707202787,0.020460160279360626,0.37109375,,
3.2183799999998883,1400,,,,-0.625,0.06640625,-0.73828125,0.05378684094419159,1.7238177199874594,22.558702125504645,3.7753861391212724,2061,0,85.16781132119583,11.609279361871728,13.63106457918628,0.1484861950733119,0.020240249141619666,0.375,,
3.226689999999944,1400,,,,0,0.017578125,-1.212890625,0.05378684094419159,1.7238177199874594,22.556709698387174,3.8030524942958492,2105,0,85.78435108155871,11.858732877486144,13.823888305935379,0.14536272448299553,0.020094780670993885,0.380859375,,
3.2345100000002422,1400,,,,-0.15625,-0.3046875,-0.919921875,0.05378684094419159,1.7238177199874594,22.555298351650396,3.818381178374625,2123,0,86.12472669856608,11.957477634320927,13.883907784313482,0.14416232024048908,0.020015363601916192,0.384765625,,
3.243155000000261,1400,,,,0.375,0.5703125,-0.5859375,0.05378684094419159,1.7238177199874594,22.554389670046387,3.844302977423877,2182,0,86.70590736253766,12.289493187396616,14.173766887660113,0.14026760043736433,0.019881202704906537,0.388671875,,
3.2505500000002794,1400,,,,0.09375,0.650390625,-1.134765625,0.05378684094419159,1.7238177199874594,22.553676757989244,3.8508801744903716,2201,0,86.85150668920505,12.395476491477412,14.272033916272948,0.13906829004699264,0.019847873522287625,0.392578125,,
3.258395000000019,1400,,,,0.59375,-0.044921875,-0.927734375,0.05378684094419159,1.7238177199874594,22.553594820775572,3.8585874087515895,2240,0,87.02501699752969,12.618681722341202,14.500062347243666,0.13660838413377713,0.019808300870959805,0.396484375,,
3.266415000000037,1400,,,,0.9375,-0.00390625,-1.015625,0.05378684094419159,1.7238177199874594,22.553320878659992,3.8553012277317316,2271,0,86.94984567292556,12.794244348809178,14.714510704178338,0.13473384382782272,0.019825425872195903,0.40234375,,
3.274435000000056,1400,,,,-0.0625,0.962890625,-1.169921875,0.05378684094419159,1.7238177199874594,22.553251478492083,3.8633630358884985,2484,0,87.13139810110394,13.988723306801168,16.054744456836545,0.12322909547788093,0.019784116375444905,0.40625,,
3.2823700000001117,1400,,,,-0.34375,0.583984375,-0.310546875,0.05378684094419159,1.7238177199874594,22.553194945760264,3.8549078989736514,2740,0,86.94048934350387,15.434608061865303,17.75307245037788,0.11168522796808437,0.01982755943754372,0.416015625,,
3.290504999999888,1400,,,,0.4375,-0.828125,-0.84765625,0.05378684094419159,1.7238177199874594,22.55320191163257,3.8447459526107197,2682,0,86.71133176816167,15.107927803591522,17.423245030978514,0.11410020900269764,0.019879958995398614,0.423828125,,
3.298375,1400,,,,-0.0625,0.05078125,-1.20703125,0.05378684094419159,1.7238177199874594,22.55352847074938,3.832763708446316,2491,0,86.44234542009897,14.033293699963735,16.234281510715245,0.12283771414204166,0.019941820315146717,0.42578125,,
3.308399999999907,1400,,,,-0.625,0.34375,-1.43359375,0.05378684094419159,1.7238177199874594,22.553972870979177,3.824420759318167,2414,0,86.25588205287153,13.599105405445023,15.766003525544258,0.1267596410641284,0.01998492947913773,0.427734375,,
3.3266100000003354,1400,,,,0.15625,-0.216796875,-0.66015625,0.05378684094419159,1.7238177199874594,22.555115675033583,3.7751646830908,2413,0,85.1492761194145,13.59337526492863,15.964170083918386,0.1268130752216462,0.020244655017030964,0.4296875,,
3.3459849999998696,1400,,,,0.03125,-0.05859375,-1.0859375,0.15366039767921255,1.7238177199874594,22.5567739428691,3.72229040446359,2469,0,83.96286320319598,39.72188499728087,47.30887380668658,0.0433971781577199,0.02053071625029866,0.43359375,,
3.354310000000056,1400,,,,0.0625,0.125,-1.0703125,0.15366039767921255,1.7238177199874594,22.557668636242905,3.698342845021084,2475,0,83.42599240120546,39.8328298029145,47.74630622474794,0.04327630571356822,0.020662837448758367,0.43359375,,
3.3621549999997953,1400,,,,-0.09375,-0.01953125,-0.798828125,0.15366039767921255,2.8303855138998126,22.55835952566766,3.6743932125353114,2490,0,82.88828312704455,40.07112486415186,48.34353343129818,0.0706340419315733,0.03414699167506731,0.435546875,,
3.370524999999907,1400,,,,-0.125,-0.04296875,-1.2890625,0.15366039767921255,2.8303855138998126,22.55906308896224,3.6453992318416923,2503,0,82.23679125557122,40.27254859442492,48.97144937144737,0.07028076475625963,0.03441750913047772,0.435546875,,
3.377910000000149,1400,,,,0,0.08984375,-0.888671875,0.15366039767921255,2.8303855138998126,22.559644154087746,3.6201694967151083,2518,0,81.66973562337577,40.52377485400502,49.61908416219505,0.06984506068590206,0.034656479444873954,0.431640625,,
3.3852050000000746,1400,,,,-0.6875,0,-0.9140625,0.15366039767921255,2.8303855138998126,22.560386031923905,3.5939781928695074,2531,0,81.08153542145236,40.721380513918426,50.22275454239173,0.06950612867686047,0.03490789239729858,0.431640625,,
3.398804999999702,1400,,,,-0.125,0.08203125,-1.09765625,0.15366039767921255,2.8303855138998126,22.561747725514714,3.5552175737627087,2555,0,80.21192200855073,41.11458182245709,51.257445019300505,0.06884140342524012,0.0352863445112073,0.4296875,,
3.4115449999999257,1400,,,,-0.125,-0.109375,-0.935546875,0.15366039767921255,2.8303855138998126,22.56270457528734,3.515716912204163,4388,0,79.32408206040395,70.60777297203286,89.0117744044819,0.04008603295023771,0.03568128921737186,0.427734375,,
3.4191550000002606,1400,,,,0.3125,0.041015625,-0.984375,0.15366039767921255,2.8303855138998126,22.563374235787983,3.4930048855136757,4846,0,78.81397643928082,77.98486493752276,98.94801462987111,0.03629403623597173,0.035912228284540035,0.427734375,,
3.4380400000000373,1400,,,,-0.03125,0.10546875,-1,0.15366039767921255,2.8303855138998126,22.564930630297162,3.443751389204126,5184,0,77.70801120538059,83.42471124199713,107.35664180300203,0.03392742356265967,0.03642334258715186,0.427734375,,
3.4535,1400,,,,-0.5,0.125,-0.8125,0.15366039767921255,2.8303855138998126,22.566247469207138,3.4014714876318624,5287,0,76.75844734935275,85.07962915645996,110.84073752721287,0.03326748766963691,0.03687392868980015,0.427734375,,
3.4634300000001677,1400,,,,0.34375,0.099609375,-1.060546875,0.15366039767921255,2.8303855138998126,22.56691503957688,3.3794153691463467,5217,0,76.26297951896595,83.9508012771435,110.08067322660224,0.033714812376310396,0.0371134924409283,0.427734375,,
3.470945000000298,1400,,,,-0.21875,0.126953125,-0.9921875,0.15366039767921255,2.8303855138998126,22.567713296157976,3.3529389371884646,5419,0,75.66816463399391,87.19965650078821,115.23955539634403,0.032458677332911606,0.03740523544598123,0.42578125,,
3.4787050000000743,1400,,,,-0.5,-0.203125,-1.0546875,0.15366039767921255,2.8303855138998126,22.568303019801778,3.334708087921166,5202,0,75.25870261078866,83.70563378415092,111.22385967380649,0.03381356052088965,0.037608747104471936,0.42578125,,
3.4864050000002607,1400,,,,0.40625,0.177734375,-0.958984375,0.15366039767921255,2.8303855138998126,22.56926496036356,3.312292979627766,5387,0,74.75601788357115,86.68624220183874,115.95888151352354,0.03265091947704449,0.037861641029462004,0.427734375,,
3.494825000000186,1400,,,,-0.40625,-0.103515625,-0.77734375,0.19349751350127511,2.8303855138998126,22.569887277522618,3.2882701009486914,5209,0,74.21588551645989,105.55099674147297,142.2215688823971,0.026815336674008886,0.03813719251887224,0.431640625,,
3.502595000000205,1400,,,,0.0625,-0.125,-1.06640625,0.19349751350127511,2.8303855138998126,22.57089834308293,3.2662826070741358,4794,0,73.7229326840502,97.13665850121829,131.75908087855217,0.029138180760709547,0.03839219915504202,0.4296875,,
3.5107700000000186,1400,,,,0.09375,0.220703125,-1.029296875,0.19349751350127511,4.218523606817714,22.57154526413124,3.2401042519255845,4628,0,73.13415978284243,93.77636613342187,128.2251227222305,0.04498493363259288,0.05768198635690617,0.427734375,,
3.518674999999814,1400,,,,0.0625,-0.23046875,-0.94140625,0.19349751350127511,4.218523606817714,22.572421416181825,3.2217291741169576,3422,0,72.72222860697539,69.33373003571603,95.34049129658501,0.060843742355194456,0.05800872288467078,0.42578125,,
3.5266099999998697,1400,,,,-0.1875,0.052734375,-0.984375,0.19349751350127511,4.218523606817714,22.573371712845624,3.1970198165948807,2951,0,72.16751669332979,59.79936105310679,82.86187996078553,0.07054462677404386,0.0584546039562924,0.4296875,,
3.534310000000056,1400,,,,-0.15625,0.154296875,-0.96875,0.19349751350127511,4.218523606817714,22.574097578407585,3.1732342878457014,2765,0,71.63290045297757,56.03450552029897,78.22453811860103,0.07528439070974789,0.05889086690810329,0.4296875,,
3.542614999999758,1400,,,,-0.0625,-0.3203125,-0.81640625,0.19349751350127511,4.218523606817714,22.574975611723023,3.150340865510435,2697,0,71.11886820751246,54.64427637969232,76.83513216246615,0.0771997341039996,0.059316517727880554,0.4296875,,
3.5499650000003165,1400,,,,-0.03125,0.234375,-1.07421875,0.19349751350127511,4.218523606817714,22.575666515821798,3.1335653376101096,2674,0,70.74232606742437,54.17332107491976,76.57837123320948,0.0778708693340703,0.05963224340117183,0.4296875,,
3.5578599999998697,1400,,,,0.03125,0.005859375,-0.970703125,0.19349751350127511,4.218523606817714,22.576389373020156,3.1138121608260594,2668,0,70.29863577725438,54.062199924066896,76.90362597556852,0.07803092757495707,0.06000861268751173,0.4296875,,
3.566530000000261,1400,,,,-0.5625,-0.2578125,-0.74609375,0.19349751350127511,4.218523606817714,22.576947020442685,3.0954679830832017,2665,0,69.88621665754602,53.99207055820844,77.25710897011136,0.07813228059608782,0.060362741160952735,0.431640625,,
3.575310000000056,1400,,,,0.28125,0.23046875,-1.146484375,0.19349751350127511,4.218523606817714,22.57748320925188,3.076597567005265,2663,0,69.46182991068656,53.95195730387865,77.67137343379757,0.07819037190916595,0.06073153575484342,0.4296875,,
3.5818549999999814,1400,,,,-0.375,0.12890625,-0.89453125,0.19349751350127511,4.218523606817714,22.57806549144948,3.061511602133127,2662,0,69.12300945579416,53.943992371894055,78.04057259166724,0.07820191686471563,0.061029223698883674,0.4296875,,
3.5898300000000747,1400,,,,-0.125,-0.291015625,-0.880859375,0.19349751350127511,4.218523606817714,22.578676329240533,3.047374062316844,2663,0,68.8056726071749,53.95630293123821,78.418393261389,0.07818407447585485,0.06131069499025311,0.4296875,,
3.5977550000003538,1400,,,,0.0625,0.4296875,-0.89453125,0.19349751350127511,4.218523606817714,22.579200308723383,3.0336981487320602,2667,0,68.49847817642448,54.03266649888578,78.88155757230022,0.07807357808085788,0.061585654442606684,0.4296875,,
3.6067299999999816,1400,,,,0.03125,-0.03515625,-1.1171875,0.19349751350127511,4.218523606817714,22.57975282604373,3.018340051675672,2670,0,68.15337231178474,54.10162555822341,79.38216954360222,0.07797406387129342,0.06189750358234684,0.43359375,,
3.616535000000149,1400,,,,-0.0625,-0.0859375,-0.8046875,0.19349751350127511,4.218523606817714,22.580358993712075,3.0000035818406747,2671,0,67.74115786038452,54.11437899867807,79.88404790808059,0.07795568728453423,0.062274158577450806,0.43359375,,
3.633625,1400,,,,-0.25,-0.31640625,-0.83984375,0.19349751350127511,4.218523606817714,22.581443258636693,2.9716336350707535,2675,0,67.10377631580651,54.2024431134315,80.77405786872822,0.07782903065807291,0.06286566626242206,0.43359375,,
3.6436650000000372,1400,,,,0.3125,0.48828125,-0.98828125,0.18681470270818562,4.218523606817714,22.581475304112555,2.953020654847209,2676,0,66.68356298996653,52.359776564214386,78.51976441644644,0.08056802155456273,0.06326182071963445,0.435546875,,
3.6519550000000747,1400,,,,-0.56640625,0.1171875,-0.84375,0.18681470270818562,4.218523606817714,22.582022887760832,2.942732304246472,2675,0,66.452848247047,52.33675738789018,78.7577338947483,0.08060345763403766,0.06348145667338155,0.4375,,
3.659399999999907,1400,,,,0,-0.2890625,-0.91015625,0.18681470270818562,5.027872733324701,22.582409589091863,2.9306462511927,2675,0,66.18105400517015,52.32319379461649,79.06068372759512,0.09609261913675492,0.07597148170127234,0.4375,,
3.667370000000112,1400,,,,0.03125,0.33984375,-1.10546875,0.18681470270818562,5.027872733324701,22.58268715811577,2.9191930089589357,2674,0,65.9232224754783,52.30710977118689,79.34549891071201,0.0961221668587447,0.07626861285785805,0.435546875,,
3.6757999999998137,1400,,,,-0.125,-0.125,-0.828125,0.18681470270818562,5.027872733324701,22.582944218221915,2.908799709931388,2673,0,65.68926159136062,52.30092111644397,79.61867716187349,0.09613354078660545,0.07654025348316537,0.43359375,,
3.684885000000242,1400,,,,-0.09375,0.017578125,-0.888671875,0.18681470270818562,5.027872733324701,22.58322423483618,2.897958737959154,2676,0,65.44525200263443,52.3487607368234,79.98863039707777,0.0960456878549939,0.0768256302706621,0.435546875,,
3.693964999999851,1400,,,,-0.03125,0.103515625,-1.07421875,0.18681470270818562,5.027872733324701,22.58356280485935,2.8862638603987048,2677,0,65.18212116270995,52.379867331924906,80.35925557128219,0.09598864963638944,0.07713576428072884,0.435546875,,
3.701870000000112,1400,,,,-0.0625,-0.18359375,-0.98828125,0.18681470270818562,5.027872733324701,22.5839766362856,2.8784021489020706,2679,0,65.00576688063862,52.4167103795987,80.6339389485928,0.09592118041962469,0.07734502605832971,0.435546875,,
3.7093650000002234,1400,,,,-0.25,0.26171875,-1.109375,0.18681470270818562,5.027872733324701,22.584301789181694,2.8784817857173612,2678,0,65.00850134330352,52.39961070757992,80.60424348326801,0.09595248257440564,0.07734177268251421,0.43359375,,
3.718975000000093,1400,,,,0.125,-0.095703125,-0.98046875,0.18681470270818562,5.027872733324701,22.584285143490817,2.8797706527847313,2677,0,65.03756157034707,52.37546474655849,80.53110153877344,0.09599671826597155,0.07730721466065983,0.435546875,,
3.7267350000003354,1400,,,,-0.15625,0.044921875,-0.861328125,0.18681470270818562,5.027872733324701,22.58433608767805,2.8816808513756103,2681,0,65.080848844893,52.446520171279644,80.58671806244459,0.0958666603028131,0.07725579525410947,0.4375,,
3.734739999999758,1400,,,,0.4375,0.046875,-1.1328125,0.18681470270818562,5.027872733324701,22.584717256578365,2.86616680614264,2684,0,64.73156692692177,52.51517612329854,81.12761457263218,0.09574132859270881,0.07767265604741008,0.435546875,,
3.743489999999758,1400,,,,-0.3125,-0.00390625,-0.86328125,0.18681470270818562,5.027872733324701,22.585071860297834,2.8568110371135074,2686,0,64.52128256450055,52.54562020256492,81.43920597058217,0.09568585762128419,0.07792580267291561,0.4375,,
3.7516550000002606,1400,,,,-0.125,0.091796875,-0.966796875,0.18681470270818562,5.027872733324701,22.58537678176635,2.8451873850903637,2687,0,64.25962910699441,52.56264237625715,81.79730120872408,0.09565487018962769,0.07824310228982377,0.435546875,,
3.7598950000000184,1400,,,,0.5625,0.4296875,-1.01953125,0.18681470270818562,5.027872733324701,22.58570204608987,2.8377301441830403,2686,0,64.0921275237258,52.55250403174058,81.99525598878982,0.09567332377326823,0.078447586740875,0.4375,,
3.772489999999758,1400,,,,-0.46875,-0.12890625,-0.806640625,0.18681470270818562,5.027872733324701,22.585881926243765,2.828111574618777,2686,0,63.87539409858302,52.54046690515082,82.25462660012982,0.09569524272407622,0.07871376457677677,0.439453125,,
3.7813599999998697,1400,,,,0,0.1953125,-1.078125,0.18681470270818562,5.027872733324701,22.585993657037783,2.818132576226941,2686,0,63.65032449135324,52.5546005858514,82.56768681986976,0.095669507089324,0.07899209899562612,0.439453125,,
3.788695000000298,1400,,,,0.1875,-0.26953125,-0.80859375,0.18681470270818562,5.027872733324701,22.58633770332243,2.8113756592972523,2687,0,63.49868005178849,52.56206662548621,82.77662871514407,0.0956559179674034,0.0791807440599403,0.44140625,,
3.7968999999999067,1400,,,,-0.09375,0.10546875,-1.072265625,0.17083975897910375,5.027872733324701,22.58642152190434,2.8072335675510236,2688,0,63.405360667146745,48.08050037036491,75.83033968179545,0.10457197189286534,0.07929728149831146,0.44140625,,
3.8058349999999628,1400,,,,0.375,0.171875,-1.17578125,0.17083975897910375,5.027872733324701,22.586577569321356,2.802298532541623,2688,0,63.29433317764678,48.09337788926194,75.98370260775059,0.10454397162332199,0.07943638049259613,0.44140625,,
3.8149550000000745,1400,,,,-0.1875,-0.14453125,-0.96875,0.17083975897910375,5.606688759982232,22.58708712243493,2.793246868562417,2689,0,63.091310374687865,48.10579358386934,76.24789102996553,0.11654913768769519,0.08886625950047833,0.443359375,,
3.8230800000000746,1400,,,,0.1875,0.19140625,-1.00390625,0.17083975897910375,5.606688759982232,22.58726529014426,2.7902209140954994,2688,0,63.023460004783864,48.09539476049153,76.3134787535321,0.11657433706288874,0.08896193194655848,0.44140625,,
3.8309150000000374,1400,,,,-0.15625,0.017578125,-0.900390625,0.17083975897910375,5.606688759982232,22.58756265784106,2.783884250231094,2688,0,62.88115993427172,48.084077291475225,76.46817797530522,0.11660177497003224,0.08916325280644917,0.439453125,,
3.846555000000168,1400,,,,-0.0625,0.029296875,-0.90625,0.17083975897910375,5.606688759982232,22.588173639043486,2.77838979350453,2687,0,62.7587510926265,48.078295323546556,76.60811358815465,0.11661579767443067,0.08933716274416047,0.439453125,,
3.853745000000112,1400,,,,-0.03125,0.169921875,-1.1328125,0.17083975897910375,5.606688759982232,22.588368152701836,2.774849222684504,2687,0,62.67931581023609,48.07466621839035,76.69941127618264,0.11662460087632319,0.08945038227533762,0.439453125,,
3.860850000000093,1400,,,,-0.0625,-0.12109375,-0.8125,0.17083975897910375,5.606688759982232,22.58844027653355,2.770965021225533,2686,0,62.59177789031647,48.06203259583288,76.78649531261921,0.11665525690788923,0.08957548337750026,0.439453125,,
3.869105000000447,1400,,,,-0.0625,0.33203125,-1.158203125,0.17083975897910375,5.606688759982232,22.5886134140806,2.76497791124703,2687,0,62.45701713563122,48.07451294614895,76.97215645401488,0.11662497270149381,0.08976875645224595,0.44140625,,
3.8787750000003727,1400,,,,0.1875,-0.25,-0.7421875,0.17083975897910375,5.606688759982232,22.58872608603734,2.7647422549200593,2689,0,62.45200549488244,48.09911529520353,77.01772731565035,0.11656531987276145,0.08977596020421899,0.44140625,,
3.886660000000149,1400,,,,-0.15625,0.056640625,-0.998046875,0.17083975897910375,5.606688759982232,22.589016065451265,2.7554537016255893,2690,0,62.242987933627596,48.12863326512409,77.32378355043903,0.11649382871724015,0.09007743596693796,0.443359375,,
3.8949900000002233,1400,,,,0.09375,0.16796875,-1.083984375,0.17083975897910375,5.606688759982232,22.58922645665793,2.7520062509228413,2691,0,62.16569241223425,48.148316082932325,77.4515881905575,0.11644620655736075,0.09018943636633302,0.443359375,,
3.9028750000004657,1400,,,,-0.5625,-0.1953125,-0.76953125,0.17083975897910375,5.606688759982232,22.589495084453922,2.7479346600502543,2689,0,62.07445649560578,48.112155647797174,77.50717181261669,0.1165337259262657,0.09032199517331459,0.443359375,,
3.91094000000041,1400,,,,0.28125,0.083984375,-1.009765625,0.17083975897910375,5.606688759982232,22.5897147595104,2.7449594987044597,2687,0,62.0078521021424,48.07621471764592,77.53246256369661,0.11662084448433811,0.0904190125912863,0.44140625,,
3.921420000000391,1400,,,,-0.0625,0.076171875,-0.966796875,0.17083975897910375,5.606688759982232,22.589630000261526,2.740152798817919,2686,0,61.89903786947785,48.061834139084944,77.64552696348778,0.11665573860034502,0.09057796296938674,0.439453125,,
3.929230000000447,1400,,,,-0.28125,0.044921875,-0.859375,0.17083975897910375,5.606688759982232,22.59003621417924,2.7384176580568584,2686,0,61.86095406505233,48.05548881414103,77.68307091353033,0.11667114201390417,0.09063372598628687,0.44140625,,
3.9380449999999256,1400,,,,0.5,0.0390625,-1.26171875,0.17083975897910375,5.606688759982232,22.59020768827781,2.734154424795611,2689,0,61.7651163079566,48.1064284052101,77.88608081842632,0.116547599683684,0.09077435768157012,0.443359375,,
3.946280000000261,1400,,,,-0.40625,-0.048828125,-0.84375,0.16210506586868564,5.606688759982232,22.5902960102787,2.72990566109952,2690,0,61.669376964373726,45.66446884571562,74.04723558679032,0.12278011551881368,0.09091528139194928,0.443359375,,
3.9540499999998135,1400,,,,0.1875,0.162109375,-1.001953125,0.16210506586868564,5.606688759982232,22.59057425013968,2.7290781889663136,2688,0,61.65144346228024,45.6367833306198,74.02386832765954,0.12285459996959183,0.09094172731596352,0.443359375,,
3.9637000000001863,1400,,,,-0.125,0.38671875,-1.00390625,0.16210506586868564,5.8361452678759385,22.590745244687643,2.7232340234501753,2688,0,61.51988606542864,45.624473648826125,74.16215563257519,0.12791698843031138,0.09486599604019073,0.44140625,,
3.970635000000242,1400,,,,-0.25,-0.306640625,-0.833984375,0.16210506586868564,5.8361452678759385,22.590798060417956,2.721795990567873,2690,0,61.48754358457407,45.65943557769396,74.25802514763161,0.1278190409941702,0.09491589560491247,0.443359375,,
3.977739999999758,1400,,,,0.3125,0.373046875,-1.17578125,0.16210506586868564,5.8361452678759385,22.590849956581057,2.719168761267535,2691,0,61.42833349241726,45.675185733234954,74.35524152526963,0.12777496520674994,0.09500738398830817,0.447265625,,
3.986125,1400,,,,-0.4375,0.046875,-0.8828125,0.16210506586868564,5.8361452678759385,22.590905992701565,2.719182487343494,2686,0,61.42879594857728,45.59282054232844,74.22059937573037,0.1280057956155104,0.09500666874150421,0.447265625,,
3.9933599999998695,1400,,,,0,-0.197265625,-1.001953125,0.16210506586868564,5.8361452678759385,22.590829954184514,2.716360351188826,2686,0,61.3648347879957,45.60158103242801,74.31223629945904,0.12798120450529474,0.09510569511086854,0.447265625,,
4.002015000000131,1400,,,,0.03125,0.3203125,-0.966796875,0.16210506586868564,5.8361452678759385,22.590590024767383,2.714573618727576,2691,0,61.323819712723875,45.68890600105577,74.50433814313743,0.1277365946941491,0.09516930444345782,0.4453125,,
4.00975,1400,,,,-0.0625,-0.265625,-0.91796875,0.16210506586868564,5.8361452678759385,22.590528674570205,2.71385711555055,2692,0,61.307466987531086,45.70419974249777,74.54915687805736,0.12769385090992488,0.09519468923847257,0.4453125,,
4.017589999999851,1400,,,,-0.15625,0.01171875,-0.916015625,0.16210506586868564,5.8361452678759385,22.5903064203365,2.7186072701511717,2691,0,61.414171269269495,45.67315222996184,74.36907685313965,0.12778065412457768,0.09502929286935173,0.447265625,,
4.025805000000168,1400,,,,0.3125,0.0859375,-1.31640625,0.16210506586868564,5.8361452678759385,22.590191331053656,2.7245015053513195,2690,0,61.547010287630016,45.66082112620923,74.1885282694005,0.12781516240683638,0.09482418789477597,0.447265625,,
4.032979999999982,1400,,,,-0.34375,-0.021484375,-0.796875,0.16210506586868564,5.8361452678759385,22.59043916710371,2.719286610069783,2688,0,61.4298787427011,45.624355665280454,74.2706262800517,0.127917319220733,0.09500499410589135,0.44921875,,
4.041294999999925,1400,,,,0.09375,0.12890625,-1.001953125,0.16210506586868564,5.8361452678759385,22.59061601402172,2.7167078070251613,2687,0,61.372102890800434,45.6069208359972,74.31213643949228,0.1279662200581959,0.09509443204610747,0.44921875,,
4.049114999999758,1400,,,,0,0.1796875,-1.09375,0.16210506586868564,5.8361452678759385,22.59061850680912,2.717781569090861,2693,0,61.396366612168734,45.710355042749235,74.45123802112658,0.12767665581284282,0.09505685091663414,0.447265625,,
4.057299999999814,1400,,,,-0.375,-0.25390625,-0.8046875,0.16210506586868564,5.8361452678759385,22.590686925323425,2.7123899476428908,2695,0,61.27475212659494,45.752349653973106,74.66753934711605,0.1275594655141199,0.09524551410372642,0.447265625,,
4.065665000000037,1400,,,,0.3125,0.380859375,-1.041015625,0.16210506586868564,5.8361452678759385,22.59039417224282,2.7140828047983816,2689,0,61.312200376501806,45.644774261772056,74.44647881087242,0.12786009707060303,0.0951873400732274,0.447265625,,
4.076840000000317,1400,,,,-0.375,-0.02734375,-1.01171875,0.16210506586868564,5.8361452678759385,22.590407530859213,2.7104238245127474,2687,0,61.229578777093,45.608266385552795,74.48731037590545,0.1279624447581423,0.095315783391594,0.447265625,,
4.095950000000186,1400,,,,0.1875,0.333984375,-0.986328125,0.15845508812580283,5.8361452678759385,22.590472377751368,2.708386127996329,2692,0,61.183722012786056,44.671615181111505,73.01225507623764,0.13064549477816137,0.0953872218930439,0.4453125,,
4.103580000000075,1400,,,,-0.3125,-0.21484375,-0.86328125,0.15845508812580283,5.8361452678759385,22.59055503572356,2.7072241883739743,2692,0,61.15769702150431,44.670520977331556,73.04153549409239,0.1306486949377094,0.0954278128854955,0.4453125,,
4.12117500000028,1400,,,,-0.375,-0.041015625,-0.84375,0.15845508812580283,5.931774878724264,22.590445849909447,2.7047877358754233,2690,0,61.10236088279292,44.63095132064664,73.04292448905225,0.1329072023607119,0.09707930746084667,0.447265625,,
4.129205000000074,1400,,,,-0.0625,0.060546875,-1.138671875,0.15845508812580283,5.931774878724264,22.590514762444812,2.7011100101381924,2691,0,61.01946555901429,44.65966009870376,73.18920231366444,0.13282176500256063,0.09721119030430403,0.447265625,,
4.1368999999999065,1400,,,,0.375,0.25,-0.9296875,0.15845508812580283,5.931774878724264,22.59058813791542,2.6993369498089104,2692,0,60.97960927858997,44.67270351995795,73.25842859351118,0.13278298404470165,0.0972747275507211,0.447265625,,
4.145160000000149,1400,,,,-0.3125,-0.298828125,-0.828125,0.15845508812580283,5.931774878724264,22.590559441884956,2.696825037139576,2688,0,60.922786305865195,44.59665250422577,73.20192527033574,0.133009419892271,0.09736545615204728,0.447265625,,
4.153270000000019,1400,,,,0.125,0.265625,-1.109375,0.15845508812580283,5.931774878724264,22.590367781917024,2.694838569450169,2686,0,60.87739439677446,44.56638532732552,73.2067884457401,0.13309975299000174,0.0974380545931932,0.447265625,,
4.161430000000168,1400,,,,-0.0625,0.154296875,-1.03125,0.15845508812580283,5.931774878724264,22.590252003096776,2.6944503522024523,2688,0,60.86831246608626,44.608636402116474,73.28712526237831,0.13297368754456768,0.09745259295679087,0.44921875,,
4.170149999999907,1400,,,,0.0625,-0.1015625,-0.78125,0.15845508812580283,5.931774878724264,22.590201979999687,2.691199023506467,2689,0,60.794729509389015,44.62628510211349,73.40485838533338,0.1329210994182291,0.09757054479217928,0.447265625,,
4.177819999999833,1400,,,,-0.15625,0.0078125,-0.998046875,0.15845508812580283,5.931774878724264,22.590290314627925,2.689068493669169,2693,0,60.74683794790573,44.67995659799022,73.55108201073135,0.13276142884595116,0.0976474674091043,0.447265625,,
4.186084999999963,1400,,,,0.0625,0.123046875,-1.095703125,0.15845508812580283,5.931774878724264,22.59037385209834,2.690868996363797,2694,0,60.787736614878824,44.70102280560091,73.53625138044633,0.13269886249629684,0.09758176910426966,0.44921875,,
4.193875,1400,,,,-0.125,0.0078125,-0.787109375,0.15845508812580283,5.931774878724264,22.590519648955087,2.689817737218224,2691,0,60.7643804447362,44.648104151448265,73.4774284287399,0.1328561423034544,0.09761927687420555,0.451171875,,
4.202005000000354,1400,,,,0.3125,0.4140625,-1.28515625,0.15845508812580283,5.931774878724264,22.59052688448192,2.6887200537217257,2689,0,60.73960265844632,44.627397832187526,73.47331210435854,0.13291778519172295,0.09765909915611547,0.451171875,,
4.209945000000298,1400,,,,-0.1875,-0.056640625,-0.8203125,0.15845508812580283,5.931774878724264,22.59098922894093,2.6860908949899187,2689,0,60.68145047667356,44.61921975735643,73.53024591017055,0.13294214715052888,0.09775268771804468,0.453125,,
4.217384999999776,1400,,,,-0.125,-0.4375,-1.03515625,0.15845508812580283,5.931774878724264,22.59097359586052,2.6884531132523004,2689,0,60.73477329519173,44.61598337436748,73.460360438852,0.13295179059377527,0.09766686458009506,0.453125,,
4.227379999999888,1400,,,,0.34375,0.322265625,-1.037109375,0.15845508812580283,5.931774878724264,22.590843040441897,2.685239279469983,2689,0,60.66181908853567,44.614769646738225,73.54670584741805,0.1329554074960451,0.09778432245935229,0.453125,,
4.235709999999963,1400,,,,-0.40625,-0.134765625,-0.935546875,0.15845508812580283,5.931774878724264,22.591054086495916,2.68578488990344,2689,0,60.674711712502095,44.61412784032303,73.53002030190156,0.13295732015550066,0.09776354450320389,0.45703125,,
4.2442999999998134,1400,,,,0.15625,0.078125,-1.08984375,0.15676103918386963,5.931774878724264,22.591204012518496,2.685178911354972,2689,0,60.66142459653249,44.13698838464214,72.75956454732697,0.13439464485049185,0.09778495836814445,0.453125,,
4.252285000000149,1400,,,,-0.25,0.12890625,-0.9296875,0.15676103918386963,5.931774878724264,22.591242168629,2.6827676137841014,2689,0,60.60705284515159,44.13692595201352,72.82473553825734,0.13439483495460014,0.09787268313276498,0.451171875,,
4.260935000000056,1400,,,,-0.15625,-0.23046875,-0.8359375,0.15676103918386963,6.009407685697135,22.59121067936875,2.683707815417393,2689,0,60.62820865996278,44.13689902679385,72.79927941519514,0.1361538263494463,0.09911900447861302,0.44921875,,
4.269245000000112,1400,,,,0.28125,0.265625,-1.12890625,0.15676103918386963,6.009407685697135,22.59105500508517,2.6838624863703475,2689,0,60.63128505567717,44.13688994867538,72.7955706499456,0.13615385435369776,0.0991139752386701,0.44921875,,
4.277189999999944,1400,,,,-0.40625,-0.173828125,-0.83984375,0.15676103918386963,6.009407685697135,22.59097052324855,2.6837984110671296,2689,0,60.62961079475882,44.13688630743692,72.7975748629618,0.13615386558622217,0.09911671222894644,0.451171875,,
4.285300000000279,1400,,,,0.25,-0.10546875,-0.94921875,0.15676103918386963,6.009407685697135,22.591216314982624,2.680768670298841,2693,0,60.56182492114945,44.203987811468025,72.98985436621325,0.1359471844786386,0.09922765196592558,0.451171875,,
4.293370000000111,1400,,,,0.0625,0.359375,-1.083984375,0.15676103918386963,6.009407685697135,22.59095842827227,2.690404343689173,2694,0,60.77881268352525,44.230700491291735,72.77322234246432,0.1358650805650316,0.09887339716535873,0.451171875,,
