Time (s),ESC signal (µs),Servo 1 (µs),Servo 2 (µs),Servo 3 (µs),AccX (g),AccY (g),AccZ (g),Torque (N·m),Thrust (N),Voltage (V),Current (A),Motor Electrical Speed (RPM),Motor Optical Speed (RPM),Electrical Power (W),Mechanical Power (W),Motor Efficiency (%),Propeller Mech. Efficiency (N/W),Overall Efficiency (N/W),Vibration (g),App message,90% settling time (s),Max acceleration (RPM/s),
0,1000,,,,-0.0625,0.05078125,-0.953125,-0.00036266929750721806,0.01484585518837787,22.5292772111796,0.06797014951827339,0,0,1.5313183405825068,0,0,0,0,0.05859375,,
0,1200,,,,-0.0625,0.052734375,-0.95703125,-0.00036266929750721806,0.01484585518837787,22.528941889422207,0.06731127228321347,0,0,1.516451741771592,0,0,0,0,0.05859375,,
0.008,1200,,,,-0.0625,0.05078125,-0.95703125,-0.00036266929750721806,0.01484585518837787,22.528988256222515,0.06798488900126301,0,0,1.5316307659100457,0,0,0,0,0.05859375,,
0.0159300000006333,1200,,,,-0.0625,0.05078125,-0.955078125,-0.00019796831813317453,0.01484585518837787,22.528939488266584,0.06774882197311878,0,0,1.5263091106337385,0,0,0,0,0.05859375,,
0.023940000000409783,1200,,,,-0.0625,0.04296875,-0.95703125,-0.00019796831813317453,0.01484585518837787,22.52869946239013,0.06752779833756878,0,0,1.5213134741039749,0,0,0,0,0.05859375,,
0.033054999999701976,1200,,,,-0.0625,0.044921875,-0.953125,-0.00019796831813317453,0.01484585518837787,22.528587546914284,0.06896299228254653,0,0,1.5536388091345237,0,0,0,0,0.05859375,,
0.041875,1200,,,,-0.03125,0.0234375,-0.978515625,-0.00019796831813317453,0.01484585518837787,22.52840965536256,0.0851387046679914,0,0,1.9180396162874387,0,0,0,0,0.05859375,,
0.05090000000037253,1200,,,,-0.125,0.01953125,-0.96484375,-0.00019796831813317453,0.01484585518837787,22.52677218228247,0.13805327630901268,0,0,3.1098947044308227,0,0,0,0,0.05859375,,
0.06155999999959022,1200,,,,0.25,-0.0078125,-0.9453125,-0.00019796831813317453,0.01484585518837787,22.525126279291534,0.1769894813970792,0,0,3.986710418575529,0,0,0,0,0.0625,,
0.06950000000093132,1200,,,,-0.01953125,-0.02734375,-1.015625,-0.00019796831813317453,0.019259473822302853,22.523724891084072,0.20948032230471414,0,0,4.718277149687004,0,0,0,0,0.0625,,
0.0776350000007078,1200,,,,-0.1875,0.25,-1.03125,-0.00019796831813317453,0.019259473822302853,22.52320724290561,0.2279239082503766,0,0,5.133577421136236,0,0,0,0,0.064453125,,
0.0848500000005588,1200,,,,0,0.01171875,-0.931640625,-0.00019796831813317453,0.019259473822302853,22.522895254072516,0.2417810624825403,0,0,5.445609544712617,0,0,0,0,0.068359375,,
0.0927600000007078,1200,,,,0.125,-0.19140625,-1.015625,-0.00019796831813317453,0.019259473822302853,22.5225575393805,0.2518487710817398,0,0,5.6722784379107525,0,0,0,0,0.072265625,,
0.10021000000089407,1200,,,,-0.09375,-0.01953125,-0.96484375,-0.00019796831813317453,0.019259473822302853,22.522244595097305,0.2582778881832361,0,0,5.816997771168036,0,0,0,0,0.072265625,,
0.10732500000018627,1200,,,,0,-0.033203125,-1.03125,-0.00019796831813317453,0.019259473822302853,22.521976720860998,0.25968551504684356,0,0,5.848631124629809,0,0,0,0,0.072265625,,
0.11526000000070781,1200,,,,-0.0625,0.18359375,-0.91796875,-0.00019796831813317453,0.019259473822302853,22.52187958758309,0.2605864310669636,0,0,5.868896222648176,0,0,0,0,0.07421875,,
0.12313499999977648,1200,,,,-0.0625,0.0078125,-0.994140625,-0.00019796831813317453,0.019259473822302853,22.52188545794778,0.2585690089500653,0,0,5.823461602548445,0,0,0,0,0.07421875,,
0.13098499999940397,1200,,,,-0.0625,0,-0.97265625,-0.00019796831813317453,0.019259473822302853,22.521861504303306,0.25753024683939435,0,0,5.800060552485884,0,0,0,0,0.07421875,,
0.14068500000052153,1200,,,,-0.03125,0.091796875,-0.9921875,-0.00019796831813317453,0.019259473822302853,22.521992397760094,0.25559809974924,2,0,5.75657845943431,0.00004256898278945676,0.0007394841065649254,0,0.003345646021855047,0.076171875,,
0.14786000000033528,1200,,,,0,-0.0390625,-0.95703125,-0.00019796831813317453,0.019259473822302853,22.52196372241242,0.2519486072649318,2,0,5.674377392733128,0.00004256898278945676,0.0007501965386365134,0,0.003394112250441332,0.076171875,,
0.1581000000005588,1200,,,,-0.0625,0.037109375,-0.96875,-0.00019796831813317453,0.019259473822302853,22.52230205082526,0.2472067849869571,2,0,5.567665880489663,0.00004256898278945676,0.0007645750248524777,0,0.0034591647982671384,0.076171875,,
0.1661350000007078,1200,,,,-0.0625,0.044921875,-1.001953125,-0.00008336040026878169,0.019259473822302853,22.522538713489944,0.24193623902466602,2,0,5.449018309629197,0.000017924925956974846,0.0003289569779073587,0,0.003534485062799037,0.076171875,,
0.17427500000037252,1200,,,,-0.0625,0.060546875,-0.947265625,-0.00008336040026878169,0.019259473822302853,22.52274177509587,0.23741399835498841,2,0,5.34721417874244,0.000017924925956974846,0.0003352198987696139,0,0.0036017771457271808,0.076171875,,
0.18283500000089406,1200,,,,-0.0625,0.04296875,-0.96875,-0.00008336040026878169,0.019259473822302853,22.523027355294015,0.23196245324467035,2,0,5.2244966798308194,0.000017924925956974846,0.0003430938338265973,0,0.003686378804039458,0.076171875,,
0.20020000000018626,1200,,,,-0.03125,0.03125,-0.98828125,-0.00008336040026878169,0.019259473822302853,22.52360848603038,0.2211263024789029,520,0,4.980562262998338,0.004543503631047267,0.0912247130168802,0,0.00386692762891162,0.076171875,,
0.2169550000000745,1200,,,,-0.03125,0.025390625,-0.966796875,-0.00008336040026878169,0.02456097584298604,22.52364654551276,0.21321213242518847,718,0,4.802314709960005,0.0062673380780386995,0.13050660892840352,0,0.0051144036420700525,0.076171875,,
0.23250499999988825,1200,,,,-0.03125,0.04296875,-0.96875,-0.00008336040026878169,0.02456097584298604,22.5241723690326,0.20505373560270443,755,0,4.618665685629351,0.0065888322273414636,0.14265661720964445,0,0.005317764374980802,0.07421875,,
0.2427949999999255,1200,,,,-0.0625,0.03125,-0.9765625,-0.00008336040026878169,0.02456097584298604,22.524326790034664,0.1981525226193217,759,0,4.463252173747337,0.006623140030995969,0.14839269154346696,0,0.00550293258970503,0.07421875,,
0.25104499999992547,1200,,,,-0.0625,0.05078125,-0.96875,-0.00008336040026878169,0.02456097584298604,22.524378205994854,0.19459157558666648,784,0,4.38305424421451,0.006844850068230121,0.15616621850539728,0,0.005603621236357212,0.07421875,,
0.2678400000007823,1200,,,,-0.0625,0.0703125,-0.974609375,-0.00008336040026878169,0.02456097584298604,22.524840130512956,0.1857079073716272,798,0,4.183040924518012,0.0069620282675782845,0.16643462000985515,0,0.005871560017265684,0.07421875,,
0.275089999999851,1200,,,,-0.03125,0.04296875,-0.990234375,-0.00008336040026878169,0.02456097584298604,22.524802077415746,0.18251746473077365,799,0,4.111169768732386,0.006973577408803867,0.16962513836917176,0,0.005974206180874654,0.07421875,,
0.28875500000081955,1200,,,,0.1875,0.0625,-0.9453125,-0.00008336040026878169,0.02456097584298604,22.52326792306187,0.1794793208747695,800,0,4.042460830711625,0.006979653948002,0.17265854241495074,0,0.006075748627269292,0.07421875,,
0.309390000000596,1200,,,,-0.0625,0.05859375,-1.06640625,-0.00008336040026878169,0.02456097584298604,22.518163243087695,0.3272276053005604,844,0,7.368564633802687,0.007366230936546436,0.09996832901152085,0,0.0033332103419863586,0.080078125,,
0.3181849999995902,1200,,,,-0.03125,0.140625,-1.02734375,0.009778287265732053,0.02456097584298604,22.517115533803906,0.3571494459396151,854,0,8.041975337056366,0.874242335662056,10.870990012039233,0.0280940133428636,0.003054097384483672,0.083984375,,
0.3259349999995902,1200,,,,-0.15625,0.0546875,-0.88671875,0.009778287265732053,0.02456097584298604,22.51646778641578,0.38067239341813397,857,0,8.571397683577208,0.8779690337274556,10.243008971683155,0.027974763231353787,0.0028654575075946894,0.0859375,,
0.33592999999970197,1200,,,,0,0.0703125,-1.08984375,0.009778287265732053,0.02456097584298604,22.5158911406333,0.40056609899180684,1090,0,9.019102679527665,1.1164392951802389,12.37860721681802,0.02199938317203435,0.0027232172329888934,0.087890625,,
0.3451550000002608,1200,,,,-0.09375,0.052734375,-0.94140625,0.009778287265732053,0.02456097584298604,22.5153432515922,0.4127479793957486,1169,0,9.293162432496384,1.1972079687608765,12.882675595709731,0.020515212464219498,0.002642908269536006,0.087890625,,
0.35323500000033525,1200,,,,-0.03125,0.013671875,-0.98046875,0.009778287265732053,0.02456097584298604,22.515437432341685,0.41756910246690293,1193,0,9.401751000272627,1.2213553645448707,12.990722308104678,0.020109606553485364,0.0026123831446157033,0.0859375,,
0.3636150000002235,1200,,,,-0.0625,0.02734375,-1,0.009778287265732053,0.1105554231118925,22.51561150728878,0.4222133621995023,1274,0,9.5063920364702,1.3043807144550141,13.721091129535843,0.0847570206203822,0.011629588038002125,0.087890625,,
0.3737999999998137,1200,,,,-0.03125,0.025390625,-0.978515625,0.009778287265732053,0.1105554231118925,22.51563483663166,0.4231975764870657,1379,0,9.528562095930267,1.4124634875068727,14.823469410039824,0.07827134937628223,0.011602529531618595,0.087890625,,
0.3819300000006333,1200,,,,-0.0625,0.025390625,-0.96875,0.009778287265732053,0.1105554231118925,22.51600557561607,0.42024883840845373,1416,0,9.46232518875092,1.4496109298656483,15.319817285385486,0.07626558329146904,0.01168374801188654,0.087890625,,
0.3904050000002608,1200,,,,-0.0625,0.0078125,-0.96484375,0.009778287265732053,0.1105554231118925,22.516005356171004,0.41832261694290557,1477,0,9.418954283693934,1.512299507576237,16.055917270925985,0.07310418508902361,0.011737547479478241,0.0859375,,
0.3991400000005961,1200,,,,-0.0625,0.08984375,-0.98828125,0.009778287265732053,0.1105554231118925,22.51615300834628,0.4143956003094512,1505,0,9.330594742553112,1.5414364104109612,16.52023748691052,0.07172233792143096,0.011848700555784875,0.0859375,,
0.4068600000003353,1200,,,,-0.0625,-0.001953125,-0.96484375,0.009778287265732053,0.1105554231118925,22.516437809784055,0.40997338620382306,1515,0,9.231140254124963,1.5511440165137804,16.80338478034333,0.07127347424539436,0.011976356123772517,0.087890625,,
0.41516500000003725,1200,,,,-0.03125,-0.03515625,-0.9765625,0.009778287265732053,0.1105554231118925,22.516614564258607,0.40600747704574297,1533,0,9.141913870846068,1.5692642246830342,17.165598438719503,0.07045048333668787,0.012093247067712835,0.087890625,,
0.423195000000298,1200,,,,0,0.171875,-0.99609375,0.009778287265732053,0.1105554231118925,22.51678011270813,0.40102416956386466,1553,0,9.02977304595092,1.5903917633271476,17.61275455356325,0.06951458480934736,0.012243433201398913,0.087890625,,
0.4308700000001118,1200,,,,-0.09375,0.02734375,-0.951171875,0.009778287265732053,0.1105554231118925,22.516807292701685,0.3969061156906614,1561,0,8.937058520301385,1.598760620495204,17.889114375423034,0.06915070442356079,0.012370448605741505,0.087890625,,
0.43805000000074507,1200,,,,-0.03125,0.046875,-0.962890625,0.009778287265732053,0.1105554231118925,22.51685824196267,0.39045110044494635,1564,0,8.791732079137184,1.6018150197844623,18.21956134884474,0.06901884533881364,0.012574930868769417,0.087890625,,
0.4463849999997765,1200,,,,-0.0625,0.08203125,-0.95703125,0.009778287265732053,0.1105554231118925,22.5171146730323,0.3848410668831806,1581,0,8.66551043390067,1.6185615825974493,18.678202454934606,0.06830473693467654,0.012758097050969378,0.087890625,,
0.4553100000005215,1200,,,,-0.03125,-0.013671875,-0.970703125,0.009778287265732053,0.1105554231118925,22.517343317198478,0.37929161739632644,1587,0,8.540639566248574,1.625357150464492,19.030859900559186,0.06801915694670439,0.012944630464068784,0.087890625,,
0.4645,1200,,,,-0.0625,0.17578125,-1,0.01968872244473995,0.1105554231118925,22.517712174273484,0.37355817456479334,1590,0,8.411675455197026,3.277698322771523,38.96605783508263,0.03372959077527616,0.013143091849030801,0.087890625,,
0.473785000000149,1200,,,,-0.03125,-0.015625,-0.962890625,0.01968872244473995,0.1105554231118925,22.517843535254155,0.3657015687849978,1596,0,8.234810706497566,3.290450478584466,39.95781561788883,0.03359887159263762,0.013425375160677372,0.087890625,,
0.48201500000059605,1200,,,,-0.0625,0.09765625,-0.9921875,0.01968872244473995,0.1105554231118925,22.517816996203493,0.36091277774420105,1600,0,8.126967880835384,3.2998554185776623,40.60377088925403,0.03350311122405031,0.013603526522185336,0.087890625,,
0.48970000000018626,1200,,,,-0.03125,-0.001953125,-0.98828125,0.01968872244473995,0.1105554231118925,22.517533849009634,0.36194966987461263,1602,0,8.150213943039454,3.3032634268952394,40.52977565964797,0.03346854574532202,0.013564726507125669,0.087890625,,
0.4974050000002608,1200,,,,0,0.125,-0.99609375,0.01968872244473995,0.1105554231118925,22.51752410675576,0.36018588479050845,1610,0,8.110494343683428,3.319054728902874,40.92296459694597,0.03330931007227983,0.01363115716836603,0.087890625,,
0.5064500000001863,1200,,,,-0.0625,0.080078125,-0.98828125,0.01968872244473995,0.1105554231118925,22.517646958451337,0.35433444412247045,1613,0,7.978777917968892,3.3253686950735517,41.677669553686115,0.03324606479746968,0.013856185025893778,0.087890625,,
0.514429999999702,1200,,,,-0.03125,0.0703125,-0.98046875,0.01968872244473995,0.3614372278886192,22.517962709644394,0.3467724883205796,1614,0,7.808609960733408,3.3278377566645063,42.6175436268294,0.10861023112223112,0.04628701263171709,0.087890625,,
0.5246550000002608,1200,,,,-0.03125,0.02734375,-1.01171875,0.01968872244473995,0.3614372278886192,22.51828972227798,0.3391668004710275,1621,0,7.637456277184645,3.3415342716478866,43.75192669357786,0.108165051891081,0.0473242942114562,0.087890625,,
0.5331650000000373,1200,,,,-0.0625,0.09375,-0.94921875,0.01968872244473995,0.3614372278886192,22.51858581708929,0.3314378148680603,1627,0,7.463510877134968,3.353643914886506,44.9338651754451,0.10777447965904602,0.04842723938353324,0.087890625,,
0.541875,1200,,,,-0.01953125,0.01953125,-0.9609375,0.01968872244473995,0.3614372278886192,22.519082113327354,0.32622149798281813,1628,0,7.346208700207735,3.3571926283669105,45.69966312380937,0.1076605568696362,0.04920051180664096,0.087890625,,
0.548679999999702,1200,,,,-0.0625,0.10546875,-0.96875,0.01968872244473995,0.3614372278886192,22.519236125047268,0.3214479125421078,1627,0,7.238761444439269,3.354651914048805,46.34289912434964,0.10774209579687583,0.04993081076960631,0.087890625,,
0.5575450000008568,1200,,,,-0.03125,0.0625,-0.984375,0.01968872244473995,0.3614372278886192,22.51907166265682,0.3162631282503744,1624,0,7.121952049326206,3.34935311374094,47.02858276134864,0.10791254777103058,0.050749741838379,0.087890625,,
0.5665400000000372,1200,,,,-0.0625,0.064453125,-0.96484375,0.01968872244473995,0.3614372278886192,22.519560550228324,0.3114398454014707,1623,0,7.013488456272167,3.3472448349632393,47.725819409737475,0.10798051702500831,0.05153458655305629,0.087890625,,
0.5742050000000745,1200,,,,0,0.0859375,-0.97265625,0.01968872244473995,0.3614372278886192,22.519774170707286,0.30826468128297496,1622,0,6.942051007297653,3.34411102580823,48.17180142140729,0.10808170694669575,0.05206490524322964,0.0859375,,
0.5824950000001118,1200,,,,-0.03125,0.01171875,-1,0.01968872244473995,0.3614372278886192,22.519984074475374,0.30450005463315855,1620,0,6.857336381015612,3.34036739845724,48.71231645723222,0.10820283662675854,0.052708108193328586,0.0859375,,
0.5899399999994784,1200,,,,-0.0625,0.01953125,-0.8984375,0.01968872244473995,0.3614372278886192,22.520049336594703,0.3019630613580272,1619,0,6.800223039611946,3.3389279638420892,49.1002713351094,0.10824948360752144,0.0531507901701478,0.0859375,,
0.5982750000003725,1200,,,,-0.03125,0.044921875,-0.97265625,0.01968872244473995,0.3614372278886192,22.520145786203514,0.3001360005749652,1619,0,6.759106488636278,3.33834616075118,49.39034717626895,0.10826834920177666,0.053474113552772706,0.0859375,,
0.6069900000002235,1200,,,,-0.1875,0.1171875,-1.03125,0.01968872244473995,0.3614372278886192,22.520397350685002,0.2968539065107944,1619,0,6.685267929726187,3.338424266986083,49.937030229434896,0.10826581614053607,0.054064733334243914,0.0859375,,
0.6150250000003725,1200,,,,0,0.021484375,-0.9609375,0.01811738418934655,0.3614372278886192,22.520485215408367,0.29260859483081597,1619,0,6.589687533788808,3.072018278080431,46.61857276735157,0.11765464758707926,0.054848917499553604,0.0859375,,
0.6233950000004843,1200,,,,-0.0625,0.05078125,-0.97265625,0.01811738418934655,0.3614372278886192,22.52052685258983,0.2892315188297444,1619,0,6.5136461864205994,3.0720286266978367,47.16296431793124,0.1176542512486717,0.05548923253494022,0.0859375,,
0.6326450000004843,1200,,,,0,0.017578125,-0.9609375,0.01811738418934655,0.3614372278886192,22.520571812050886,0.28630361791404835,1619,0,6.447721187283304,3.071733040052119,47.64059969141391,0.1176655728788484,0.056056584549821056,0.0859375,,
0.64075,1200,,,,-0.0625,0.06640625,-1.05078125,0.01811738418934655,0.3614372278886192,22.52080485884486,0.28366995998608036,1619,0,6.388475813162845,3.0716352212743505,48.08087736585836,0.11766932003685882,0.056576441464161485,0.087890625,,
0.6500050000008195,1200,,,,-0.03125,0.021484375,-0.95703125,0.01811738418934655,0.3614372278886192,22.521218562481575,0.279980310891965,1619,0,6.305497774789485,3.0715933626793697,48.71294023701274,0.11767092359300298,0.05732096668620046,0.0859375,,
0.6574150000009685,1200,,,,-0.0625,0.083984375,-0.982421875,0.01811738418934655,0.3614372278886192,22.521223902156883,0.27732873252469536,1618,0,6.2457824796900425,3.070205345748185,49.15645646853441,0.11772412173966162,0.05786900665592122,0.0859375,,
0.6654550000000745,1200,,,,-0.03125,0.01953125,-1.00390625,0.01811738418934655,0.539257796225243,22.521163973987562,0.274812577038399,1618,0,6.189099109595873,3.0696285892891377,49.59734098505289,0.175675258598671,0.0871302570335563,0.0859375,,
0.6768849999997765,1200,,,,0,0.0859375,-0.99609375,0.01811738418934655,0.539257796225243,22.5210405571866,0.27186321776165784,1618,0,6.122642553217548,3.069399738972304,50.13194404692602,0.17568835670970545,0.08807598868267334,0.0859375,,
0.6854100000001491,1200,,,,-0.0625,0.037109375,-0.9453125,0.01811738418934655,0.539257796225243,22.521113923682982,0.26972423514096316,1617,0,6.074490227587888,3.067250178038351,50.493951971609675,0.1758114809435347,0.0887741647482041,0.0859375,,
0.6933250000001863,1200,,,,0,0.06640625,-0.94140625,0.01811738418934655,0.539257796225243,22.52142204246718,0.2674768203079492,1616,0,6.02395835673248,3.066271154839553,50.901267460002195,0.1758676154175479,0.08951884529921411,0.0859375,,
0.702304999999702,1200,,,,-0.03125,0.021484375,-0.962890625,0.01811738418934655,0.539257796225243,22.521345109575336,0.2651145050078694,1616,0,5.970735260836466,3.0658117707046726,51.347307103265706,0.17589396758734974,0.0903168157131951,0.0859375,,
0.7114550000000746,1200,,,,-0.0625,0.0703125,-1,0.01811738418934655,0.539257796225243,22.5217139569566,0.2643883623634269,1617,0,5.95447907069729,3.0672327348836843,51.51135302461481,0.17581248077208353,0.09056338763184099,0.0859375,,
0.7201800000006333,1200,,,,0,0.015625,-0.98828125,0.01811738418934655,0.539257796225243,22.5216931008498,0.2619223422876578,1617,0,5.8989346092583625,3.0685270369337974,52.01832602310512,0.1757383232197596,0.09141613391999281,0.0859375,,
0.728035000000149,1200,,,,-0.0625,0.08203125,-0.97265625,0.01811738418934655,0.539257796225243,22.521806521545514,0.260047709279914,1618,0,5.856744194773339,3.0689667063493835,52.40055915517333,0.17571314641816504,0.09207467123226691,0.0859375,,
0.7359249999998138,1200,,,,-0.03125,0.072265625,-0.9375,0.01811738418934655,0.539257796225243,22.521912072927144,0.25809430019341917,1618,0,5.812777135479849,3.068999079847648,52.79746682726207,0.1757112928987952,0.0927711115799947,0.0859375,,
0.7450250000003725,1200,,,,-0.0625,0.0390625,-0.9765625,0.01811738418934655,0.539257796225243,22.521818264756536,0.2549219409635314,1618,0,5.741305626079648,3.0688716863946173,53.45250516632301,0.17571858693732995,0.09392598676086608,0.0859375,,
0.7528499999996274,1200,,,,-0.0625,0.08203125,-0.978515625,0.01811738418934655,0.539257796225243,22.52179130895845,0.2531960378328428,1618,0,5.702428324326433,3.068818229792775,53.81598952679973,0.1757216478284727,0.09456634359169078,0.0859375,,
0.7601700000008568,1200,,,,-0.125,0.05078125,-0.96484375,0.016925277342065375,0.539257796225243,22.521713132659933,0.2537123422647789,1617,0,5.714036590702583,2.866754420817534,50.17038962407213,0.18810742640154673,0.09437422873747073,0.0859375,,
0.7679599999999628,1200,,,,-0.0625,0.1171875,-0.94921875,0.016925277342065375,0.539257796225243,22.521890017632447,0.2529934319234054,1617,0,5.697890248962318,2.866560066962635,50.30914850430269,0.18812018015608253,0.09464166080128533,0.0859375,,
0.7756900000004098,1200,,,,-0.03125,0.0234375,-0.98046875,0.016925277342065375,0.539257796225243,22.5220678687568,0.2526689090951642,1617,0,5.69062631896603,2.86648814136796,50.372102835400945,0.1881249004462637,0.0947624683117876,0.0859375,,
0.7831550000002607,1200,,,,-0.03125,0.056640625,-0.97265625,0.016925277342065375,0.539257796225243,22.52196623009893,0.251035818137931,1617,0,5.653820218647739,2.8664545372965566,50.69942846506261,0.18812710587548126,0.09537936746673221,0.0859375,,
0.7915049999998882,1200,,,,-0.0625,0.05859375,-0.96875,0.016925277342065375,0.539257796225243,22.52206567659366,0.2501275808043054,1618,0,5.633389802402054,2.868012150515445,50.910947956992715,0.1880249343184709,0.09572527645704647,0.083984375,,
0.800140000000596,1200,,,,-0.0625,0.03515625,-0.986328125,0.016925277342065375,0.539257796225243,22.52231679513779,0.24963769351557666,1619,0,5.622419217365333,2.868663833524644,51.02187728486211,0.18798222012743562,0.09591205767077954,0.083984375,,
0.8074700000006706,1200,,,,-0.03125,0.013671875,-0.966796875,0.016925277342065375,0.539257796225243,22.522301540086957,0.24943847383854642,1619,0,5.617928523490834,2.8688838196334436,51.066577433968384,0.18796780564440693,0.09598872502033227,0.083984375,,
0.8145199999995529,1200,,,,-0.125,0.02734375,-0.95703125,0.016925277342065375,0.6147178108468812,22.522546949137716,0.24870850973602457,1618,0,5.601549087179688,2.8679912414923194,51.19996623891622,0.21433740868993076,0.1097406808866124,0.083984375,,
0.8224000000003725,1200,,,,-0.0625,0.087890625,-0.974609375,0.016925277342065375,0.6147178108468812,22.522611998504765,0.24739969512630552,1618,0,5.57208734187815,2.8675923142693867,51.46352055032261,0.21436722639685996,0.11032092160990463,0.083984375,,
0.8336399999996648,1200,,,,0,0.10546875,-0.9921875,0.016925277342065375,0.6147178108468812,22.522679788164062,0.24582287714159176,1618,0,5.536589946465266,2.867414692645032,51.79026657872108,0.2143805053463815,0.11102823521170037,0.083984375,,
0.841035000000149,1200,,,,-0.0625,0.017578125,-0.951171875,0.016925277342065375,0.6147178108468812,22.522768715548178,0.24434180637082784,1618,0,5.5032539924294115,2.8676367041072126,52.108020237701126,0.21436390808028194,0.11170078860480034,0.083984375,,
0.8495600000005216,1200,,,,-0.0625,0.001953125,-0.9921875,0.016925277342065375,0.6147178108468812,22.522697901283788,0.24386346939877504,1618,0,5.492463250427574,2.867957129785073,52.216227929459706,0.21433995803589598,0.11192024103193172,0.0859375,,
0.8690849999999627,1200,,,,-0.03125,0.046875,-0.990234375,0.016925277342065375,0.6147178108468812,22.522725685465502,0.24191705715210707,1618,0,5.448631516871988,2.868548168892857,52.647130935726516,0.21429579517367395,0.11282058787484042,0.0859375,,
0.877070000000298,1200,,,,-0.03125,0.0859375,-0.98046875,0.016925277342065375,0.6147178108468812,22.522942184265926,0.2406828455149044,1619,0,5.420885814276799,2.869136279553514,52.92744355539032,0.2142518691871066,0.11339803713037457,0.0859375,,
0.8854150000009686,1200,,,,-0.125,0.0546875,-0.98828125,0.016925277342065375,0.6147178108468812,22.523191983007965,0.24027767996549362,1619,0,5.41182031509456,2.86933571896672,53.01978912647222,0.21423697714544465,0.11358799351344323,0.0859375,,
0.8930800000000745,1200,,,,-0.0625,0.052734375,-0.931640625,0.016925277342065375,0.6147178108468812,22.52323181172407,0.24032079024099343,1620,0,5.41280086777461,2.8706004064004027,53.03354910930994,0.21414259172968914,0.1135674165489138,0.0859375,,
0.9015800000010058,1200,,,,-0.0625,0.068359375,-1,0.016925277342065375,0.6147178108468812,22.52326947117438,0.23929787647124937,1621,0,5.389770555641749,2.8722782535146285,53.29128993270535,0.21401749990436655,0.11405268638076338,0.0859375,,
0.9094700000006706,1200,,,,-0.0625,0.03125,-0.91015625,0.016925277342065375,0.6147178108468812,22.523371217636207,0.2420596011625817,1621,0,5.451998253777792,2.872941971282864,52.69521077509789,0.21396805678340564,0.11275091851339675,0.0859375,,
0.917535000000149,1200,,,,-0.03125,-0.0078125,-0.9609375,0.016135588524568832,0.6147178108468812,22.523111081425437,0.24443516473071367,1621,0,5.505440367436389,2.7397272783900593,49.763998800078085,0.22437189850812692,0.11165642888129672,0.083984375,,
0.9256850000005216,1200,,,,-0.0625,0.07421875,-0.96875,0.016135588524568832,0.6147178108468812,22.523155454218255,0.24437961199473848,1622,0,5.504199990799035,2.741246605969905,49.80281622310681,0.22424754106695277,0.11168159076241045,0.083984375,,
0.934375,1200,,,,-0.03125,0.060546875,-0.9453125,0.016135588524568832,0.6147178108468812,22.522984088906785,0.2442044058943362,1623,0,5.500211948399069,2.741862470670343,49.85012389328759,0.22419717160233504,0.11176256780901059,0.083984375,,
0.943804999999702,1200,,,,-0.0625,0.056640625,-0.97265625,0.016135588524568832,0.6147178108468812,22.52315116564083,0.2413913239815388,1623,0,5.436893280110379,2.742088006500785,50.4348322695993,0.2241787314592177,0.1130641671955719,0.083984375,,
0.9517050000000745,1200,,,,-0.03125,0.083984375,-0.978515625,0.016135588524568832,0.6147178108468812,22.523324414225446,0.2405239413014896,1625,0,5.417398759321569,2.7462067569398534,50.69235031322978,0.2238425090512384,0.11347102883817685,0.0859375,,
0.9596499999994412,1200,,,,-0.125,-0.02734375,-1.05078125,0.016135588524568832,0.64823578096299,22.52342261410887,0.23822453711382738,1626,0,5.3656319264651975,2.747818631292313,51.21146342034939,0.23590923126470004,0.12081256967434933,0.0859375,,
0.9674750000005587,1200,,,,-0.0625,0.083984375,-0.978515625,0.016135588524568832,0.64823578096299,22.52345068028606,0.23794496246498284,1627,0,5.359341626702559,2.748454912862668,51.28344308503635,0.23585461705384733,0.12095436830024024,0.0859375,,
0.975554999999702,1200,,,,-0.0625,0.107421875,-1.001953125,0.016135588524568832,0.64823578096299,22.52367591724195,0.23767407108528424,1624,0,5.3532937510564675,2.743899122706847,51.25627791610242,0.23624621459243278,0.12109101631776907,0.0859375,,
0.9879749999996275,1200,,,,-0.125,-0.01171875,-0.9765625,0.016135588524568832,0.64823578096299,22.523820625816388,0.23721204214197603,1623,0,5.342921487489466,2.742135897186357,51.32278105914734,0.2363981236772874,0.12132609144282656,0.0859375,,
0.997410000000149,1200,,,,-0.041015625,0.060546875,-0.9765625,0.016135588524568832,0.64823578096299,22.52367511671939,0.23644345691349042,1622,0,5.325575606993497,2.740460995127987,51.45849382983576,0.23654260437037003,0.12172126147485966,0.0859375,,
1.005320000000298,1200,,,,-0.03125,0.05859375,-0.970703125,0.016135588524568832,0.64823578096299,22.52355048995828,0.23692497156680273,1620,0,5.3363915594168105,2.7373808355673335,51.29647637525476,0.23680876717639485,0.12147455330917144,0.0859375,,
1.0230650000004098,1200,,,,-0.09375,0.056640625,-0.970703125,0.016135588524568832,0.64823578096299,22.52348753525396,0.23599493774846012,1619,0,5.315429038760476,2.7359929492551314,51.47266437580262,0.23692889308778037,0.1219536139483774,0.0859375,,
1.0323050000006333,1200,,,,-0.03125,0.056640625,-1.005859375,0.016135588524568832,0.64823578096299,22.523414150997688,0.23742637908530237,1620,0,5.347652666510041,2.7364975488655965,51.171938783591116,0.23688520431224697,0.12121875173804778,0.0859375,,
1.0403849999997765,1200,,,,-0.03125,0.06640625,-0.986328125,0.016135588524568832,0.64823578096299,22.52351969113893,0.23739262745901277,1620,0,5.346917519104283,2.7367066417897203,51.18288494280298,0.2368671055437144,0.12123541809778704,0.0859375,,
1.0487350000003353,1200,,,,-0.0625,0.04296875,-1.01953125,0.016135588524568832,0.64823578096299,22.52354315466844,0.23609174645415484,1620,0,5.317622639721197,2.7367773141863507,51.46618140488886,0.23686098887286036,0.12190330621071993,0.0859375,,
1.0576399999996646,1200,,,,-0.0625,0.0390625,-0.9609375,0.016135588524568832,0.64823578096299,22.52356853203617,0.2349266720477705,1619,0,5.291386997871145,2.7354742156081078,51.6967331383748,0.2369738224050064,0.1225077245765224,0.0859375,,
1.0679749999996275,1200,,,,-0.03125,0.09375,-0.98046875,0.015642953289141327,0.64823578096299,22.523595308974567,0.23477509751024975,1619,0,5.287979284945908,2.6514863486914906,50.141768827269786,0.24448015026850672,0.12258667177619643,0.0859375,,
1.0776700000008568,1200,,,,-0.03125,-0.005859375,-0.984375,0.015642953289141327,0.64823578096299,22.523670096685805,0.23396008134440413,1618,0,5.2696396879951335,2.6510075770463573,50.307188612642115,0.2445243033538317,0.12301330249196128,0.0859375,,
1.0848400000007823,1200,,,,-0.0625,0.12109375,-1.017578125,0.015642953289141327,0.64823578096299,22.523761428085205,0.23471200967481798,1618,0,5.286597310222026,2.650144028658783,50.12948543545266,0.24460398150173632,0.12261871728145024,0.087890625,,
1.0920149999996647,1200,,,,0,0.00390625,-0.9453125,0.015642953289141327,0.64823578096299,22.52368509038067,0.23517903797153297,1618,0,5.297098591129487,2.649870869520967,50.02494901564485,0.24462919624463636,0.12237563069876112,0.087890625,,
1.099375,1200,,,,-0.03125,0.072265625,-0.978515625,0.015642953289141327,0.64823578096299,22.523698939106218,0.23391540747271322,1618,0,5.2686402151337495,2.649751041617062,50.292882668394455,0.24464025894575797,0.12303663839124643,0.087890625,,
1.1083050000006334,1200,,,,-0.0625,0.01171875,-0.94140625,0.015642953289141327,0.6728831917363891,22.52358308195525,0.23278167185710086,1618,0,5.243077326029855,2.649938462136572,50.54166279373089,0.2539240821441046,0.1283374533493496,0.087890625,,
1.118390000000596,1200,,,,-0.03125,0.013671875,-0.982421875,0.015642953289141327,0.6728831917363891,22.52360674885854,0.23276406429999458,1618,0,5.242686249559101,2.6500181321527325,50.54695257370386,0.25391644818285636,0.12834702663982173,0.087890625,,
1.12575,1200,,,,-0.0625,0.09765625,-0.994140625,0.015642953289141327,0.6728831917363891,22.523397633855076,0.23255833535768952,1618,0,5.23800386032866,2.650046193141553,50.59267354139131,0.2539137594951526,0.12846175941805604,0.087890625,,
1.1352549999998882,1200,,,,0,-0.09375,-0.98046875,0.015642953289141327,0.6728831917363891,22.52333709872865,0.23283642369123503,1617,0,5.244253259660097,2.648924881951512,50.511002249407014,0.25402124323006986,0.12830867588191225,0.087890625,,
1.1430449999999255,1200,,,,-0.0625,0.07421875,-0.9921875,0.015642953289141327,0.6728831917363891,22.523255461043664,0.2320195290174599,1617,0,5.225835124011282,2.648343456422419,50.67789919842679,0.254077011840968,0.12876089194714066,0.087890625,,
1.1503099999995903,1200,,,,0,-0.10546875,-0.9921875,0.015642953289141327,0.6728831917363891,22.523055307694015,0.2323230362485499,1617,0,5.232624594677492,2.6481834468758656,50.6090853444663,0.25409236377872835,0.1285938212385484,0.087890625,,
1.1585599999995901,1200,,,,-0.03125,0.10546875,-1,0.015642953289141327,0.6728831917363891,22.523198188253918,0.2310662985852317,1616,0,5.20435203766143,2.6471487525906,50.864137042122415,0.2541916811731415,0.12929240506158157,0.087890625,,
1.1673799999998882,1200,,,,0,0.03515625,-0.9765625,0.015642953289141327,0.6728831917363891,22.52331724016693,0.2313861829943143,1616,0,5.211584404572259,2.646706963771949,50.78507337327059,0.2542341108958398,0.12911297975833438,0.087890625,,
1.1747450000001118,1200,,,,-0.03125,0.048828125,-1.015625,0.015642953289141327,0.6728831917363891,22.523404062290652,0.23124614155179676,1616,0,5.208450284016778,2.646570513172892,50.813012870535566,0.2542472185748379,0.12919067189741107,0.08984375,,
1.182795000000857,1200,,,,-0.0625,0,-0.974609375,0.015642953289141327,0.6728831917363891,22.523433211987626,0.2313059010408206,1616,0,5.209803013631542,2.646747540729838,50.803217200431114,0.25423021326425493,0.12915712743375868,0.08984375,,
1.1909750000005588,1200,,,,0,-0.0625,-0.9453125,0.015642953289141327,0.6728831917363891,22.523262613574424,0.23190238126950768,1616,0,5.223198234046384,2.6470615829109607,50.678941604333794,0.2542000518916612,0.12882589585636117,0.08984375,,
1.1989500000001863,1200,,,,-0.0625,0.1484375,-1.015625,0.015642953289141327,0.6728831917363891,22.52339682900115,0.23240922044994217,1616,0,5.234645098912857,2.6471834293619088,50.570447075995304,0.25418835138998447,0.1285441857130171,0.08984375,,
1.2066650000009687,1200,,,,-0.0625,-0.078125,-0.984375,0.015642953289141327,0.6728831917363891,22.52342609413444,0.23293855145282757,1616,0,5.246574248122494,2.6472311252871163,50.45637400889614,0.25418377160528766,0.1282519144710823,0.091796875,,
1.2144900000002234,1200,,,,0,0.072265625,-0.998046875,0.01511465952989527,0.6728831917363891,22.523454385458173,0.23163294163433562,1616,0,5.217173995070453,2.5578473449001944,49.027449483513976,0.26306620411807435,0.12897465033218666,0.091796875,,
1.2225300000002608,1200,,,,-0.09375,0.013671875,-0.955078125,0.01511465952989527,0.6728831917363891,22.52338315711973,0.23103657301020347,1616,0,5.20372525721668,2.557854713283052,49.15429979197582,0.2630654463062648,0.1293079781264806,0.091796875,,
1.2296800000006334,1200,,,,-0.0625,0.2421875,-0.984375,0.01511465952989527,0.6728831917363891,22.52352422287555,0.23165761939522794,1616,0,5.217746001862102,2.557857420219673,49.02226783953893,0.26306516790861656,0.1289605112046948,0.091796875,,
1.2376500000003725,1200,,,,-0.03125,0.048828125,-0.958984375,0.01511465952989527,0.6728831917363891,22.523744082753705,0.2310578559632887,1616,0,5.204288016026882,2.5580145306797486,49.152055435867624,0.2630490107331728,0.12929399557907045,0.091796875,,
1.2465,1200,,,,-0.125,-0.10546875,-0.953125,0.01511465952989527,0.6728831917363891,22.52369154562553,0.23133849281960828,1616,0,5.210596854898764,2.558153916539615,49.09521860503479,0.2630346780097541,0.1291374501759381,0.091796875,,
1.2549550000000744,1200,,,,0,0.080078125,-0.990234375,0.01511465952989527,0.6728831917363891,22.523710197829416,0.23166927478636806,1616,0,5.218051607029464,2.5582151138065643,49.02625168291325,0.2630283857306881,0.128952958385831,0.09375,,
1.2639850000003352,1200,,,,-0.0625,-0.029296875,-0.9296875,0.01511465952989527,0.6854338261319599,22.523623945475464,0.23170968874478295,1617,0,5.21894189381066,2.558866109356772,49.03036211978961,0.2678662332607386,0.13133578416438046,0.09375,,
1.2727650000005961,1200,,,,-0.0625,0.1328125,-0.978515625,0.01511465952989527,0.6854338261319599,22.52349894462327,0.23210681184214427,1617,0,5.227857531566408,2.5594567932763166,48.95804405192798,0.2678044137852188,0.1311118028739749,0.09375,,
1.2809950000001118,1200,,,,0,-0.0234375,-0.9921875,0.01511465952989527,0.6854338261319599,22.523458363893216,0.23148951336342685,1617,0,5.2139444159190464,2.559657924425628,49.092543384439686,0.26778337042273614,0.13146166730109657,0.09375,,
1.2912400000002235,1200,,,,-0.03125,0.107421875,-0.978515625,0.01511465952989527,0.6854338261319599,22.523709441900724,0.23280229084917986,1617,0,5.243571156495791,2.560157371849083,48.824690186144096,0.2677311299956935,0.13071889475226006,0.095703125,,
1.2992800000002607,1200,,,,-0.09375,-0.033203125,-0.935546875,0.01511465952989527,0.6854338261319599,22.523666775913416,0.23180204475756,1618,0,5.221032014094649,2.5612052600061914,49.055536397631464,0.26762159083270937,0.13128320689886006,0.095703125,,
1.3070750000001863,1200,,,,-0.03125,0.125,-1.009765625,0.01511465952989527,0.6854338261319599,22.52376951210618,0.23355077897503218,1618,0,5.260443915006479,2.5615007191302923,48.69362282949342,0.2675907217253039,0.1302996167636388,0.095703125,,
1.3145049999998883,1200,,,,-0.0625,0.0859375,-0.96875,0.01511465952989527,0.6854338261319599,22.52371520796254,0.23360450053564563,1618,0,5.261641241363215,2.561322755426683,48.67915994141557,0.2676093142419201,0.1302699660979497,0.095703125,,
1.3230250000003725,1200,,,,-0.03125,0.056640625,-0.94921875,0.01511465952989527,0.6854338261319599,22.5235362437992,0.23511722152206713,1618,0,5.295671260493644,2.5606354501716684,48.35336870840761,0.267681143790307,0.1294328504198099,0.095703125,,
1.3298449999997393,1200,,,,-0.09375,0.044921875,-0.99609375,0.01511465952989527,0.6854338261319599,22.523361044574006,0.23369489043742606,1618,0,5.263594391594313,2.560355777296506,48.64272561322851,0.2677103831467177,0.13022162711218063,0.09765625,,
1.3379050000002608,1200,,,,-0.0625,-0.0390625,-0.921875,0.01511465952989527,0.6854338261319599,22.523302134404574,0.23364199445217612,1618,0,5.26238923233124,2.560254525623303,48.65194140132256,0.26772097042386384,0.13025144964967034,0.09765625,,
1.3448650000002236,1200,,,,-0.03125,0.107421875,-1.01953125,0.01511465952989527,0.6854338261319599,22.52320844664732,0.2335863333496901,1618,0,5.2611136763231166,2.560898779343411,48.67598263212534,0.2676536189796999,0.13028302908881365,0.09765625,,
1.3520200000004843,1200,,,,0,-0.078125,-0.953125,0.01511465952989527,0.6854338261319599,22.52306927495829,0.23353792961234499,1618,0,5.259990966989179,2.561146395947593,48.69107973798659,0.2676277417083601,0.13031083711619043,0.09765625,,
1.3594700000006705,1200,,,,-0.03125,0.07421875,-0.982421875,0.01511465952989527,0.6854338261319599,22.523196460518715,0.23292677801422912,1618,0,5.246255582130114,2.561253839572811,48.820607373704746,0.26761651482630194,0.1306520079705412,0.09765625,,
1.3672450000001117,1200,,,,-0.1875,0.03515625,-0.953125,0.014809869472240058,0.6854338261319599,22.52323530051412,0.23369132620808877,1617,0,5.263484727873985,2.5085173809797667,47.65887070395284,0.2732426059030318,0.13022434025543733,0.099609375,,
1.3753050000006333,1200,,,,0,0.001953125,-0.943359375,0.014809869472240058,0.6854338261319599,22.52327306295765,0.23405944240750726,1616,0,5.271784734307896,2.5069284608004887,47.55369551578645,0.2734157902188775,0.13001931237276645,0.099609375,,
1.383410000000149,1200,,,,-0.0625,0.0859375,-1.078125,0.014809869472240058,0.6854338261319599,22.523440911939517,0.23398084704271835,1616,0,5.270053782892225,2.5063036257225804,47.5574582152957,0.2734839542572763,0.1300620172714426,0.099609375,,
1.3904300000006333,1200,,,,-0.09375,0.017578125,-0.94921875,0.014809869472240058,0.6854338261319599,22.523377983616367,0.2333469898026427,1616,0,5.255762452663996,2.5060754174768998,47.68243313977483,0.2735088582537752,0.1304156784682179,0.099609375,,
1.3985250000003726,1200,,,,0,0.076171875,-1.02734375,0.014809869472240058,0.6854338261319599,22.52331078358492,0.23330428225388372,1616,0,5.254784856345439,2.5068837416987555,47.70668657674075,0.2734206675525707,0.1304399409053372,0.099609375,,
1.4064400000004098,1200,,,,-0.125,0.109375,-0.88671875,0.014809869472240058,0.6854338261319599,22.523213846088996,0.23379468594221353,1617,0,5.265807707555692,2.5072046714335396,47.61291734667892,0.2733856688852014,0.13016689256397626,0.1015625,,
1.4149550000000746,1200,,,,0,0.041015625,-1.001953125,0.014809869472240058,0.6961411799326138,22.523350951005742,0.23485114510893632,1617,0,5.289634762534148,2.507331832227592,47.400849865603654,0.27764222149811746,0.1316047725758494,0.1015625,,
1.423054999999702,1200,,,,-0.125,0.015625,-1.01171875,0.014809869472240058,0.6961411799326138,22.52318744059616,0.2350526130991792,1616,0,5.294134063234742,2.506696668672585,47.34856803269128,0.2777125723397772,0.1314929262496364,0.1015625,,
1.430839999999851,1200,,,,-0.0625,-0.02734375,-0.958984375,0.014809869472240058,0.6961411799326138,22.523029714876152,0.23508594847003525,1616,0,5.294847802940448,2.5064429852044423,47.337394359333814,0.2777406803354164,0.13147520114667277,0.103515625,,
1.4430750000001862,1200,,,,-0.03125,0.08984375,-0.986328125,0.014809869472240058,0.6961411799326138,22.52293614049735,0.23422283311062364,1616,0,5.275385912796945,2.5063380639056034,47.510042020352856,0.2777523072238002,0.13196023787452704,0.103515625,,
1.4512099999999628,1200,,,,-0.03125,-0.021484375,-0.970703125,0.014809869472240058,0.6961411799326138,22.522798177262267,0.23340253636776812,1616,0,5.256878220672358,2.506160756810066,47.673935967448124,0.2777719577808281,0.13242482528795899,0.103515625,,
1.4587800000002609,1200,,,,-0.0625,0.14453125,-0.98046875,0.014809869472240058,0.6961411799326138,22.52249920307339,0.23336158052577324,1616,0,5.255886011419674,2.506012928892428,47.68012326461253,0.2777883433507601,0.13244982452436752,0.10546875,,
1.4673449999997392,1200,,,,-0.0625,-0.14453125,-0.953125,0.014809869472240058,0.6961411799326138,22.522508352617272,0.23544500665937065,1616,0,5.302812129067705,2.505941807699586,47.25684687117435,0.27779622726820624,0.13127773773403573,0.10546875,,
1.4747800000002607,1200,,,,-0.03125,0.087890625,-0.98828125,0.014809869472240058,0.6961411799326138,22.522486231937098,0.23418013973801813,1616,0,5.274318973042619,2.50620498980799,47.51712974921244,0.27776705527425666,0.13198693205523515,0.10546875,,
1.482765000000596,1200,,,,-0.0625,0.01953125,-0.8984375,0.014809869472240058,0.6961411799326138,22.522495171130767,0.23473390309478265,1616,0,5.286793198952919,2.5064789548020747,47.41019480955862,0.27773669457662964,0.13167550795640892,0.10546875,,
1.4919199999999255,1200,,,,-0.03125,0.0546875,-1.01953125,0.014809869472240058,0.6961411799326138,22.52256848613433,0.23525830901339054,1616,0,5.298621376686241,2.5065869107169187,47.30639788201924,0.27772473276560267,0.13138156709887064,0.10546875,,
1.5003000000007451,1200,,,,-0.03125,0.068359375,-0.998046875,0.014809869472240058,0.6961411799326138,22.522573911792573,0.2354634122875335,1616,0,5.303242106768861,2.506632373954063,47.26603695416225,0.27771969562273413,0.13126709396202843,0.107421875,,
1.5083050000006333,1200,,,,-0.0625,0.087890625,-0.96875,0.014809869472240058,0.6961411799326138,22.52265179852272,0.23707854088866057,1616,0,5.339637425337133,2.506406685849143,46.93964189321139,0.27774470275033153,0.13037236884837006,0.107421875,,
1.5155,1200,,,,-0.1875,-0.0234375,-0.98046875,0.01455741665478125,0.6961411799326138,22.522710942497802,0.23611559801554796,1616,0,5.317963363119195,2.463610855752547,46.326209632018646,0.2825694562544729,0.1309037186605023,0.109375,,
1.5228600000003352,1200,,,,-0.03125,-0.041015625,-0.955078125,0.01455741665478125,0.6961411799326138,22.522766761577017,0.2359579389613555,1616,0,5.3144256247690365,2.4635805099579264,46.356477329852424,0.2825729368773512,0.1309908594238475,0.109375,,
1.5310300000002608,1200,,,,0.0625,0.21484375,-0.9765625,0.01455741665478125,0.6961411799326138,22.52302084437247,0.23547273403079835,1616,0,5.303557296857046,2.464013880719089,46.45964477803028,0.2825232379492337,0.13125929276660322,0.109375,,
1.5388300000000745,1200,,,,-0.0625,-0.037109375,-0.974609375,0.01455741665478125,0.6961411799326138,22.52306952320272,0.23446315949847246,1616,0,5.280830042013863,2.4641883069553283,46.662897448894256,0.2825032396946739,0.1318241970285296,0.111328125,,
1.5470650000004098,1200,,,,-0.03125,0.1328125,-0.96484375,0.01455741665478125,0.6961411799326138,22.522919007419304,0.23404618741944244,1616,0,5.271403323243381,2.464256180698277,46.74763112571082,0.28249545862368647,0.13205993494428597,0.111328125,,
1.5548950000004842,1200,,,,-0.125,-0.02734375,-0.9453125,0.01455741665478125,0.6961411799326138,22.52316843319376,0.23418189679518353,1616,0,5.274518305522717,2.4638328669115186,46.71199764975215,0.2825439944736372,0.13198194405804126,0.111328125,,
1.5630449999999254,1200,,,,-0.03125,0.048828125,-0.947265625,0.01455741665478125,0.7005178190713315,22.52320957142699,0.233775283166416,1616,0,5.265369695376875,2.463213283027414,46.78139286573128,0.2843918648450773,0.13304247557135512,0.111328125,,
1.571109999999404,1200,,,,-0.125,0.09765625,-1.0390625,0.01455741665478125,0.7005178190713315,22.523248108465047,0.23392337988531048,1616,0,5.26871432352757,2.4629724218074927,46.74712407178788,0.28441967635075877,0.13295801898826673,0.111328125,,
1.5786150000002235,1200,,,,-0.0625,-0.068359375,-0.96484375,0.01455741665478125,0.7005178190713315,22.523088834347472,0.23433110348930603,1616,0,5.277860260540311,2.463101657369989,46.66856520975479,0.2844047532408058,0.13272761772582764,0.111328125,,
1.5858349999999628,1200,,,,0,0.107421875,-1.015625,0.01455741665478125,0.7005178190713315,22.52295577962319,0.23453132601994206,1616,0,5.282338684883545,2.4635676549839567,46.637820896148554,0.28435095648951986,0.13261508980406758,0.11328125,,
1.5960499999998137,1200,,,,0,0.02734375,-0.91015625,0.01455741665478125,0.7005178190713315,22.522876037396486,0.23464336447726766,1616,0,5.284843411119142,2.463786514591976,46.61985839368955,0.2843256974264847,0.13255223751709735,0.11328125,,
1.6215,1200,,,,-0.08203125,0.041015625,-0.986328125,0.01455741665478125,0.7005178190713315,22.522711463424802,0.23391431408147165,1617,0,5.268384603221911,2.464444449808711,46.777990511580455,0.28424979070869516,0.1329663401269007,0.11328125,,
1.6354000000003726,1200,,,,-0.01953125,0.015625,-0.958984375,0.01455741665478125,0.7005178190713315,22.522822058470496,0.23472194577185804,1617,0,5.28660061783752,2.464618119690481,46.620092907616524,0.28422976098191877,0.13250817864086692,0.115234375,,
1.6422950000008567,1200,,,,-0.03125,0.111328125,-0.998046875,0.01455741665478125,0.7005178190713315,22.522980618048063,0.2347720558475864,1617,0,5.287766463514486,2.4657885122920464,46.63194808821366,0.2840948506245464,0.13247896326452663,0.11328125,,
1.6500100000007079,1200,,,,-0.0625,-0.056640625,-0.939453125,0.01455741665478125,0.7005178190713315,22.523029492576885,0.23544074614868968,1618,0,5.302838869261246,2.466233707912617,46.50780023146725,0.28404356684599824,0.132102414639071,0.11328125,,
1.6576100000003353,1200,,,,0.0625,0.1796875,-0.96484375,0.01455741665478125,0.7005178190713315,22.522950279888306,0.23611300044042796,1618,0,5.317961369355005,2.4661177455684675,46.373367053389735,0.28405692320658205,0.13172675963915373,0.115234375,,
1.6642250000005587,1200,,,,-0.09375,0.0390625,-0.97265625,0.014205870657205827,0.7005178190713315,22.522747497526176,0.23436312609746754,1617,0,5.278501511824149,2.4059906526628643,45.580940865003186,0.29115566941044574,0.13271149349907943,0.115234375,,
1.6715099999997765,1200,,,,-0.125,-0.00390625,-0.99609375,0.014205870657205827,0.7005178190713315,22.522803007818293,0.2337022963017759,1617,0,5.26363078207968,2.4057189224098026,45.7045530359045,0.2911885559638133,0.13308642799496553,0.115234375,,
1.6786349999997765,1200,,,,-0.0625,0.154296875,-1.048828125,0.014205870657205827,0.7005178190713315,22.52302932633029,0.23308187369049246,1617,0,5.249709876566974,2.4056039698847274,45.82356028135144,0.29120247049845827,0.13343933960964566,0.115234375,,
1.6863849999997764,1200,,,,0,-0.0078125,-0.8984375,0.014205870657205827,0.7005178190713315,22.52301207318092,0.23284632248288661,1617,0,5.244400532477833,2.4053354592126612,45.864831343768614,0.2912349778024858,0.13357443138317207,0.115234375,,
1.7007450000001119,1200,,,,-0.0625,0.08984375,-0.970703125,0.014205870657205827,0.7005178190713315,22.522931331411403,0.23435084340205536,1617,0,5.27826795340284,2.40488948721995,45.56209552926438,0.29128898554133953,0.13271736585857025,0.115234375,,
1.7085350000010804,1200,,,,0.0625,-0.10546875,-0.8828125,0.014205870657205827,0.6966652732157889,22.523077197725346,0.2339524160560401,1617,0,5.26932832742455,2.4048303920137206,45.63827195010092,0.28969414039733,0.13221139961804063,0.1171875,,
1.7227549999998883,1200,,,,-0.0625,0.134765625,-1.046875,0.014205870657205827,0.6966652732157889,22.523247417643866,0.2343315388646474,1616,0,5.277907227605683,2.404535622989484,45.55850490157818,0.2897296536408334,0.1319964984552846,0.1171875,,
1.7372750000003725,1200,,,,-0.041015625,0.03515625,-0.97265625,0.014205870657205827,0.6966652732157889,22.523243041179406,0.2348926157766222,1616,0,5.290543473715234,2.4044511168727873,45.44809297605647,0.2897398363922104,0.13168123023220568,0.1171875,,
1.7472999999998138,1200,,,,-0.041015625,0,-0.962890625,0.014205870657205827,0.6966652732157889,22.523140747513956,0.23418794758992806,1615,0,5.274648104939372,2.4032559127297777,45.56239326144396,0.2898839318466381,0.13207805702970143,0.1171875,,
1.7667550000008196,1200,,,,-0.0625,-0.03125,-0.9609375,0.014205870657205827,0.6966652732157889,22.523187538882123,0.2347045196037751,1615,0,5.286293911259063,2.401966242465771,45.43762194814633,0.2900395771177108,0.13178708655074775,0.1171875,,
1.7741299999998883,1200,,,,-0.03125,0.10546875,-1.0078125,0.014205870657205827,0.6966652732157889,22.523051476933087,0.2340537591196765,1614,0,5.27160486502217,2.4017212240135803,45.55958357101713,0.29006916633379,0.13215430424959573,0.1171875,,
1.7831200000001117,1200,,,,0,-0.08984375,-0.99609375,0.014205870657205827,0.6966652732157889,22.52303032026667,0.23408625794457552,1614,0,5.272331885243439,2.4015976997301927,45.55095832362048,0.29008408581256373,0.1321360810319364,0.1171875,,
1.7908950000004842,1200,,,,-0.03125,0.109375,-1.021484375,0.014205870657205827,0.6966652732157889,22.522883355869062,0.23432371660669513,1615,0,5.2776457366463125,2.40184707138224,45.50981993172769,0.2900539678468641,0.13200303847193917,0.1171875,,
1.798015000000596,1200,,,,-0.0625,-0.02734375,-0.978515625,0.014205870657205827,0.6966652732157889,22.522667318912422,0.234817962269232,1615,0,5.288726844694842,2.402493830650118,45.426695331411864,0.28997588436148886,0.13172646152346074,0.1171875,,
1.8061650000000373,1200,,,,0,0.23828125,-0.96875,0.014205870657205827,0.6966652732157889,22.522602658235417,0.2347042796278117,1615,0,5.28615123224458,2.4027847334883847,45.45433204467981,0.2899407772598771,0.13179064362863002,0.1171875,,
1.8154700000006705,1200,,,,-0.0625,0.03125,-0.99609375,0.013974494452831533,0.6966652732157889,22.522347574079436,0.23710575529908492,1615,0,5.340178232660618,2.363771776002909,44.26391167145025,0.29472611539250887,0.13045730739003666,0.1171875,,
1.8244350000005216,1200,,,,-0.0625,0.080078125,-0.98828125,0.013974494452831533,0.6966652732157889,22.522365013184682,0.23697198890929935,1616,0,5.337169632115592,2.3654073392798134,44.31950832228267,0.2945223267244533,0.13053084710362464,0.1171875,,
1.8330099999997764,1200,,,,-0.03125,0,-0.95703125,0.013974494452831533,0.6966652732157889,22.522606044625284,0.23671980670514045,1617,0,5.331546949379725,2.3660090631338146,44.377534055272214,0.29444742375291044,0.1306685057508195,0.1171875,,
1.8415249999994412,1200,,,,-0.125,0.046875,-0.9765625,0.013974494452831533,0.6966652732157889,22.52254129203141,0.23782891137424159,1617,0,5.356511476865235,2.3662112683622203,44.174483310301554,0.29442226166811714,0.13005951284239475,0.1171875,,
1.8502549999998883,1200,,,,-0.03125,0.08984375,-1.013671875,0.013974494452831533,0.6966652732157889,22.52275885334725,0.23743169566991065,1617,0,5.34761682571473,2.3660655393861876,44.24523327865686,0.29444039550845247,0.1302758398593147,0.1171875,,
1.859140000000596,1200,,,,-0.03125,0.0390625,-0.94140625,0.013974494452831533,0.6943938505832041,22.5226086288533,0.2396434903102048,1617,0,5.39739654270914,2.3660105535100473,43.836144607645686,0.2934872160874558,0.1286534804490507,0.1171875,,
1.86775,1200,,,,-0.03125,0.07421875,-0.9921875,0.013974494452831533,0.6943938505832041,22.52275704532192,0.2396074725321031,1617,0,5.396620890084204,2.3659906877543357,43.842077031974334,0.2934896803175009,0.12867197172569397,0.1171875,,
1.8752249999996276,1200,,,,-0.1875,-0.015625,-0.98828125,0.013974494452831533,0.6943938505832041,22.523010816262993,0.2388421710716019,1616,0,5.379444802425426,2.365340386568593,43.96997224513083,0.2935703692061689,0.12908280985988058,0.1171875,,
1.8825300000002607,1200,,,,0,0.060546875,-0.98046875,0.013974494452831533,0.6943938505832041,22.52305382630163,0.2382821869189017,1616,0,5.36684252182329,2.365095932306254,44.068666495970795,0.29360071238467117,0.12938591877059516,0.1171875,,
1.8905599999995901,1200,,,,-0.0625,0.09375,-0.91796875,0.013974494452831533,0.6943938505832041,22.5229038068655,0.23735694234305774,1616,0,5.34596758028441,2.3649826092187363,44.238626099055345,0.29361478087680093,0.1298911450836486,0.1171875,,
1.903285000000149,1200,,,,-0.03125,0.06640625,-0.953125,0.013974494452831533,0.6943938505832041,22.52308845941237,0.2373302002233487,1616,0,5.345409093720532,2.3649380139787937,44.24241386420699,0.293620317521536,0.12990471606727663,0.119140625,,
1.9201000000005588,1200,,,,0.125,0.078125,-0.94140625,0.013974494452831533,0.6943938505832041,22.52305982753798,0.23833291486943467,1616,0,5.367986500475793,2.364911843844107,44.055845588182684,0.2936235667264805,0.1293583451675328,0.119140625,,
1.928660000000149,1200,,,,-0.09375,0.021484375,-0.96484375,0.013974494452831533,0.6943938505832041,22.523105916451815,0.2374074328653645,1616,0,5.347152755779528,2.3647660891950486,44.224771522359546,0.29364166449949874,0.12986235521935688,0.119140625,,
1.9380650000004098,1200,,,,-0.03125,0.05859375,-0.98828125,0.013974494452831533,0.6943938505832041,22.52300361862016,0.2378736083424852,1616,0,5.357628141472029,2.3646255830652145,44.13567945787899,0.2936591126968507,0.12960844467873367,0.119140625,,
1.9459150000000371,1200,,,,-0.09375,0.046875,-0.958984375,0.013974494452831533,0.6943938505832041,22.522845674544218,0.23873076434393506,1616,0,5.3768961630844325,2.364579406205088,43.97666115331225,0.2936648474400935,0.12914399488512127,0.119140625,,
1.9545250000003724,1200,,,,0,0.1796875,-0.9921875,0.013974494452831533,0.6943938505832041,22.522706723524664,0.23842528023532203,1616,0,5.36998266221434,2.3647784369941562,44.03698458160436,0.2936401312360749,0.12931025931783313,0.119140625,,
1.9623650000002235,1200,,,,-0.0625,0.021484375,-0.966796875,0.013550607997076284,0.6943938505832041,22.52277008051151,0.2387712299611903,1616,0,5.37778951425683,2.2931244054484083,42.640650017431945,0.30281560343317665,0.12912254165811549,0.119140625,,
1.9704599999999628,1200,,,,0,0.052734375,-0.982421875,0.013550607997076284,0.6943938505832041,22.522830738012225,0.23846038617473894,1616,0,5.370802915534676,2.2931548331186247,42.6966855641981,0.30281158539951203,0.12929051046999285,0.119140625,,
1.978320000000298,1200,,,,-0.1875,0.109375,-1.1015625,0.013550607997076284,0.6943938505832041,22.523084401808468,0.2377405104787282,1617,0,5.354649583241426,2.293865393893548,42.83875832085657,0.30271778476267,0.12968054020873096,0.119140625,,
1.9865450000008569,1200,,,,-0.0625,-0.025390625,-0.923828125,0.013550607997076284,0.6943938505832041,22.522918359570188,0.23792407038362698,1617,0,5.358744413027061,2.2945257574663076,42.81834662404005,0.3026306627082614,0.12958144614905287,0.119140625,,
1.9943499999996275,1200,,,,-0.03125,0.091796875,-0.974609375,0.013550607997076284,0.6943938505832041,22.522791334476292,0.23655302511941753,1617,0,5.32783442430377,2.2947407168309613,43.070796388925565,0.30260231384317904,0.13033322646357315,0.12109375,,
2.0028499999996274,1200,,,,0.0625,-0.046875,-0.89453125,0.013550607997076284,0.6943938505832041,22.522930410087575,0.23585533351991453,1617,0,5.31215326371703,2.294845962786188,43.199920048625145,0.3025884359315062,0.13071796239879602,0.12109375,,
2.0114199999999256,1200,,,,-0.0625,0.09765625,-0.994140625,0.013550607997076284,0.6848971898288982,22.522883609718725,0.23437621948378742,1618,0,5.278828312319234,2.2957324017787846,43.48943110010264,0.2983349406482326,0.12974416846074524,0.12109375,,
2.0193800000008197,1200,,,,0,0.02734375,-0.95703125,0.013550607997076284,0.6848971898288982,22.52274263499797,0.2332227313839687,1618,0,5.252815555592392,2.29607029764658,43.71123016497461,0.29829103687761754,0.13038668169106468,0.119140625,,
2.028425000000745,1200,,,,-0.03125,0.02734375,-0.97265625,0.013550607997076284,0.6848971898288982,22.52244743332272,0.23341861356791538,1618,0,5.257158454042444,2.296211784639392,43.67781197224027,0.2982726569084557,0.1302789702490806,0.119140625,,
2.0361749999998136,1200,,,,-0.0625,0.05859375,-0.96484375,0.013550607997076284,0.6848971898288982,22.52252321296401,0.23305487323280802,1617,0,5.2489837922803035,2.2945867921437433,43.71487668752948,0.2984838892012559,0.13048186409647114,0.119140625,,
2.044260000000708,1200,,,,0,0.03125,-1.03515625,0.013550607997076284,0.6848971898288982,22.522596358623115,0.23367003364343172,1617,0,5.262855848856896,2.293938200852088,43.58732723698554,0.2985682829530855,0.13013793451661032,0.119140625,,
2.0538999999994414,1200,,,,-0.125,0.07421875,-1.04296875,0.013550607997076284,0.6848971898288982,22.522337962456454,0.2343570915242807,1616,0,5.278269619208189,2.293684966886875,43.45524447140611,0.29860124634224783,0.12975790159268938,0.12109375,,
2.0703549999995157,1200,,,,-0.03125,0.056640625,-0.970703125,0.013550607997076284,0.6848971898288982,22.521869267941277,0.23517395558853302,1617,0,5.296557082989568,2.2947480486366265,43.325277395885024,0.2984629141468558,0.12930988547796743,0.12109375,,
2.080340000000782,1200,,,,0.0625,-0.03125,-0.9296875,0.013550607997076284,0.6848971898288982,22.521839607616254,0.23454388935813378,1617,0,5.282359857070381,2.2948491801127386,43.44363584092265,0.29844976121491845,0.1296574274303124,0.12109375,,
2.096554999999702,1200,,,,-0.0625,0,-0.998046875,0.013550607997076284,0.6848971898288982,22.5216532283896,0.2346851072366248,1617,0,5.2854966030506905,2.2943636446913445,43.40866747255273,0.2985129194378583,0.12958048056138913,0.12109375,,
2.105485000000335,1200,,,,-0.0625,0.13671875,-1.005859375,0.013550607997076284,0.6848971898288982,22.521637387219513,0.2352173771647422,1617,0,5.297480475677172,2.2942719278030363,43.308737773304614,0.29852485293003017,0.12928734574361003,0.12109375,,
2.1134699999997393,1200,,,,-0.0625,-0.056640625,-0.93359375,0.0132637475213158,0.6848971898288982,22.521778025603716,0.23453724092501235,1616,0,5.282195678850668,2.244762626503817,42.49677147500613,0.3051089597369211,0.12966145736916782,0.12109375,,
2.1204500000001865,1200,,,,0,0.17578125,-1.046875,0.0132637475213158,0.6848971898288982,22.521873627314275,0.2347285887509633,1616,0,5.286527612567019,2.244115550032671,42.449708286740204,0.3051969359683494,0.12955520901863363,0.12109375,,
2.1282500000009312,1200,,,,-0.0625,0.080078125,-0.984375,0.0132637475213158,0.6848971898288982,22.52187916849857,0.23448927864548424,1615,0,5.281139199961989,2.2438315289982107,42.48764223094821,0.30523556736662844,0.12968739582433803,0.12109375,,
2.136360000000335,1200,,,,-0.125,-0.05859375,-0.94921875,0.0132637475213158,0.6848971898288982,22.521785871094618,0.23438917104306256,1616,0,5.278862720735226,2.244008075052087,42.50930917823806,0.3052115531326689,0.12974332276886857,0.12109375,,
2.1444749999996273,1200,,,,-0.0625,0.11328125,-0.982421875,0.0132637475213158,0.6848971898288982,22.521796341161046,0.23477381660009,1616,0,5.287528083704322,2.2443839346792953,42.44675203894012,0.30516044035343026,0.12953069543775828,0.123046875,,
2.1527249999996276,1200,,,,0.0625,-0.05859375,-0.91796875,0.0132637475213158,0.6848971898288982,22.52190573869042,0.23519815017280934,1616,0,5.297110568106366,2.2445332217653617,42.37278404720457,0.30514014369999637,0.12929637413132916,0.123046875,,
2.161950000000186,1200,,,,-0.03125,0.125,-0.990234375,0.0132637475213158,0.680866851583379,22.521910419504803,0.23571313756128445,1616,0,5.3087101688556615,2.244591709124705,42.28130068755564,0.3033366152140373,0.12825466637410077,0.123046875,,
2.170445000000298,1200,,,,-0.03125,-0.021484375,-1.00390625,0.0132637475213158,0.680866851583379,22.5221084261615,0.23560973869535792,1616,0,5.3064280811564295,2.2446172186270905,42.29996495378717,0.3033331678707464,0.1283098237025381,0.123046875,,
2.1786699999999253,1200,,,,0,0.109375,-0.99609375,0.0132637475213158,0.680866851583379,22.522016470000054,0.23490482411687916,1616,0,5.290530317642818,2.24462389571844,42.42720031738758,0.30333226554440335,0.12869538792979407,0.12109375,,
2.186530000000261,1200,,,,-0.0625,-0.017578125,-0.990234375,0.0132637475213158,0.680866851583379,22.522314651293172,0.23413537120447556,1616,0,5.273270501264525,2.244626894604907,42.56612464819788,0.3033318602837214,0.12911661774606628,0.12109375,,
2.195230000000447,1200,,,,0,0.1484375,-0.96875,0.0132637475213158,0.680866851583379,22.52226067453314,0.23368557770359447,1615,0,5.263127496919224,2.2433254431769574,42.62342959561762,0.30350783639272044,0.1293654489620335,0.12109375,,
2.2070099999997765,1200,,,,-0.03125,-0.009765625,-0.9765625,0.0132637475213158,0.680866851583379,22.522346243934443,0.23618945795912824,1615,0,5.319540751322684,2.2428852439848175,42.16313679761044,0.3035674042661756,0.12799353993370274,0.12109375,,
2.215464999999851,1200,,,,-0.03125,0.064453125,-0.939453125,0.0132637475213158,0.680866851583379,22.522523821867225,0.23714526171273995,1615,0,5.341109806168123,2.2431672902980733,41.99814966746379,0.30352923499205675,0.12747666239647185,0.12109375,,
2.223155000000261,1200,,,,-0.09375,0.01171875,-0.96484375,0.0132637475213158,0.680866851583379,22.52239946621528,0.23755661364884292,1616,0,5.350344948440609,2.24446566704394,41.94992451277563,0.30335364963729233,0.127256627029594,0.12109375,,
2.2395200000004842,1200,,,,-0.0625,0.09375,-0.970703125,0.0132637475213158,0.680866851583379,22.522364325809175,0.23675300793696605,1616,0,5.33223749998754,2.2451846634696246,42.1058638793728,0.3032565038686808,0.12768877072429163,0.119140625,,
2.2475149999996646,1200,,,,-0.0625,0.033203125,-0.92578125,0.0132637475213158,0.680866851583379,22.522435195014275,0.2360039370178997,1618,0,5.315383377253877,2.247170283388345,42.27673008507085,0.3029885436882644,0.12809364880377452,0.119140625,,
2.255320000000298,1200,,,,-0.0625,0.02734375,-0.974609375,0.0132637475213158,0.680866851583379,22.522514049521266,0.2351703805755814,1619,0,5.296628200544795,2.2481086843888645,42.444147470227016,0.30286207082041894,0.128547223970402,0.119140625,,
2.2639599999999627,1200,,,,0,-0.02734375,-0.8828125,0.01315401770153582,0.680866851583379,22.52232607918523,0.23472037425849207,1619,0,5.286448806478154,2.229864064094109,42.18075584807659,0.30534007096974486,0.12879474984209188,0.119140625,,
2.2723849999997765,1200,,,,-0.0625,0.130859375,-1.0546875,0.01315401770153582,0.680866851583379,22.52230826634755,0.23388786021191915,1619,0,5.267694487449247,2.2304430642252506,42.341921490311954,0.3052608078206559,0.12925329158811416,0.119140625,,
2.2805650000004096,1200,,,,0,-0.015625,-0.96484375,0.01315401770153582,0.680866851583379,22.52219471542408,0.2348851126422745,1620,0,5.2901282426836245,2.230845543357513,42.1699709537822,0.305205734036901,0.1287051693926389,0.119140625,,
2.2884900000002237,1200,,,,-0.03125,0.091796875,-0.970703125,0.01315401770153582,0.680866851583379,22.522020558677294,0.23390880335775605,1620,0,5.268098878078987,2.231004539345591,42.34932925479043,0.3051839830783555,0.12924336982673668,0.119140625,,
2.2962649999996647,1200,,,,-0.09375,0.00390625,-0.95703125,0.01315401770153582,0.680866851583379,22.521922693770442,0.23257838463663189,1619,0,5.23811239902823,2.2306608063503104,42.58520314997709,0.3052310103109659,0.12998324581765233,0.12109375,,
2.304985000000335,1200,,,,-0.0625,0.0078125,-0.9921875,0.01315401770153582,0.6705723393337255,22.52202594314839,0.23192554532365908,1619,0,5.2234331486582875,2.230110778958691,42.69434901318736,0.300690147619858,0.1283777010730905,0.12109375,,
2.3137400000002235,1200,,,,-0.0625,0.095703125,-0.978515625,0.01315401770153582,0.6705723393337255,22.521914792059253,0.2321341324416031,1619,0,5.228105151178383,2.229885128739584,42.651879873475416,0.3007205755539338,0.12826297864008773,0.12109375,,
2.321515000000596,1200,,,,0,0,-0.931640625,0.01315401770153582,0.6705723393337255,22.521886077991198,0.23268515891366098,1619,0,5.240508641092751,2.2301152528848633,42.555320592312576,0.30068954439295337,0.12795939960398536,0.119140625,,
2.3296399999996646,1200,,,,-0.0625,0.056640625,-0.98046875,0.01315401770153582,0.6705723393337255,22.52189168096316,0.23267458479279754,1619,0,5.240271795616465,2.2305135305985684,42.56484429804601,0.30063585364298345,0.1279651830072374,0.119140625,,
2.337355000000447,1200,,,,0,-0.0625,-0.9609375,0.01315401770153582,0.6705723393337255,22.521864299043266,0.23341007432608793,1619,0,5.256830020001755,2.230668787632949,42.433724871176345,0.30061492905241943,0.12756211191578562,0.119140625,,
2.3456100000003355,1200,,,,-0.0625,0.07421875,-1.021484375,0.01315401770153582,0.6705723393337255,22.521870874379747,0.23273046112164222,1619,0,5.241525393916482,2.2307297465135463,42.55878926204608,0.30060671418479845,0.12793457799746955,0.119140625,,
2.3557550000008196,1200,,,,0,0.03125,-0.8984375,0.01315401770153582,0.6705723393337255,22.521975491756027,0.2320783828191105,1620,0,5.226863650018379,2.231571762622263,42.6942792474492,0.3004932893333231,0.12829344406781445,0.119140625,,
2.365375,1200,,,,-0.03125,0.033203125,-0.984375,0.01315401770153582,0.6705723393337255,22.521931916051752,0.23460992208376838,1620,0,5.283868692000838,2.2319571496277284,42.24096546923378,0.3004414038350025,0.12690934964922462,0.119140625,,
2.373825000000186,1200,,,,-0.0625,-0.01171875,-0.955078125,0.01315401770153582,0.6705723393337255,22.522042014617472,0.23553544579089672,1621,0,5.304739206034232,2.2324867678817015,42.08476008287475,0.30037012939162866,0.12641004831508737,0.119140625,,
2.392,1200,,,,-0.03125,-0.015625,-0.955078125,0.01315401770153582,0.6705723393337255,22.52206872042739,0.23392898736454085,1622,0,5.26856472912418,2.2339485519054634,42.401463524902425,0.3001735822258555,0.12727799197888912,0.1171875,,
2.4002600000007077,1200,,,,-0.03125,0.095703125,-1.005859375,0.01315401770153582,0.6705723393337255,22.522163674804673,0.23343026913255308,1622,0,5.257354728057066,2.233658817649844,42.48636307018465,0.30021251859729936,0.12754938063339422,0.1171875,,
2.408325000000186,1200,,,,-0.125,0.01171875,-0.96875,0.01315401770153582,0.6705723393337255,22.52238599181094,0.2323115032168899,1621,0,5.232209345788623,2.2331338912238055,42.68051493431246,0.3002830873549805,0.128162367943757,0.1171875,,
2.416549999999814,1200,,,,0.03125,0.005859375,-1,0.013076808046039159,0.6705723393337255,22.522172013865692,0.2329547745098304,1621,0,5.246647502961695,2.2198224877069084,42.309350617777056,0.3020837670792457,0.12780968017294705,0.1171875,,
2.424585000000894,1200,,,,-0.0625,0.068359375,-0.9921875,0.013076808046039159,0.6705723393337255,22.522261671787348,0.23293108143947802,1621,0,5.246134767672333,2.219741616691053,42.31194422166806,0.302094772784114,0.12782217175698918,0.1171875,,
2.4322400000002236,1200,,,,-0.125,0.03125,-0.9453125,0.013076808046039159,0.6705723393337255,22.52228215136142,0.23334676250021016,1619,0,5.255501624136456,2.216412346945744,42.17318355999801,0.3025485489005627,0.12759435488594464,0.1171875,,
2.440235000000335,1200,,,,-0.03125,0.080078125,-0.984375,0.013076808046039159,0.6705723393337255,22.52236193902607,0.23300375321673622,1618,0,5.247794863098843,2.215187155049529,42.21177109315307,0.3027158846624552,0.12778173629632886,0.115234375,,
2.447870000000112,1200,,,,-0.03125,0.046875,-0.97265625,0.013076808046039159,0.6705723393337255,22.52244247810571,0.23212460187659206,1617,0,5.228012993518734,2.2146670810258486,42.361545079773386,0.30278697194664217,0.12826523961685762,0.115234375,,
2.4564900000002234,1200,,,,0,0.07421875,-1.03515625,0.013076808046039159,0.6569607687878692,22.52252054496201,0.23328466196555375,1617,0,5.254158591943702,2.214255385929864,42.14291112805431,0.2966960238473044,0.12503634165044034,0.115234375,,
2.464719999999739,1200,,,,-0.03125,-0.009765625,-0.9453125,0.013076808046039159,0.6569607687878692,22.522527737272227,0.2337778242115182,1617,0,5.26526753016307,2.214097441235177,42.050996051982274,0.29671718893337007,0.12477253340392425,0.1171875,,
2.473375,1200,,,,-0.03125,0.05078125,-0.994140625,0.013076808046039159,0.6569607687878692,22.52282910696526,0.2346019633562582,1617,0,5.28389992883153,2.2140315861202655,41.90146702134595,0.2967260146180152,0.1243325531589218,0.115234375,,
2.4825250000003725,1200,,,,-0.0625,0.00390625,-0.98828125,0.013076808046039159,0.6569607687878692,22.522885804671187,0.23733397843014123,1616,0,5.345446093750366,2.2134741751978178,41.40859595957209,0.29680073802042745,0.12290101841190686,0.115234375,,
2.490714999999851,1200,,,,-0.03125,0.017578125,-1.00390625,0.013076808046039159,0.6569607687878692,22.522711477947933,0.24346079217032704,1616,0,5.483397178244921,2.2129278347286876,40.3568766367747,0.29687401390945717,0.11980907956008098,0.115234375,,
2.4977999999998137,1200,,,,-0.03125,0.099609375,-0.96875,0.013076808046039159,0.6569607687878692,22.5225935404595,0.24609816851968205,1616,0,5.542769020620304,2.21277568633527,39.92184552708699,0.2968944266899042,0.11852573440167406,0.115234375,,
2.5084199999999255,1200,,,,-0.0625,-0.0546875,-0.9921875,0.013076808046039159,0.6569607687878692,22.52277366739111,0.24453583144504057,1620,0,5.507625185203951,2.2182905948445177,40.27671673816658,0.29615631527929565,0.11928204020723346,0.115234375,,
2.525700000000186,1200,,,,-0.0625,0.01953125,-1.01953125,0.013076808046039159,0.6569607687878692,22.523164989071113,0.23865375414413662,1629,0,5.375237879849602,2.2306734079822585,41.49906400132513,0.29451230576246434,0.12221985026014343,0.115234375,,
2.5347200000006707,1200,,,,-0.03125,0.08984375,-0.9765625,0.013076808046039159,0.6569607687878692,22.523210572746397,0.2389085486112464,1629,0,5.380987548000322,2.230663399009927,41.454535605437044,0.294513627237287,0.12208925646594528,0.115234375,,
2.5438549999995157,1200,,,,0,0.0078125,-0.962890625,0.013076808046039159,0.6569607687878692,22.523180651559365,0.23939203941423667,1628,0,5.391870150272072,2.229678589657456,41.352601741437475,0.29464370866511197,0.12184283940048504,0.115234375,,
2.551575000000186,1200,,,,-0.0625,0.0625,-0.97265625,0.013076808046039159,0.6569607687878692,22.523220519499908,0.2384241753563542,1628,0,5.3700802787310815,2.229349222000719,41.51426247444296,0.29468723980278105,0.12233723421041766,0.11328125,,
2.55981500000041,1200,,,,0,-0.0859375,-0.96484375,0.013076808046039159,0.6569607687878692,22.523456054368822,0.23727592164575964,1626,0,5.344273793948127,2.2263479978463088,41.65856922164865,0.29508449237198775,0.12292797751713504,0.11328125,,
2.5686300000008195,1200,,,,-0.0625,0.119140625,-1.0390625,0.012633054254719377,0.6569607687878692,22.523376159581478,0.23701226580478776,1624,0,5.338316417155945,2.1481321921463556,40.23988134616419,0.305828836414137,0.1230651608954033,0.115234375,,
2.5764199999999255,1200,,,,-0.03125,0.0234375,-0.982421875,0.012633054254719377,0.6569607687878692,22.523276202895758,0.23657803357112236,1623,0,5.3285123936603345,2.1472290060632244,40.29696934960529,0.30595747679114826,0.12329159064535473,0.11328125,,
2.5845999999996274,1200,,,,0,0.1015625,-1.0546875,0.012633054254719377,0.6569607687878692,22.52331204010642,0.236375404401476,1623,0,5.323956991940788,2.146870281971032,40.324711210494115,0.306008599729983,0.12339708412039252,0.11328125,,
2.592665000000037,1200,,,,-0.0625,0.037109375,-0.947265625,0.012633054254719377,0.6569607687878692,22.52334554127998,0.23618522177193982,1622,0,5.319681361713244,2.145163142205473,40.32503069910576,0.30625212407501956,0.12349626304991508,0.11328125,,
2.601760000000708,1200,,,,-0.03125,0.095703125,-1.044921875,0.012633054254719377,0.6569607687878692,22.52316059279662,0.2384996732386818,1621,0,5.371766441684349,2.1444410360009067,39.9205933333264,0.3063552495773036,0.12229883333905252,0.11328125,,
2.6109500000001864,1200,,,,-0.125,0.08984375,-0.984375,0.012633054254719377,0.6558373566156084,22.52320156740957,0.23894684744632452,1621,0,5.381848008930632,2.1441994208918733,39.841322485023575,0.3058658398213795,0.12186099561476145,0.11328125,,
2.618769999999553,1200,,,,-0.03125,0.00390625,-0.970703125,0.012633054254719377,0.6558373566156084,22.523329265714683,0.23829923834101704,1619,0,5.367292208923748,2.1414991576648084,39.89906035121987,0.306251512763033,0.12219147590384637,0.11328125,,
2.626375,1200,,,,-0.0625,0.078125,-1.021484375,0.012633054254719377,0.6558373566156084,22.523444931364008,0.23748322624551635,1618,0,5.3489403684635475,2.14074030232696,40.02176421611287,0.30636007361692624,0.12261070631527604,0.115234375,,
2.6345550000006335,1200,,,,0,-0.03515625,-0.984375,0.012633054254719377,0.6558373566156084,22.523472460060997,0.23594358833928533,1618,0,5.3142689140878625,2.1403846142509075,40.276181895441056,0.30641098438522396,0.12341064541860429,0.11328125,,
2.6428300000000746,1200,,,,-0.0625,0.1171875,-1.001953125,0.012633054254719377,0.6558373566156084,22.52343225748167,0.23598691241518457,1618,0,5.31523523543567,2.1406399890010523,40.27366417820626,0.3063744300701681,0.12338820909435289,0.11328125,,
2.650860000000335,1200,,,,0,-0.02734375,-0.984375,0.012633054254719377,0.6558373566156084,22.523362240742458,0.23740487914904304,1618,0,5.3471560907935825,2.1407381964161707,40.03507958374298,0.3063603749928654,0.12265161994144709,0.11328125,,
2.662415000000037,1200,,,,-0.0625,0.072265625,-0.998046875,0.012633054254719377,0.6558373566156084,22.523324270428326,0.23642440602123385,1618,0,5.325063562259658,2.140779318765276,40.2019486478552,0.30635449009936794,0.12316047479014652,0.11328125,,
2.6801850000005216,1200,,,,-0.0625,0.0859375,-0.970703125,0.012633054254719377,0.6558373566156084,22.523739625217747,0.23486518344787835,1617,0,5.290042239009013,2.1387858418960155,40.43041142704894,0.3066400308850998,0.12397582608687578,0.11328125,,0.20783000000100582,5670,
2.688320000000298,1200,,,,0,-0.07421875,-0.98828125,0.012633054254719377,0.6558373566156084,22.523680632473457,0.2359264300274503,1617,0,5.313931562697887,2.1386291216045636,40.24570313658274,0.3066625016887215,0.12341848006086087,0.11328125,,
2.7037999999998137,1500,,,,-0.125,-0.0234375,-0.95703125,0.012633054254719377,0.6558373566156084,22.523643728261447,0.23509403476485588,1617,0,5.295174281683125,2.13882689428433,40.392001858803454,0.3066341452729195,0.12385566965836368,0.11328125,,
2.712280000000261,1500,,,,0,0.078125,-0.998046875,0.012633054254719377,0.6558373566156084,22.523659521854597,0.23483480032542947,1617,0,5.289339086412682,2.138848217443585,40.43696542235086,0.30663108829643115,0.123992307148606,0.11328125,,
2.7212599999997766,1500,,,,0.28125,0.087890625,-1.158203125,0.012163826126048473,0.6558373566156084,22.51171907992522,0.5189508540871944,1611,0,11.682475843498185,2.0516906431477047,17.562121853558647,0.31965703933289985,0.05613855876112176,0.115234375,,
2.7292750000003725,1500,,,,-0.21875,-0.46484375,-0.65625,0.012163826126048473,0.6558373566156084,22.491379732152044,1.1232768365466503,1606,0,25.264045875101196,2.0458998168154805,8.098068800737108,0.3205618140366442,0.02595931624957839,0.126953125,,
2.7358799999998884,1500,,,,0.125,-0.0625,-1.26953125,0.012163826126048473,0.6558373566156084,22.476385408057453,1.5296177039026422,1691,0,34.380277039903696,2.1540413157394984,6.265340192690699,0.3044683274287404,0.019075976492405992,0.1328125,,
2.7429250000007452,1500,,,,-0.4375,-0.45703125,-1.1328125,0.012163826126048473,0.6558373566156084,22.46434687975902,1.8301366358818176,1902,0,41.11282422580438,2.4226306961591404,5.892639928731973,0.27071288977530855,0.015952135835124004,0.13671875,,
2.7516350000007077,1500,,,,0.03125,0.439453125,-1.04296875,0.012163826126048473,0.6558373566156084,22.45415762944777,2.1424328187509825,2004,0,48.10652422273667,2.552175212851636,5.305257975061514,0.2569719168625645,0.013633023113019645,0.142578125,,
2.759915000000037,1500,,,,-0.15625,-0.1796875,-0.859375,0.012163826126048473,0.6553830714866502,22.44661576404957,2.3605217240176506,2378,0,52.98572414171607,3.028673540260448,5.7160180205519735,0.21639277484832228,0.01236905000550256,0.1484375,,
2.768085000000894,1500,,,,0.125,-0.125,-1.123046875,0.012163826126048473,0.6553830714866502,22.441083777388407,2.5160197385266447,2593,0,56.46220973783931,3.3025868218907313,5.849198671509725,0.19844537231921835,0.011607464081368247,0.15234375,,
2.7757250000005587,1500,,,,-0.0625,-0.1015625,-1.01953125,0.012163826126048473,0.6553830714866502,22.43713928472756,2.6192498779237905,2814,0,58.768474332481745,3.584416254129244,6.099216110070279,0.18284234447705386,0.011151949730374665,0.15234375,,
2.7848499999996275,1500,,,,0.03125,-0.046875,-0.9296875,0.012163826126048473,0.6553830714866502,22.434003752348083,2.7050872488716227,3012,0,60.685937491614936,3.8371226674311436,6.322918992495295,0.17080065671327954,0.010799587162630643,0.15234375,,
2.7930249999994414,1500,,,,-0.125,0.05078125,-1.01953125,0.012163826126048473,0.6553830714866502,22.43205703068437,2.75079933290984,3131,0,61.70608751580205,3.987900946339872,6.46273505076566,0.1643428661607471,0.010621044014803498,0.15234375,,
2.8017400000002235,1500,,,,0,-0.021484375,-1.0234375,0.012163826126048473,0.6553830714866502,22.43082087463101,2.7833486982319937,3290,0,62.43279608167925,4.190515579517309,6.712042135730976,0.15639676289239365,0.01049741662425673,0.15234375,,
2.814070000000298,1500,,,,0,-0.046875,-0.822265625,0.012163826126048473,0.6553830714866502,22.429928667367196,2.799356910661604,3387,0,62.78937582064118,4.313986745207707,6.870567972407747,0.15192051116399416,0.010437801983551518,0.154296875,,
2.8315200000004843,1500,,,,-0.03125,0.138671875,-0.99609375,0.012163826126048473,0.6553830714866502,22.430079346289734,2.8006649452364445,3572,0,62.819136944025644,4.54947261383497,7.242176246210978,0.14405693299342584,0.010432856982269952,0.158203125,,
2.8389900000002237,1500,,,,-0.1875,0.025390625,-0.94140625,0.012163826126048473,0.6553830714866502,22.430573312105125,2.7885177069735945,3615,0,62.54805085837449,4.6050461903531446,7.362413579889485,0.1423184577083235,0.010478073457006881,0.16015625,,
2.8467400000002234,1500,,,,0.125,0.046875,-0.9921875,0.012163826126048473,0.6553830714866502,22.43103227194689,2.770575210171641,3679,0,62.14686195121612,4.685727483087383,7.5397652205924315,0.13986794448720782,0.010545714633204023,0.162109375,,
2.8542750000003725,1500,,,,-0.3125,-0.0078125,-0.76171875,0.012163826126048473,0.6553830714866502,22.43184837994527,2.7486930827476006,3711,0,61.65826647519853,4.726976584915715,7.666411748402134,0.13864741229691033,0.010629281505185878,0.162109375,,
2.8628650000002236,1500,,,,0.125,0.14453125,-0.9765625,0.012163826126048473,0.6553830714866502,22.432940827821326,2.725755396716575,3732,0,61.14670952565757,4.753266794661701,7.773544695266388,0.13788055663584842,0.01071820669616976,0.1640625,,
2.8714699999997393,1500,,,,-0.3125,0.109375,-0.984375,0.012718537655237378,0.6553830714866502,22.433980588803507,2.700774683800169,3764,0,60.58912683110492,5.012928531773906,8.273643793791061,0.1307385627647742,0.010816842984279372,0.166015625,,
2.8801699999999255,1500,,,,0.0625,0.0546875,-1.041015625,0.012718537655237378,0.6553830714866502,22.434778216926855,2.6728554557272584,3785,0,59.964919355144,5.040792071878161,8.406235055572946,0.13001589078488998,0.010929441388974856,0.166015625,,
2.8880300000002608,1500,,,,-0.1875,0.005859375,-0.88671875,0.012718537655237378,0.6553830714866502,22.4357643571903,2.643640086678293,3798,0,59.312086029936324,5.058172347129239,8.528063478624324,0.1295691460293187,0.011049739022091748,0.16796875,,
2.8958300000000743,1500,,,,0.0625,0.15234375,-1.16796875,0.012718537655237378,0.6553830714866502,22.436753208540324,2.617562882697868,3814,0,58.72961240692745,5.08022810315697,8.650198587991586,0.1290066229662759,0.011159329078244429,0.16796875,,
2.9037949999999255,1500,,,,-0.21875,-0.17578125,-0.927734375,0.012718537655237378,0.8451986441961346,22.43759967245464,2.5909176802073537,3833,0,58.13397369277745,5.104475996585972,8.780538594457289,0.16557990374750103,0.014538807353214559,0.169921875,,
2.911820000000298,1500,,,,0.0625,0.140625,-0.984375,0.012718537655237378,0.8451986441961346,22.438501590810052,2.563729044629851,3843,0,57.526238246332845,5.118488364670788,8.897658739222496,0.16512661238617396,0.014692402457760462,0.171875,,
2.9197000000001863,1500,,,,-0.3125,-0.07421875,-0.84375,0.012718537655237378,0.8451986441961346,22.439293957476867,2.5369892429588656,3849,0,56.928247389710684,5.12625043300623,9.004757160208584,0.16487658089315738,0.014846735723483688,0.173828125,,
2.9281299999998884,1500,,,,0.1875,0.0703125,-1,0.012718537655237378,0.8451986441961346,22.44011233497144,2.511166597240728,3853,0,56.35086053390993,5.1315451918068185,9.106418505745513,0.16470646025793642,0.014998859577087102,0.173828125,,
2.936235000000335,1500,,,,-0.3125,-0.1171875,-0.84765625,0.012718537655237378,0.8451986441961346,22.440895369148286,2.483695151129794,3865,0,55.736343015364646,5.148288527445846,9.236860993959786,0.1641707996143433,0.015164228553049159,0.17578125,,
2.944930000000633,1500,,,,0.09375,0.119140625,-1.0703125,0.012718537655237378,0.8451986441961346,22.441944948141806,2.455516343111455,3874,0,55.10656259136976,5.159443310853956,9.362665839117277,0.1638158602146252,0.015337531583370818,0.17578125,,
2.953004999999888,1500,,,,-0.15625,-0.09375,-0.95703125,0.012718537655237378,0.8451986441961346,22.4427776546026,2.4294199448149034,3880,0,54.522931651137796,5.167246536374325,9.477198638981282,0.16356847660479168,0.01550170943859173,0.177734375,,
2.964265000000596,1500,,,,-0.03125,-0.01953125,-1.02734375,0.012718537655237378,0.8451986441961346,22.443638900498925,2.4031661846267394,3875,0,53.93579406565227,5.160891416028862,9.56858335996105,0.1637698947842788,0.015670458900954226,0.1796875,,
2.9777750000003724,1500,,,,0.0625,0.09375,-1.03125,0.012718537655237378,0.8451986441961346,22.44483070074122,2.370404251770306,3890,0,53.20332212330169,5.181215802884038,9.738519318166409,0.16312747361838678,0.01588620053156341,0.1796875,,
3.00319000000041,1500,,,,-0.0625,0.0546875,-1.01171875,0.012718537655237378,0.8451986441961346,22.446499014222756,2.313101465417336,3900,0,51.92102976328744,5.194311430818645,10.004253487459644,0.16271620511266263,0.01627854162464554,0.185546875,,
3.012250000000931,1500,,,,-0.28125,0.009765625,-0.869140625,0.012718537655237378,0.8451986441961346,22.447452690011254,2.283804035710247,3908,0,51.265583044862545,5.205139380710307,10.153282322284886,0.16237771601820133,0.016486667935805988,0.1875,,
3.0212750000003727,1500,,,,0.15625,0.2421875,-1.04296875,0.055625742698083444,0.8451986441961346,22.448379321124897,2.258372506601227,3909,0,50.69680267658398,22.7717573639996,44.91754146562285,0.037116092126132025,0.01667163607117413,0.189453125,,
3.0300050000008194,1500,,,,-0.09375,0.021484375,-1.009765625,0.055625742698083444,0.8451986441961346,22.44937583552184,2.237142119126898,3905,0,50.2224442297555,22.749283333116335,45.2970453390199,0.03715275913618656,0.016829102150615286,0.19140625,,
3.0377450000001116,1500,,,,0,0.10546875,-1.0625,0.055625742698083444,0.8451986441961346,22.450285994751813,2.218940457300643,3903,0,49.815847871724806,22.736612333027765,45.64132360363365,0.037173464182629276,0.016966461082274672,0.19140625,,
3.0458349999999625,1500,,,,-0.125,0.12109375,-0.89453125,0.055625742698083444,0.8451986441961346,22.450864068860085,2.2031514228140416,3905,0,49.46265311671374,22.74835826672195,45.990978714878395,0.03715426996033187,0.01708761238912469,0.193359375,,
3.0539500000001865,1500,,,,0.1875,0.0859375,-1.03125,0.055625742698083444,2.866445307190503,22.451766102772147,2.1878813765280167,3904,0,49.12180092641819,22.743772473189463,46.30077082731231,0.12603209562395556,0.05835383176370678,0.193359375,,
3.062160000000149,1500,,,,-0.1875,0.03515625,-0.939453125,0.055625742698083444,2.866445307190503,22.45245947912889,2.175250353464076,3901,0,48.83972041811296,22.72446353590336,46.528651968850426,0.12613918487719994,0.058690862327857175,0.1953125,,
3.0702099999999626,1500,,,,-0.09375,0.072265625,-0.859375,0.055625742698083444,2.866445307190503,22.453031599887698,2.1613454821724463,3902,0,48.52875840949245,22.72680581674629,46.83162430197436,0.12612618466068634,0.05906694094670704,0.197265625,,
3.078035000000149,1500,,,,0.125,0.107421875,-1.0546875,0.055625742698083444,2.866445307190503,22.453372982709993,2.1472261378722974,3901,0,48.21246935187057,22.724377092521145,47.13381703532154,0.12613966470983634,0.059454438773302316,0.19921875,,
3.0870300000002606,1500,,,,-0.3125,0.015625,-0.765625,0.055625742698083444,2.866445307190503,22.45395514186784,2.129116027971816,3901,0,47.807075783910996,22.72159615436342,47.52768451487291,0.1261551031765889,0.05995859943718158,0.201171875,,
3.0951300000008195,1500,,,,0.15625,0.18359375,-1.033203125,0.055625742698083444,2.866445307190503,22.454154729813325,2.1171188797807914,3902,0,47.538114908006946,22.730704018623303,47.81574545522149,0.12610455465180573,0.060297832859748116,0.201171875,,
3.103480000000447,1500,,,,-0.4375,-0.13671875,-0.83984375,0.055625742698083444,2.866445307190503,22.454435509418207,2.1047738068494137,3902,0,47.26150770781282,22.729271227289054,48.09256481576797,0.12611250393937012,0.06065073769782951,0.205078125,,
3.1245250000003724,1500,,,,-0.041015625,0.0859375,-0.9765625,0.055625742698083444,2.866445307190503,22.455564719389763,2.076892169612721,3900,0,46.63778652993228,22.71645526955856,48.70826203336015,0.12618365291488567,0.06146186430504821,0.208984375,,
3.131905000000261,1500,,,,-0.125,-0.0390625,-0.8671875,0.055625742698083444,2.866445307190503,22.45595826885912,2.0652513362264395,3899,0,46.37719782100646,22.713693511164056,48.97599376061469,0.12619899558746842,0.06180721220487694,0.208984375,,
3.139459999999963,1500,,,,-0.03125,0.09375,-1.052734375,0.055625742698083444,2.866445307190503,22.456091243389146,2.0632787963245303,3898,0,46.33317691081378,22.707527074892425,49.00921669714531,0.12623326607677654,0.061865934915451434,0.212890625,,
3.1476650000000372,1500,,,,-0.1875,-0.029296875,-0.880859375,0.055625742698083444,2.866445307190503,22.456086850214998,2.0654368973447643,3901,0,46.38163035041263,22.72508478134219,48.99587317145703,0.1261357365559278,0.06180130550682555,0.212890625,,
3.156050000000745,1500,,,,0.25,0.15234375,-1.078125,0.055625742698083444,2.866445307190503,22.45628149778839,2.0672045475653844,3909,0,46.42172723363656,22.767559081279085,49.04504945861217,0.12590042248083916,0.06174792447432924,0.21484375,,
3.1639550000000747,1500,,,,-0.1875,0.04296875,-0.916015625,0.055625742698083444,2.866445307190503,22.4564640235067,2.0557691893778975,3911,0,46.16530684189829,22.784009555645518,49.35309892702243,0.12580952005790583,0.06209089689379039,0.216796875,,
3.172160000000149,1500,,,,0.15625,0.060546875,-1.064453125,0.0735971432606755,2.866445307190503,22.456736769229607,2.0474135199241044,3912,0,45.97822647469745,30.153598527953942,65.58234373078298,0.09506146686051949,0.06234353795199024,0.216796875,,
3.180219999999739,1500,,,,-0.375,-0.02734375,-0.8359375,0.0735971432606755,2.866445307190503,22.45702621086115,2.036569464422279,3915,0,45.735293842770574,30.170276360119395,65.96716414207197,0.09500891781619594,0.06267468876541624,0.21875,,
3.1883050000006334,1500,,,,0.1875,0.09765625,-1.021484375,0.0735971432606755,2.866445307190503,22.457368884600157,2.0263047688337203,3912,0,45.505473666323304,30.150200824394428,66.25620699056107,0.09507217958134699,0.0629912200938552,0.21875,,
3.196035000000149,1500,,,,-0.21875,-0.0625,-1,0.0735971432606755,2.866445307190503,22.457432530121196,2.015371941990824,3909,0,45.26007941035826,30.12456026468044,66.55878791451283,0.09515310039400869,0.06333275028533171,0.21875,,
3.2043950000004844,1500,,,,0.3125,0.078125,-1.01171875,0.0735971432606755,3.8054111669598387,22.457753867672984,2.0074558031323306,3906,0,45.08294832697768,30.105603517195608,66.77824905959042,0.12640208872697994,0.08440910162662713,0.21875,,
3.211975000000559,1500,,,,-0.21875,-0.08984375,-0.9140625,0.0735971432606755,3.8054111669598387,22.457928389715605,1.999007660181248,3908,0,44.89357088284341,30.11800524323305,67.08756877868004,0.12635003999193614,0.0847651699814799,0.220703125,,
3.2204250000007453,1500,,,,0.375,0.08984375,-1.08984375,0.0735971432606755,3.8054111669598387,22.45783336105368,1.9902251581146428,3907,0,44.696144951915365,30.109623005340346,67.36514533352403,0.12638521466326222,0.08513958353799292,0.22265625,,
3.232635000000708,1500,,,,-0.21875,0.044921875,-0.947265625,0.0735971432606755,3.8054111669598387,22.45831436859354,1.9810871444696443,3905,0,44.49187788207856,30.097481638581648,67.64713712096425,0.126436198638019,0.08553046866319543,0.22265625,,
3.24125,1500,,,,-0.103515625,0.078125,-0.994140625,0.0735971432606755,3.8054111669598387,22.45855121780225,1.9766195262080783,3907,0,44.39201086745214,30.109712877574665,67.82687309993173,0.12638483742546947,0.08572288329812819,0.22265625,,
3.2550449999999254,1500,,,,0.5,0.19921875,-1.1015625,0.0735971432606755,3.8054111669598387,22.45865380089079,1.969905893954864,3906,0,44.24143449266658,30.105765954994116,68.04880153690411,0.12640140671553235,0.08601464239570758,0.2265625,,
3.2642649999996647,1500,,,,-0.08203125,0.07421875,-0.9609375,0.0735971432606755,3.8054111669598387,22.45879677874308,1.9628265882067262,3903,0,44.08272345644849,30.079635657774315,68.23452205145963,0.12651121211224844,0.08632432092630105,0.2265625,,
3.2723949999995527,1500,,,,-0.25,0.05859375,-0.92578125,0.0735971432606755,3.8054111669598387,22.45880904467708,1.9558228583725672,3902,0,43.92545210140399,30.074069162298102,68.46615737242882,0.12653462843433352,0.08663339783446887,0.2265625,,
3.2801200000001116,1500,,,,0.375,0.36328125,-1.15234375,0.0735971432606755,3.8054111669598387,22.458684201433687,1.950986637950905,3905,0,43.81659278295622,30.09764150911904,68.69005460604053,0.12643552704310296,0.08684863256734257,0.23046875,,
3.28806500000041,1500,,,,-0.25,-0.068359375,-0.904296875,0.0735971432606755,3.8054111669598387,22.459143320050497,1.9498759234297351,3904,0,43.792542820624234,30.088303677217777,68.70645488767462,0.12647476600155477,0.08689632804715026,0.23046875,,
3.296195000000298,1500,,,,0.15625,0.14453125,-1.056640625,0.0735971432606755,3.8054111669598387,22.45925011426408,1.944860917509716,3903,0,43.68011778380783,30.078046448357853,68.85981076614163,0.12651789648285483,0.08711998410339682,0.232421875,,
3.304160000000149,1500,,,,-0.15625,0.091796875,-0.9453125,0.0735971432606755,3.8054111669598387,22.459286939455993,1.9397449357390033,3902,0,43.5652881011189,30.071753951096404,69.02686809116743,0.12654437028010782,0.0873496155500485,0.232421875,,
3.313694999999367,1500,,,,0.125,0.0546875,-1.00390625,0.0735971432606755,3.8054111669598387,22.4594043216848,1.9344304972395592,3903,0,43.44615666970103,30.078629145866913,69.23196768482742,0.1265154455179929,0.08758913235733227,0.232421875,,
3.322285000000149,1500,,,,-0.1875,0.078125,-0.9609375,0.07919213695406487,3.8054111669598387,22.459577285486432,1.9325598103783244,3901,0,43.404476420016984,32.35287271804548,74.53810156577583,0.11762204859283769,0.08767324204387557,0.232421875,,
3.331769999999553,1500,,,,-0.09375,0.00390625,-0.90234375,0.07919213695406487,3.8054111669598387,22.459490693196287,1.9292966800674856,3901,0,43.33102083039019,32.35324651508447,74.66532266046578,0.11762068963266462,0.08782186742969406,0.234375,,
3.3393100000005216,1500,,,,0.125,0.080078125,-1.04296875,0.07919213695406487,3.8054111669598387,22.459517954051353,1.927220686963654,3899,0,43.284447620279366,32.33600549385522,74.70582916415768,0.11768340303142816,0.08791636202322588,0.234375,,
3.346290000000037,1500,,,,-0.375,0.04296875,-0.76953125,0.07919213695406487,3.8054111669598387,22.459538866073835,1.9254412132616805,3897,0,43.244521763591074,32.32149033819525,74.74123662389007,0.11773625309792332,0.08799753152002097,0.236328125,,
3.3532549999998884,1500,,,,-0.125,0.0859375,-0.94140625,0.07919213695406487,4.199793582824506,22.459730154154187,1.9229179702174897,3899,0,43.188218719658714,32.335037073332295,74.87004102490063,0.12988367922077335,0.09724396391724334,0.236328125,,
3.3621549999993294,1500,,,,0,0.041015625,-1,0.07919213695406487,4.199793582824506,22.459543607589527,1.917819909772424,3899,0,43.07335989503717,32.33790014507702,75.0763354051768,0.1298721798256237,0.09750327332389963,0.23828125,,
3.371265000000596,1500,,,,0.0625,0.076171875,-1.03515625,0.07919213695406487,4.199793582824506,22.45971660837325,1.9146219972597072,3899,0,43.001867470610605,32.335281599080396,75.19506361248095,0.12988269701488997,0.09766537664195239,0.240234375,,
3.379495000000112,1500,,,,-0.21875,-0.0390625,-0.83203125,0.07919213695406487,4.199793582824506,22.459832293729836,1.915156158474795,3900,0,43.01408613564777,32.341634138490384,75.18847206586906,0.12985718547308198,0.09763763362495204,0.240234375,,
3.3872250000005586,1500,,,,0.3125,0.29296875,-1.25,0.07919213695406487,4.199793582824506,22.45971532073345,1.911761483634814,3898,0,42.93761868358094,32.330079736072776,75.29546520574878,0.12990359495273754,0.09781151613865531,0.2421875,,
3.3951350000007077,1500,,,,-0.28125,-0.052734375,-0.8828125,0.07919213695406487,4.199793582824506,22.459828070573533,1.9111393842401985,3897,0,42.92386198893663,32.320456602784816,75.297177619095,0.12994227261203484,0.0978428638109725,0.244140625,,
3.4034500000001864,1500,,,,0.3125,0.12890625,-1.0703125,0.07919213695406487,4.199793582824506,22.459770913111175,1.9060468782965587,3897,0,42.809376236191405,32.31429423572483,75.48415108278559,0.12996705272867928,0.09810452643955987,0.244140625,,
3.412269999999553,1500,,,,-0.21875,0.013671875,-0.919921875,0.07919213695406487,4.199793582824506,22.459783422898735,1.9056714369193106,3898,0,42.80096774841194,32.32676158657451,75.52810902920284,0.12991692878289124,0.0981237996185339,0.244140625,,
3.422269999999553,1500,,,,0.15625,0.056640625,-1.087890625,0.07919213695406487,4.199793582824506,22.459860265767542,1.9044874597721266,3896,0,42.77452222438855,32.30959871084238,75.53468053097404,0.1299859407234033,0.09818446506060398,0.244140625,,
3.4305449999999253,1500,,,,-0.15625,0.091796875,-1,0.07919213695406487,4.199793582824506,22.45986948673867,1.9047058364108918,3896,0,42.779444496418044,32.31281832213617,75.53351545937382,0.1299729890768272,0.09817316779735552,0.248046875,,
3.4382599999997763,1500,,,,0.125,0.02734375,-0.96875,0.07919213695406487,4.199793582824506,22.459993559110853,1.8994584444027047,3898,0,42.66182442708347,32.324854030554285,75.76997576792132,0.12992459544766244,0.09844383448726364,0.24609375,,
3.4466499999994413,1500,,,,-0.1875,-0.01953125,-0.92578125,0.07919213695406487,4.199793582824506,22.45999394954733,1.898072875638892,3899,0,42.63070530264942,32.337871631143095,75.8558212949232,0.12987229434048098,0.09851569550653191,0.248046875,,
3.4640250000003725,1500,,,,-0.125,-0.0390625,-0.923828125,0.07919213695406487,4.199793582824506,22.46053639698283,1.8981810460601827,3899,0,42.63416447309768,32.33466003243079,75.84213372548695,0.12988519373985147,0.09850770232578597,0.248046875,,
3.4818050000006333,1500,,,,0.125,-0.001953125,-1.046875,0.0799995572615347,4.199793582824506,22.460731883148426,1.8950504449115246,3900,0,42.56421994819889,32.669783816021976,76.75409970106689,0.12855284278816792,0.09866957712218617,0.251953125,,
3.491,1500,,,,-0.28125,-0.060546875,-0.849609375,0.0799995572615347,4.199793582824506,22.46068717165737,1.8955660110235677,3899,0,42.57571518682678,32.665546548466956,76.72342415183645,0.12856951824128007,0.09864293681023005,0.25390625,,
3.499550000000745,1500,,,,0.09375,0.0859375,-1.001953125,0.0799995572615347,4.199793582824506,22.460842347169766,1.8932927356617446,3898,0,42.524949652740204,32.65732261547311,76.7956761434255,0.12860189527094404,0.09876069500658141,0.255859375,,
3.5071850000005216,1500,,,,-0.375,-0.19921875,-0.953125,0.0799995572615347,4.371253091583426,22.460798276340423,1.890872138039765,3899,0,42.470497658863685,32.661193387698155,76.90325093443235,0.13383629433546232,0.10292446127414605,0.255859375,,
3.514589999999851,1500,,,,0.125,0.115234375,-1.0234375,0.0799995572615347,4.371253091583426,22.460852872134602,1.8906562993190679,3898,0,42.465752970780066,32.65219244682806,76.89064755144094,0.13387318780206636,0.10293596099876548,0.2578125,,
3.5263150000004098,1500,,,,-0.03125,0.1015625,-1.0078125,0.0799995572615347,4.371253091583426,22.460799530327616,1.893021865153257,3896,0,42.518784619734184,32.63564005149582,76.7558159137707,0.13394108663675725,0.10280757389181351,0.259765625,,
3.5438650000002236,1500,,,,0.21875,0.1171875,-1.00390625,0.0799995572615347,4.371253091583426,22.46067084079592,1.8894492799298086,3897,0,42.4382983468823,32.64426062497527,76.92170020142538,0.13390571597872536,0.10300255339772729,0.26171875,,
3.552195000000298,1500,,,,-0.09375,0.01171875,-0.974609375,0.0799995572615347,4.371253091583426,22.46077316701715,1.8897233923527053,3898,0,42.44464846404027,32.65618159078683,76.93827790434788,0.13385683440762933,0.1029871432505046,0.263671875,,
3.5768650000002236,1500,,,,-0.15625,-0.01953125,-0.982421875,0.0799995572615347,4.371253091583426,22.460765659363304,1.888050134179256,3899,0,42.40705161692971,32.66762902191567,77.03348329190169,0.13380992812949147,0.10307844862853748,0.263671875,,
3.5844550000000743,1500,,,,-0.041015625,-0.0234375,-0.96484375,0.0799995572615347,4.371253091583426,22.460805541958244,1.8868489744768286,3899,0,42.38014790276738,32.666386073919654,77.07945274015093,0.13381501956451092,0.10314388476445094,0.265625,,
3.5914899999992924,1500,,,,-0.03125,-0.04296875,-0.978515625,0.0799995572615347,4.371253091583426,22.46093935439117,1.8857269042692917,3898,0,42.35519763573636,32.65165409739371,77.09007611817758,0.1338753950579289,0.10320464395366834,0.265625,,
3.608410000000149,1500,,,,-0.125,0.03125,-0.99609375,0.0799995572615347,4.371253091583426,22.460850716317548,1.88453382225133,3892,0,42.32823285143843,32.60526178282675,77.02958424289318,0.13406587932643965,0.10327038945673533,0.265625,,
3.6182900000000373,1500,,,,0.078125,0.03125,-1.0390625,0.08032565315344731,4.371253091583426,22.460793594913607,1.886974405635896,3896,0,42.38294264387264,32.770798489158494,77.32072490699561,0.13338866591943313,0.10313708343267629,0.267578125,,
3.62618499999959,1500,,,,-0.25,-0.033203125,-0.888671875,0.08032565315344731,4.371253091583426,22.460817941532387,1.8875221813716792,3898,0,42.39529207639336,32.78803483619106,77.33885823244077,0.13331854481130678,0.1031070403691696,0.26953125,,
3.6345200000004843,1500,,,,0.4375,0.1875,-1.125,0.08032565315344731,4.371253091583426,22.460843338794742,1.8855314970631418,3899,0,42.35062756589835,32.80049609012342,77.44984661463457,0.13326789569196965,0.10321578079998169,0.271484375,,
3.6425600000005214,1500,,,,-0.28125,-0.11328125,-0.87109375,0.08032565315344731,4.371253091583426,22.46080210313173,1.8861971753301041,3900,0,42.36550148257553,32.80538712299888,77.43419993857827,0.13324802646571637,0.1031795432276725,0.271484375,,
3.6505200000004843,1500,,,,0.25,0.23828125,-1.21875,0.08032565315344731,4.371253091583426,22.460696121943418,1.8851140034226468,3899,0,42.34097278609627,32.800054874052414,77.4664650237397,0.13326968836998662,0.10323931652838259,0.2734375,,
3.6593449999997394,1500,,,,0,-0.048828125,-0.90625,0.08032565315344731,4.435155221624622,22.46087491483346,1.8841115549800533,3900,0,42.31879396199935,32.802950071578486,77.5139057626129,0.13520598641118503,0.10480344089217715,0.2734375,,
3.6674000000003724,1500,,,,-0.125,-0.0078125,-0.9921875,0.08032565315344731,4.435155221624622,22.460703292600776,1.8833671989657295,3900,0,42.30175184698586,32.80633774013502,77.55314214598557,0.13519202468609248,0.10484566307484122,0.2734375,,
3.675425000000745,1500,,,,-0.125,-0.05078125,-0.97265625,0.08032565315344731,4.435155221624622,22.46066790687159,1.8835056806853894,3898,0,42.30479559458065,32.78573331855041,77.49885765374161,0.13527698705202296,0.10483811963371774,0.275390625,,
3.6834050000002607,1500,,,,-0.125,-0.00390625,-0.95703125,0.08032565315344731,4.435155221624622,22.460700187192426,1.8833166796872365,3895,0,42.30061129999373,32.763611972301945,77.4542281196461,0.13536832341238997,0.10484849001757283,0.275390625,,
3.691370000000112,1500,,,,0.1875,0.07421875,-1.10546875,0.08032565315344731,4.435155221624622,22.460470160270116,1.8815426225420946,3897,0,42.2603319288831,32.77637194722916,77.55824540703131,0.13531562397343247,0.10494842371537046,0.275390625,,
3.699195000000298,1500,,,,0.1875,0.01953125,-1.05859375,0.08032565315344731,4.435155221624622,22.46031694115538,1.8811299087482065,3897,0,42.25077395797142,32.781412356169966,77.5877203782799,0.1352948180949823,0.10497216514983733,0.275390625,,
3.707549999999814,1500,,,,-0.21875,-0.03515625,-0.966796875,0.08032565315344731,4.435155221624622,22.46030139893102,1.8797731164303946,3898,0,42.22027075663451,32.79065354978115,77.66566382009384,0.13525668876624825,0.10504800519138498,0.27734375,,
3.7151150000002233,1500,,,,0,0.02734375,-0.912109375,0.08032565315344731,4.435155221624622,22.46035463862508,1.8794289551443868,3900,0,42.21264085064352,32.80179428885075,77.70609378576867,0.13521075044154277,0.10506699254654686,0.27734375,,
3.7225200000004843,1500,,,,-0.125,0.0390625,-1.0390625,0.08032565315344731,4.435155221624622,22.460520473111018,1.8809176219730257,3900,0,42.246388756560435,32.80342538652368,77.64788033256367,0.1352040273040106,0.10498306132582484,0.275390625,,
3.7318100000005217,1500,,,,0,0.04296875,-1.025390625,0.08032565315344731,4.435155221624622,22.46058451481106,1.880579495056683,3899,0,42.23891468554134,32.7995961008521,77.6525541554211,0.13521981209730205,0.10500163781771611,0.27734375,,
3.7398250000001863,1500,,,,0.0625,0.08984375,-1.009765625,0.08032565315344731,4.435155221624622,22.460549145193493,1.8809151543212341,3899,0,42.246387261571286,32.797614766806966,77.63412895814825,0.1352279808504016,0.10498306504090081,0.27734375,,
3.7475849999999626,1500,,,,-0.1875,-0.04296875,-0.89453125,0.08032565315344731,4.435155221624622,22.460585182605065,1.8797593346295949,3899,0,42.22049465824504,32.7970483692223,77.68039819215507,0.1352303162069517,0.10504744810607049,0.27734375,,
3.7550800000000746,1500,,,,0,0.01171875,-1.03515625,0.08032565315344731,4.435155221624622,22.46055778947539,1.8788363522272005,3899,0,42.199712466166176,32.79680851207805,77.71808525561175,0.13523130520432472,0.10509918107097362,0.279296875,,
3.763530000000261,1500,,,,-0.25,0.05078125,-0.8515625,0.08032565315344731,4.435155221624622,22.460461529922686,1.8776593169822076,3899,0,42.17309485537978,32.79670595368573,77.76689395490747,0.1352317280853687,0.1051655145735375,0.279296875,,
3.771515000000596,1500,,,,0.03125,0.07421875,-1.068359375,0.08050943616288897,4.435155221624622,22.46053439949219,1.8789834748460175,3898,0,42.202972972856344,32.8646046422045,77.87272395085057,0.13495233762614706,0.10509106134482936,0.279296875,,
3.780445000000298,1500,,,,-0.25,-0.078125,-0.876953125,0.08050943616288897,4.435155221624622,22.46057831485729,1.8803291139760308,3897,0,42.23327932216486,32.85380807113927,77.79127881716951,0.13499668629040068,0.10501564862610525,0.279296875,,
3.7884050000002607,1500,,,,0.1875,0.06640625,-1.017578125,0.08050943616288897,4.435155221624622,22.460748609916855,1.880617127867259,3897,0,42.240068540530366,32.857422492563956,77.78733233123536,0.13498183622371332,0.10499876953014371,0.28125,,
3.795860000000335,1500,,,,-0.4375,-0.01953125,-0.82421875,0.08050943616288897,4.435155221624622,22.460713262775304,1.8788262368750013,3899,0,42.19977737702855,32.87298639585235,77.89848297575797,0.13491792830189026,0.10509901940949333,0.28125,,
3.8050950000006707,1500,,,,0.1875,0.138671875,-1.083984375,0.08050943616288897,4.458955994445538,22.460770285145458,1.8803023258822482,3897,0,42.23303860826589,32.85172744456441,77.78679566318166,0.1357297269061359,0.10557980532267046,0.28125,,
3.812835000000894,1500,,,,-0.15625,0.068359375,-0.931640625,0.08050943616288897,4.458955994445538,22.460724018248385,1.8793473469947413,3897,0,42.21150209527617,32.85174884298066,77.82653355673183,0.1357296384968032,0.10563367265114534,0.28125,,
3.820319999999367,1500,,,,0.1875,0.09765625,-1.01953125,0.08050943616288897,4.458955994445538,22.460515020392492,1.8851210157316334,3898,0,42.3407888890979,32.863151467626665,77.6158223071947,0.13568254398358703,0.10531112224018221,0.28125,,
3.828325000000186,1500,,,,-0.15625,0.015625,-0.904296875,0.08050943616288897,4.458955994445538,22.460295271161073,1.8911954091904675,3899,0,42.47680730588218,32.87549695960118,77.39634648823662,0.13563159212239118,0.10497389698655772,0.28125,,
3.835679999999702,1500,,,,-0.0625,0.109375,-0.94921875,0.08050943616288897,4.458955994445538,22.459993417414054,1.893762415247456,3904,0,42.533891380604004,32.91632084888742,77.38845372586268,0.13546337742045225,0.10483301315051739,0.28125,,
3.8439550000000744,1500,,,,-0.0625,0.17578125,-0.96484375,0.08050943616288897,4.458955994445538,22.46058333606937,1.8921073022325787,3906,0,42.49783374258023,32.9328595340941,77.49303113560208,0.1353953485220242,0.10492195958632916,0.28125,,
3.851110000000335,1500,,,,0.3125,0.17578125,-1.0625,0.08050943616288897,4.458955994445538,22.46055784496201,1.8903251947940798,3907,0,42.45775838346151,32.938971357187405,77.58057092815824,0.13537022592761014,0.10502099414137762,0.28125,,
3.860395000000484,1500,,,,-0.3125,0.001953125,-0.91015625,0.08050943616288897,4.458955994445538,22.460305365122583,1.8890105077316885,3908,0,42.42775284157898,32.94969632611482,77.66071526141324,0.13532616356501956,0.1050952665604242,0.283203125,,
3.8678850000007077,1500,,,,0.03125,0.10546875,-1.0078125,0.08050943616288897,4.458955994445538,22.460292023432853,1.886220202332048,3908,0,42.3650565648764,32.94395866635213,77.76210239658923,0.1353497325444306,0.10525079761470979,0.283203125,,
3.8756749999998137,1500,,,,0.09375,0.033203125,-1.021484375,0.08050943616288897,4.458955994445538,22.460277924245354,1.882428069970047,3905,0,42.27985762392804,32.922093296652506,77.86708647292237,0.13543962573300045,0.10546289048811787,0.283203125,,
3.887959999999963,1500,,,,-0.1875,-0.05078125,-0.82421875,0.08050943616288897,4.458955994445538,22.460408698851275,1.879542029186234,3902,0,42.215282142191064,32.89747842414851,77.92788951011156,0.1355409656921433,0.10562421398551167,0.283203125,,
3.896609999999404,1500,,,,0,0.064453125,-0.97265625,0.08050943616288897,4.458955994445538,22.460378817688866,1.8762067121152282,3902,0,42.14031349439854,32.89613337244364,78.06333328966888,0.13554650766891363,0.10581212204409064,0.28515625,,
3.904554999999702,1500,,,,-0.5625,-0.07421875,-1,0.08050943616288897,4.458955994445538,22.460489829229466,1.8747935651885195,3902,0,42.10878180282159,32.895825391773606,78.1210568992745,0.1355477766963284,0.10589135575864027,0.287109375,,
3.912425000000745,1500,,,,0.125,0.205078125,-1.01953125,0.08050943616288897,4.458955994445538,22.460465840644385,1.8759882202160567,3903,0,42.135569337614,32.906598129828886,78.09695857237058,0.13550340198805366,0.10582403571476304,0.2890625,,
3.9205449999999256,1500,,,,-0.09375,0.06640625,-0.96875,0.08048808749594462,4.458955994445538,22.46044315416674,1.877595607642865,3904,0,42.17162941197573,32.90331680277186,78.02239861623205,0.1355169152451495,0.10573354780499189,0.2890625,,
3.928620000000112,1500,,,,0.0625,0.0546875,-1.00390625,0.08048808749594462,4.458955994445538,22.460486801801856,1.874611418897136,3902,0,42.104685032646174,32.88613756282638,78.10564913934844,0.13558770731062758,0.10590165894812546,0.287109375,,
3.937515000000596,1500,,,,-0.15625,0.05859375,-0.97265625,0.08048808749594462,4.458955994445538,22.46068150752415,1.8727247637224567,3900,0,42.062674469223516,32.871213262091615,78.14817692142442,0.13564926730549925,0.1060074294065175,0.2890625,,
3.945825000000186,1500,,,,-0.125,-0.025390625,-0.896484375,0.08048808749594462,4.458955994445538,22.460713538323702,1.8757266791867415,3899,0,42.13015961740461,32.86621787048051,78.01114016407139,0.13566988486528728,0.10583762404269353,0.2890625,,
3.9545999999996275,1500,,,,0.125,0.078125,-1.0625,0.08048808749594462,4.469410106525387,22.460892651099954,1.8779496040951886,3897,0,42.18042446175769,32.84887650213279,77.8770648263978,0.13605975553639407,0.10595934402171596,0.2890625,,
3.963110000000335,1500,,,,-0.125,-0.015625,-0.970703125,0.08048808749594462,4.469410106525387,22.46065553987406,1.8761363648638687,3895,0,42.13925263703884,32.82860293835204,77.9050431224234,0.1361437803161582,0.10606287076380043,0.2890625,,
3.970855000000447,1500,,,,0.1875,0.21484375,-1.04296875,0.08048808749594462,4.469410106525387,22.4607655886612,1.8757326843679891,3897,0,42.13039213057963,32.85059758946609,77.97363358890279,0.13605262718138655,0.10608517700649031,0.2890625,,
3.9791500000003723,1500,,,,-0.375,-0.10546875,-0.69140625,0.08048808749594462,4.469410106525387,22.460793612195225,1.8803057179378244,3898,0,42.233158658432046,32.85810476166098,77.80167481055956,0.13602154290226498,0.10582703848112597,0.291015625,,
3.987340000000782,1500,,,,0.09375,0.076171875,-1.0390625,0.08048808749594462,4.469410106525387,22.460754219376074,1.882699149230294,3899,0,42.28684285989007,32.8634997624365,77.71566175163242,0.135999213073283,0.10569268841691448,0.291015625,,
3.995765000000596,1500,,,,-0.28125,-0.015625,-0.876953125,0.08048808749594462,4.469410106525387,22.460618167013873,1.8841536134915964,3900,0,42.31925488063418,32.87044350131045,77.67254786036503,0.13597048382834276,0.10561173912753942,0.291015625,,
4.003644999999553,1500,,,,0.09375,0.0390625,-1.015625,0.08048808749594462,4.469410106525387,22.460523119275308,1.8808663292473407,3904,0,42.24524167232638,32.909316616724006,77.90064706454723,0.13580987288730575,0.10579676975675029,0.29296875,,
4.012714999999851,1500,,,,-0.4375,-0.12890625,-0.92578125,0.08048808749594462,4.469410106525387,22.46071529924413,1.8787602494048248,3904,0,42.19829907741866,32.90260645386739,77.97140447178445,0.13583756997464402,0.10591446110957294,0.294921875,,
4.020610000000335,1500,,,,0.15625,0.10546875,-1,0.08048808749594462,4.469410106525387,22.460615036418123,1.8774190050368516,3903,0,42.167985534187856,32.89793224782525,78.01637149859371,0.1358568700566535,0.10599060044976052,0.294921875,,
4.028224999999628,1500,,,,-0.0625,-0.017578125,-1.06640625,0.08048808749594462,4.469410106525387,22.46038917790708,1.877845073701822,3902,0,42.17713117115852,32.88642877538698,77.97218033140034,0.1359043919621459,0.10596761757901754,0.296875,,
4.037610000000336,1500,,,,0,-0.07421875,-0.90234375,0.08048808749594462,4.469410106525387,22.460719146274485,1.8756634932231029,3900,0,42.12875093420423,32.873160236327436,78.03022759366407,0.1359592468261185,0.10608930973305178,0.294921875,,
4.045514999999665,1500,,,,-0.03125,0.08984375,-0.98828125,0.08048808749594462,4.469410106525387,22.46092035497877,1.8735089122191293,3906,0,42.08073446169678,32.922909318725445,78.23748739151148,0.1357538018058245,0.10621036357132944,0.296875,,
4.061379999999888,1500,,,,-0.15625,-0.01953125,-0.9609375,0.08048808749594462,4.469410106525387,22.46083275597619,1.8716033136117707,3903,0,42.03776901256483,32.89807576328261,78.25837701674791,0.1358562773909614,0.10631891776153743,0.296875,,
4.068890000000596,1500,,,,-0.125,-0.048828125,-0.921875,0.08073146013350933,4.469410106525387,22.460793007581685,1.8716746710406837,3901,0,42.03929736377834,32.97651922948706,78.44212747927634,0.13553310691835888,0.10631505250552295,0.296875,,
4.07631500000041,1500,,,,0.1875,0.13671875,-1.03125,0.08073146013350933,4.469410106525387,22.46081648728634,1.8700417072805537,3901,0,42.002663610800155,32.98207431428597,78.52376844454521,0.13551027943046903,0.10640777803853767,0.296875,,
4.085959999999963,1500,,,,-0.125,-0.078125,-0.958984375,0.08073146013350933,4.469410106525387,22.46077139728996,1.8709300733053884,3901,0,42.022532676827275,32.98224300742874,78.48704232340648,0.13550958634070828,0.10635746638350475,0.296875,,
4.093955000000075,1500,,,,0.125,0.146484375,-1.05078125,0.08073146013350933,4.469410106525387,22.460798680774815,1.870193502862012,3901,0,42.00603976187671,32.97748193255987,78.5065245843269,0.13552915033553775,0.10639922572709831,0.294921875,,
4.100865000000224,1500,,,,-0.25,-0.01953125,-0.84765625,0.08073146013350933,4.485086030821428,22.46075951218701,1.8699096311571302,3900,0,41.99959053494261,32.96830089866369,78.4967197983392,0.13604237733110544,0.10678880374059715,0.294921875,,
4.108855000000447,1500,,,,0.09375,0.095703125,-1.05859375,0.08073146013350933,4.485086030821428,22.46062286896911,1.8687778483321353,3892,0,41.97391447727165,32.906433849581965,78.39734334857043,0.13629814921067193,0.1068541280144373,0.294921875,,
4.117130000000819,1500,,,,-0.25,-0.1171875,-0.927734375,0.08073146013350933,4.485086030821428,22.460769713354317,1.8698146749405204,3892,0,41.99747682048949,32.906497441341536,78.35351057396691,0.13629788581469215,0.10679417837390817,0.294921875,,
4.125740000000223,1500,,,,0.3125,0.1796875,-1.0546875,0.08073146013350933,4.485086030821428,22.46080085929748,1.8702352037706278,3898,0,42.00698047193971,32.95781575967587,78.45795005830375,0.13608565760322516,0.10677001727885264,0.294921875,,
4.134745000000112,1500,,,,-0.1875,-0.0703125,-0.921875,0.08073146013350933,4.485086030821428,22.46083030264717,1.8701536044231302,3901,0,42.00520274883187,32.97615541356971,78.50493095045647,0.13600997370893678,0.10677453594593482,0.294921875,,
4.143345000000671,1500,,,,0.03125,0.068359375,-1.056640625,0.08073146013350933,4.485086030821428,22.46089424246577,1.8703142208949217,3899,0,42.0089299157006,32.96221377749811,78.46477842602381,0.13606750023213565,0.10676506256697468,0.294921875,,
4.150410000000149,1500,,,,-0.3125,-0.02734375,-0.9296875,0.08073146013350933,4.485086030821428,22.46085578591077,1.8727714591374163,3898,0,42.06404966365519,32.95777868709584,78.35141635345802,0.13608581067927072,0.10662516012329407,0.294921875,,
4.15856500000041,1500,,,,0.15625,0.08203125,-1.0078125,0.08073146013350933,4.485086030821428,22.46061930167999,1.8708843824365968,3899,0,42.021221871367075,32.960524964059495,78.43780712744703,0.13607447198465478,0.10673383188501546,0.294921875,,
4.166509999999777,1500,,,,-0.4375,-0.078125,-0.87890625,0.08073146013350933,4.485086030821428,22.46032725728292,1.8817488909918947,3905,0,42.26469590770716,33.01260673065366,78.10917840919248,0.13585979645336,0.10611897079812072,0.296875,,
4.174765000000596,1500,,,,0.1875,0.14453125,-1.05078125,0.08073146013350933,4.485086030821428,22.4602120889656,1.8906646059570047,3906,0,42.464728038894904,33.018580741984294,77.75530956360168,0.13583521550696098,0.105619092313823,0.296875,,
4.1829500000001865,1500,,,,-0.15625,0.076171875,-0.96484375,0.08073146013350933,4.485086030821428,22.46049661641973,1.8937998471034843,3905,0,42.53568505804401,33.01360992844998,77.613913784155,0.13585566802727433,0.10544290105357654,0.296875,,
4.195240000000224,1500,,,,-0.1875,0.056640625,-0.974609375,0.08073146013350933,4.485086030821428,22.46053764530489,1.8893814284567851,3910,0,42.43652270019355,33.055429911268234,77.89382307499353,0.13568379061657618,0.10568929180432053,0.296875,,
4.210360000000335,1500,,,,-0.4375,-0.00390625,-0.8671875,0.08073146013350933,4.485086030821428,22.460758588928584,1.88418040318712,3914,0,42.320121173976034,33.09292244861633,78.19666279444918,0.13553006803147896,0.10597999028366319,0.296875,,
4.218134999999776,1500,,,,0.125,0.212890625,-1.0546875,0.08087364698122032,4.485086030821428,22.460726018110808,1.88034510585412,3907,0,42.23391624208496,33.09112364580021,78.35201324007409,0.1355374353203826,0.10619630926748301,0.296875,,
4.22481500000041,1500,,,,-0.25,0.013671875,-0.9609375,0.08087364698122032,4.485086030821428,22.460980712043394,1.882667658553229,3907,0,42.286561965951975,33.08481346382543,78.2395444927976,0.13556328602926454,0.1060640974887649,0.296875,,
4.233165000000037,1500,,,,0.3125,0.23828125,-1.12109375,0.08087364698122032,4.485086030821428,22.461129452108814,1.882196256465747,3909,0,42.276253770751744,33.1042224432531,78.30453148182163,0.1354838053819181,0.10608995903805399,0.296875,,
4.241865000000224,1500,,,,-0.1875,0.052734375,-0.888671875,0.08087364698122032,4.485086030821428,22.461340795555802,1.883047854471127,3906,0,42.29577959361615,33.082324365113806,78.21660856703309,0.13557348574790806,0.10604098266812365,0.296875,,
4.249740000000224,1500,,,,0.375,0.0703125,-1.07421875,0.08087364698122032,4.491725390206428,22.461340474273612,1.8800147497996844,3906,0,42.22765139190703,33.07762385625442,78.33166838777535,0.13579347203795952,0.10636929220902092,0.296875,,
4.257740000000224,1500,,,,-0.3125,-0.037109375,-0.912109375,0.08087364698122032,4.491725390206428,22.461176956002276,1.880951474165664,3906,0,42.24838390688833,33.0794101611784,78.29745685440294,0.1357861391216057,0.10631709369299877,0.296875,,
4.265849999999627,1500,,,,0.125,0.056640625,-0.974609375,0.08087364698122032,4.491725390206428,22.46111959937687,1.8815209694720698,3905,0,42.26106752404768,33.07283722313343,78.2584046281228,0.13581312543287347,0.10628518523935808,0.298828125,,
4.274915000000037,1500,,,,0,-0.033203125,-1.0546875,0.08087364698122032,4.491725390206428,22.461131377424106,1.880105951092967,3904,0,42.22930677097603,33.059778002269766,78.28633839898022,0.1358667741174197,0.10636512255734129,0.298828125,,
4.282390000000596,1500,,,,-0.1875,0.05859375,-0.86328125,0.08087364698122032,4.491725390206428,22.461337734031684,1.8793355250656778,3904,0,42.21238994406396,33.06021232059284,78.3187409298579,0.1358649892096604,0.10640774891349332,0.298828125,,
4.290485000000335,1500,,,,-0.0625,0.060546875,-1.025390625,0.08087364698122032,4.491725390206428,22.461467617962846,1.8793487609850714,3904,0,42.212931337724775,33.065230243618984,78.32962363850177,0.13584437057029877,0.10640638420180669,0.30078125,,
4.29865500000026,1500,,,,-0.0625,-0.078125,-0.8984375,0.08087364698122032,4.491725390206428,22.46152699913335,1.8764634309128192,3903,0,42.14823401633469,33.0525824035815,78.41985121078113,0.13589635252583818,0.10656971745164091,0.30078125,,
4.306715000000782,1500,,,,-0.09375,0.00390625,-1,0.08087364698122032,4.491725390206428,22.461353086404095,1.878223629493487,3902,0,42.18744411728064,33.04763665014631,78.33524249128303,0.13591669013301566,0.10647066880182358,0.302734375,,
4.315980000000447,1500,,,,-0.1875,-0.125,-0.916015625,0.08087364698122032,4.491725390206428,22.461568823310603,1.8774753338375532,3903,0,42.17104142506025,33.05327042904905,78.37907083178423,0.13589352375427424,0.10651208123917016,0.302734375,,
4.3236000000005586,1500,,,,0.25,0.10546875,-1.03515625,0.08087364698122032,4.491725390206428,22.461688358800032,1.8755507035768104,3904,0,42.12803540487045,33.06252101113991,78.481041646954,0.1358555020257835,0.1066208131245336,0.302734375,,
4.332334999999963,1500,,,,-0.125,-0.0390625,-0.921875,0.08087364698122032,4.491725390206428,22.461604598230362,1.8725221115925799,3901,0,42.05985127203592,33.03684440033877,78.54722116505386,0.1359610904654189,0.10679365842629154,0.302734375,,
4.339904999999329,1500,,,,0.1875,0.091796875,-1.04296875,0.08087364698122032,4.491725390206428,22.461446820318525,1.8739518781745275,3896,0,42.09167045545317,32.99597470048191,78.3907465383264,0.13612949552118628,0.10671292779791551,0.302734375,,
4.350060000000521,1500,,,,-0.21875,-0.015625,-0.93359375,0.08087364698122032,4.491725390206428,22.46157191750229,1.873272170709534,3895,0,42.07663758344782,32.98657531371798,78.39641475224316,0.136168285051964,0.10675105351035442,0.302734375,,
4.36872000000067,1500,,,,-0.1875,-0.01953125,-0.90234375,0.0809336166140446,4.491725390206428,22.461586704157092,1.8742899347011344,3904,0,42.099525877018465,33.08745408579983,78.59341262525191,0.1357531280151937,0.10669301605266764,0.30078125,,
4.376785000000149,1500,,,,0.0625,-0.052734375,-0.97265625,0.0809336166140446,4.491725390206428,22.461200878966352,1.8749494901539472,3901,0,42.11361713626335,33.059944757922864,78.50179349580372,0.1358660888001024,0.10665731646068169,0.302734375,,
