Time (s),ESC signal (µs),Servo 1 (µs),Servo 2 (µs),Servo 3 (µs),AccX (g),AccY (g),AccZ (g),Torque (N·m),Thrust (N),Voltage (V),Current (A),Motor Electrical Speed (RPM),Motor Optical Speed (RPM),Electrical Power (W),Mechanical Power (W),Motor Efficiency (%),Propeller Mech. Efficiency (N/W),Overall Efficiency (N/W),Vibration (g),App message,90% settling time (s),Max acceleration (RPM/s),
0,1000,,,,-0.0625,0.048828125,-0.953125,-0.0007016139083798221,0.0044464624873121325,22.52474779382128,0.06514816160870127,0,0,1.4674459094671062,0,0,0,0,0.0625,,
0,1200,,,,-0.0625,0.048828125,-0.953125,-0.0007016139083798221,0.0044464624873121325,22.52482952945455,0.06691271853952309,0,0,1.5071975784551306,0,0,0,0,0.0625,,
0.00875,1200,,,,-0.0625,0.046875,-0.95703125,-0.0007016139083798221,0.0044464624873121325,22.52465599688311,0.06586601529907322,0,0,1.4836093364970644,0,0,0,0,0.0625,,
0.017424999999813735,1200,,,,-0.0625,0.048828125,-0.953125,-0.0007016139083798221,0.0036734852970986597,22.5246197156405,0.06547865586043937,0,0,1.474881822747692,0,0,0,0,0.0625,,
0.025300000000745056,1200,,,,-0.0625,0.0546875,-0.95703125,-0.0007016139083798221,0.0036734852970986597,22.524588961408135,0.06568874608259997,0,0,1.4796120049008732,0,0,0,0,0.0625,,
0.033610000000335274,1200,,,,0,0.138671875,-0.98828125,-0.0007016139083798221,0.0036734852970986597,22.523531591485302,0.1059750862819917,0,0,2.386933203782821,0,0,0,0,0.0625,,
0.0414300000006333,1200,,,,-0.25,0.05859375,-0.8828125,-0.0006652031323063564,0.0036734852970986597,22.521990962261686,0.13879251325436678,0,0,3.125883729144434,0,0,0,0,0.064453125,,
0.04952500000037253,1200,,,,-0.0625,0.0859375,-0.99609375,-0.0006652031323063564,0.0036734852970986597,22.52089736681426,0.16417164808438103,0,0,3.697292837049094,0,0,0,0,0.06640625,,
0.058230000000447035,1200,,,,0.0625,-0.046875,-0.962890625,-0.0006652031323063564,0.0036734852970986597,22.519551902760902,0.19224288494819794,0,0,4.329223625527436,0,0,0,0,0.0703125,,
0.06609999999962747,1200,,,,0,0.1015625,-1.02734375,-0.0006652031323063564,0.0036734852970986597,22.51885126255244,0.21090931836327023,0,0,4.749435570108803,0,0,0,0,0.0703125,,
0.07418500000052154,1200,,,,-0.125,0.146484375,-0.998046875,-0.0006652031323063564,0.0036734852970986597,22.518515921443957,0.22375698869123992,0,0,5.038675312378041,0,0,0,0,0.0703125,,
0.08239500000048429,1200,,,,-0.0625,0.099609375,-0.947265625,-0.0006652031323063564,0.0036734852970986597,22.518061436090697,0.2398688890780867,0,0,5.401382380867181,0,0,0,0,0.07421875,,
0.09007000000029802,1200,,,,-0.0625,0.177734375,-1.029296875,-0.0006652031323063564,0.0036734852970986597,22.51719669526392,0.2728876512562471,0,0,6.1446649190455,0,0,0,0,0.076171875,,
0.09831500000040978,1200,,,,-0.0625,0.23046875,-1.12109375,-0.0006652031323063564,0.0036734852970986597,22.516548876519384,0.2853875862777107,2,0,6.425943535173966,0.00012842458261739078,0.0019985326966293366,0,0.0005716647332786141,0.080078125,,
0.1068050000006333,1200,,,,-0.25,0.146484375,-0.833984375,-0.0006652031323063564,0.0036734852970986597,22.516324479838723,0.29016787585606735,3,0,6.533514046400772,0.00020643718121377442,0.0031596653768196604,0,0.0005622526057202455,0.08203125,,
0.11457000000029802,1200,,,,0.125,-0.09765625,-1.1640625,-0.0006652031323063564,0.0036734852970986597,22.51623375444052,0.29188250695347245,3,0,6.572094755396496,0.0002387466307369603,0.003632732631265245,0,0.0005589519679524215,0.083984375,,
0.12159000000078231,1200,,,,-0.09375,0.07421875,-0.919921875,-0.0006652031323063564,0.0036734852970986597,22.516309278072395,0.2912917292519263,4,0,6.558814665980901,0.0002488918828069774,0.003794769260639788,0,0.000560083716978954,0.0859375,,
0.12843500000052155,1200,,,,-0.0625,0.083984375,-0.982421875,-0.0006652031323063564,0.0036734852970986597,22.516641082358856,0.28903337497975345,4,0,6.508060765241948,0.00025338057729156074,0.0038933345343793954,0,0.0005644515977352113,0.0859375,,
0.13662999999988823,1200,,,,0,0.1015625,-0.97265625,-0.0006652031323063564,0.0036734852970986597,22.51670022618791,0.2868589873902585,4,0,6.459117826254269,0.0002553442883075994,0.003953237813215075,0,0.0005687286400268323,0.0859375,,
0.14782500000018625,1200,,,,-0.0625,0.013671875,-0.912109375,-0.0006652031323063564,0.0036734852970986597,22.517125262312174,0.282683930149475,4,0,6.365229464818434,0.00025625755047269544,0.00402589650363854,0,0.0005771174970835784,0.0859375,,
0.16453000000026077,1200,,,,-0.03125,0.060546875,-0.982421875,-0.0006652031323063564,0.0036734852970986597,22.51750795181838,0.2685079828428774,415,0,6.0461306387912055,0.028879323197271756,0.4776496725357816,0.12720122531977118,0.0006075762362013889,0.0859375,,
0.17144500000029803,1200,,,,-0.0625,0.05078125,-0.96875,-0.0006652031323063564,0.003341698807502585,22.51778617306484,0.26333452453055023,566,0,5.929710515364628,0.03945966711817655,0.6654568889312821,0.08468644191788628,0.0005635517617333632,0.0859375,,
0.1814650000007823,1200,,,,-0.03125,0.017578125,-0.931640625,-0.0006652031323063564,0.003341698807502585,22.517987783417507,0.2566436574471816,644,0,5.779098743087222,0.04483912146162911,0.775884328248661,0.0745264112804313,0.0005782387455310088,0.0859375,,
0.1895650000004098,1200,,,,0,0.041015625,-0.986328125,-0.0006652031323063564,0.003341698807502585,22.518472917280114,0.2507416065637479,669,0,5.646318076641062,0.046567817624653354,0.8247466223574156,0.07175983281925294,0.0005918367973861169,0.0859375,,
0.1973500000005588,1200,,,,0,-0.0546875,-1.0234375,0.0002624669864884665,0.003341698807502585,22.51854737426547,0.24540493364332797,678,0,5.526162624125755,0.018646631763923702,0.33742459337909225,0.17921192684074386,0.0006047051154292163,0.0859375,,
0.2055,1200,,,,-0.0625,0.04296875,-0.953125,0.0002624669864884665,0.003341698807502585,22.518817073614045,0.23961306632377885,682,0,5.395802808992926,0.018755424114447746,0.3475928379589592,0.17817239360257364,0.0006193144793825927,0.0859375,,
0.2131699999999255,1200,,,,-0.0625,0.1171875,-0.96484375,0.0002624669864884665,0.003341698807502585,22.51900565179194,0.23288522811823587,684,0,5.244343768213408,0.018797826965762873,0.3584400221758676,0.17777048451339272,0.0006372005641119522,0.0859375,,
0.22140500000026078,1200,,,,-0.03125,0.044921875,-0.984375,0.0002624669864884665,0.003341698807502585,22.51924895661677,0.22715634922114047,743,0,5.115390380187042,0.020410287546134786,0.39899765275369836,0.163726199346732,0.0006532636923363016,0.0859375,,
0.22918500000052153,1200,,,,-0.0625,0.0390625,-0.998046875,0.0002624669864884665,0.003341698807502585,22.51948111845674,0.22275025423764747,766,0,5.01622014443614,0.021050916927661235,0.4196569592546762,0.158743622379296,0.0006661786586876793,0.0859375,,
0.23739500000048427,1200,,,,-0.0625,0.04296875,-0.9453125,0.0002624669864884665,0.003341698807502585,22.51970584767871,0.21675850722072873,775,0,4.881337822592753,0.021306755427267662,0.43649417847401606,0.15683752596258707,0.0006845866704893661,0.083984375,,
0.2446699999999255,1200,,,,-0.03125,0.03125,-0.96875,0.0002624669864884665,0.003341698807502585,22.519911798216,0.21126987703984357,779,0,4.757778996557217,0.021404643489458537,0.4498873004598822,0.1561202740493352,0.0007023652863911241,0.083984375,,
0.2516000000005588,1200,,,,0,0.01171875,-0.96484375,0.0002624669864884665,0.003341698807502585,22.52008609191051,0.20689721020356344,780,0,4.659342985960355,0.021441435669290396,0.4601815263203041,0.15585238129780413,0.0007172038670627753,0.083984375,,
0.2584400000004098,1200,,,,-0.03125,0.044921875,-0.974609375,0.0002624669864884665,0.003341698807502585,22.520082397438504,0.20378740796707,781,0,4.5893092189788325,0.021457738039776113,0.46755921242000503,0.1557339735114714,0.0007281485400206149,0.083984375,,
0.26715500000026077,1200,,,,0,0.01171875,-0.94921875,0.0002624669864884665,0.003341698807502585,22.519970741447707,0.19868904750212507,783,0,4.47447153639397,0.02150747003790042,0.4806706191550286,0.1553738678521393,0.0007468365326099938,0.083984375,,
0.27528500000108036,1200,,,,-0.09375,0.07421875,-0.908203125,0.0002624669864884665,0.003341698807502585,22.51728443965314,0.27852750186173925,786,0,6.2716829836868015,0.02160099203400619,0.3444209806234191,0.1547011730869484,0.0005328232973820005,0.0859375,,
0.28359499999973925,1200,,,,0.0625,-0.033203125,-1.0859375,0.0002624669864884665,0.003341698807502585,22.51546367440755,0.33099421632873033,787,0,7.452488254188522,0.021641361630242852,0.29039108673643005,0.15441259494655402,0.00044840041252322,0.08984375,,
0.2927500000009313,1200,,,,-0.125,0.1015625,-1.025390625,0.0002624669864884665,0.003341698807502585,22.51394602819118,0.38128822015402497,788,0,8.584302409732794,0.021658377090780306,0.2523021214423231,0.1542912838527086,0.00038928018236098036,0.08984375,,
0.3028400000007823,1200,,,,-0.125,-0.015625,-0.95703125,0.0002624669864884665,0.003341698807502585,22.51281132589628,0.41012350967833144,788,0,9.233033193702672,0.02166407455178757,0.2346365933847547,0.15425070660250526,0.00036192860324403125,0.091796875,,
0.3108149999994785,1200,,,,0.03125,-0.048828125,-0.986328125,0.0002624669864884665,0.003341698807502585,22.511895177082113,0.4363473165163604,979,0,9.823005050217375,0.026912425269959205,0.27397344430117804,0.12416936689956114,0.0003401910912616945,0.091796875,,
0.318570000000298,1200,,,,-0.0625,0.0859375,-0.970703125,0.0002624669864884665,0.08832190922340734,22.511458885061636,0.44974285670237446,1079,0,10.124367827505669,0.029643122472400585,0.292789860833254,0,0.008723696207822106,0.091796875,,
0.326605000000447,1200,,,,-0.125,0.20703125,-1.0625,0.0002624669864884665,0.08832190922340734,22.51090521465676,0.46063733099160653,1123,0,10.369363296284527,0.030876414397272477,0.2977657693634467,0,0.008517582680804924,0.09375,,
0.3356000000005588,1200,,,,0,-0.025390625,-0.9375,0.0002624669864884665,0.08832190922340734,22.51074456816498,0.46866862572117707,1143,0,10.550079720722334,0.03140386655185262,0.2976647322405493,0,0.008371681689753165,0.09375,,
0.3441350000007078,1200,,,,-0.0625,0.091796875,-0.939453125,0.0068297158944709835,0.08832190922340734,22.510813108401543,0.4728309317103131,1285,0,10.643808735602232,0.91928153570365,8.63677240487013,0.09607710564511956,0.00829796094775561,0.09375,,
0.3526150000002235,1200,,,,-0.0625,0.083984375,-0.9375,0.0068297158944709835,0.08832190922340734,22.510740060868983,0.4709306299530547,1334,0,10.600996997574494,0.9542916235812339,9.001904479357702,0.09255232576804542,0.008331471959063414,0.09375,,
0.3603199999993667,1200,,,,-0.0625,0.04296875,-0.953125,0.0068297158944709835,0.08832190922340734,22.51099633204104,0.46787543818506666,1353,0,10.532342272836129,0.9679460177152815,9.190225617825796,0.09124673029998143,0.008385780383457307,0.09375,,
0.36927000000048427,1200,,,,-0.09375,0.0859375,-0.98046875,0.0068297158944709835,0.08832190922340734,22.511142471510727,0.46560803504348597,1415,0,10.481368812744073,1.0122398989106258,9.657516274781448,0.08725392994137014,0.008426562484474223,0.09375,,
0.37679000000003726,1200,,,,-0.03125,0.09375,-1.044921875,0.0068297158944709835,0.08832190922340734,22.511116381110885,0.46030839964101544,1470,0,10.362055955521798,1.0516751293373916,10.149290197347066,0.08398212219685616,0.008523589295649557,0.09375,,
0.385214999999851,1200,,,,0,0.16796875,-0.9921875,0.0068297158944709835,0.08832190922340734,22.51129095048706,0.454338798927316,1489,0,10.227752892747647,1.0650180595050251,10.413021028893004,0.0829299638960635,0.008635514579750469,0.095703125,,
0.3937900000000373,1200,,,,-0.0625,0.115234375,-0.966796875,0.0068297158944709835,0.08832190922340734,22.51162546508046,0.44847157528205905,1508,0,10.09582413448435,1.078277391917374,10.680429626683942,0.0819101929479898,0.008748360514891083,0.09375,,
0.4013500000005588,1200,,,,-0.0625,0.03125,-0.982421875,0.0068297158944709835,0.08832190922340734,22.51164407480779,0.44131722630664244,1537,0,9.934776322696536,1.0993180426619371,11.065352726165413,0.0803424539540357,0.008890175918871082,0.095703125,,
0.4088250000001863,1200,,,,0,0.02734375,-0.98828125,0.0068297158944709835,0.08832190922340734,22.511827579567974,0.4362682485243563,1548,0,9.82119558922042,1.106825914655671,11.269767561400617,0.07979747135834268,0.00899298954196045,0.09375,,
0.41804999999981374,1200,,,,-0.09375,0.107421875,-0.970703125,0.0068297158944709835,0.08832190922340734,22.51217297474549,0.4281450466646799,1553,0,9.638475348795753,1.1107085503480156,11.523695503218665,0.079518528236533,0.00916347306261902,0.09375,,
0.4275450000008568,1200,,,,-0.03125,0.0078125,-0.953125,0.0068297158944709835,0.08832190922340734,22.512453128363656,0.42211758949661504,1573,0,9.502902448200397,1.1251792371318927,11.840374488375103,0.07849585764534892,0.00929420350307113,0.09375,,
0.4350449999999255,1200,,,,-0.03125,0.033203125,-1.001953125,0.0068297158944709835,0.08832190922340734,22.51279763640731,0.4143708190609464,1581,0,9.328646395951436,1.130477356392754,12.118342880735332,0.07812797728672265,0.00946781617338807,0.09375,,
0.4428500000005588,1200,,,,0,0.0078125,-0.91796875,0.0068297158944709835,0.08832190922340734,22.513081991684906,0.4075561379497632,1583,0,9.175344749877464,1.1322354776854744,12.339977500034484,0.07800666112667283,0.009626004431559575,0.09375,,
0.4540450000008568,1200,,,,-0.0625,0.0703125,-0.9609375,0.0068297158944709835,0.08832190922340734,22.513424803688906,0.40033665592372786,1591,0,9.012949199299126,1.1375492979588702,12.621277151404886,0.07764226955428244,0.009799446027086841,0.09375,,
0.46504000000003726,1200,,,,0,-0.017578125,-0.99609375,0.0068297158944709835,0.08832190922340734,22.513789139943412,0.39046832519465235,1598,0,8.790921539259257,1.1429103262588958,13.001029768662912,0.07727807439846367,0.010046945457193734,0.091796875,,
0.47392500000074506,1200,,,,-0.0625,0.119140625,-0.9453125,0.0068297158944709835,0.2643169533453817,22.51385440434979,0.38440570134237406,1601,0,8.654453992224179,1.145315463667628,13.233826936935209,0.23078091733692582,0.03054114720384027,0.09375,,
0.4809750000005588,1200,,,,-0.0625,-0.005859375,-0.958984375,0.0068297158944709835,0.2643169533453817,22.51376589096053,0.3782378368402135,1606,0,8.515558109723893,1.1484646332284576,13.486663098652677,0.23014810007893613,0.031039298885596107,0.09375,,
0.48971500000078233,1200,,,,0,0.01171875,-0.95703125,0.0068297158944709835,0.2643169533453817,22.513776185191816,0.3738309816095968,1607,0,8.416347051049021,1.1496749974661609,13.660023647941946,0.22990580288161963,0.031405187041620035,0.09375,,
0.49691500000096855,1200,,,,-0.0625,0.099609375,-1.01953125,0.017623993485694205,0.2643169533453817,22.513824300979255,0.36574876853264615,1608,0,8.234403513043526,2.9682203291405815,36.04657367639122,0.08904896673284089,0.032099101401418605,0.09375,,
0.504890000000596,1200,,,,-0.03125,0.060546875,-0.98046875,0.017623993485694205,0.2643169533453817,22.51403103589217,0.3607638119153684,1612,0,8.12224765808937,2.975279256194731,36.63123043572176,0.08883769575412326,0.0325423410454783,0.09375,,
0.5126150000002235,1200,,,,-0.0625,0.015625,-0.9609375,0.017623993485694205,0.2643169533453817,22.51411530388296,0.3552752196002621,1613,0,7.99870725869264,2.9778262364370605,37.22884386349921,0.08876171151666469,0.03304495899110869,0.09375,,
0.5206800000006333,1200,,,,-0.0625,0.046875,-0.96484375,0.017623993485694205,0.2643169533453817,22.514207095822464,0.3499304859046735,1614,0,7.878407428799603,2.9790279148093606,37.81256480744436,0.08872590687432225,0.033549541037845826,0.09375,,
0.5294350000005216,1200,,,,0,0.0859375,-0.97265625,0.017623993485694205,0.2643169533453817,22.51430328822344,0.3438673564318723,1615,0,7.741933953626804,2.9802404214355573,38.49477971895417,0.08868980886383065,0.034140946555293095,0.091796875,,
0.538375,1200,,,,-0.03125,0.052734375,-0.978515625,0.017623993485694205,0.2643169533453817,22.514633197853037,0.33766593789384336,1615,0,7.602424735088907,2.981440657825483,39.21697039715075,0.0886541050721974,0.03476745414202258,0.091796875,,
0.5466500000003726,1200,,,,-0.03125,0.07421875,-1.009765625,0.017623993485694205,0.2643169533453817,22.514898826812605,0.3335875109311908,1616,0,7.510689058504005,2.9818203292300494,39.70102218322928,0.08864281685732296,0.03519210438436509,0.09375,,
0.555535000000149,1200,,,,-0.0625,0.025390625,-0.939453125,0.017623993485694205,0.2643169533453817,22.51510181889637,0.3276698317838137,1615,0,7.377519625593211,2.9811193575076196,40.40815218120024,0.08866366007108326,0.0358273466909454,0.09375,,
0.5635449999999255,1200,,,,0,0.06640625,-1.0625,0.017623993485694205,0.2643169533453817,22.515080074157986,0.32357338911816685,1615,0,7.285280765862207,2.9800500847497826,40.905082185903865,0.08869547350831684,0.036280956333753604,0.09375,,
0.5715550000006333,1200,,,,-0.0625,0.103515625,-1.015625,0.017623993485694205,0.2643169533453817,22.515316827588773,0.31934910199646704,1614,0,7.190246210056418,2.979642211718763,41.440058165899494,0.08870761472831812,0.03676048714099705,0.09375,,
0.5797000000001863,1200,,,,-0.03125,0.025390625,-0.953125,0.017623993485694205,0.2643169533453817,22.51555141776552,0.31401619492129323,1614,0,7.070247782761458,2.9796585594895384,42.14362284097715,0.08870712803773842,0.03738439747328718,0.09375,,
0.5872400000002235,1200,,,,-0.0625,0.037109375,-0.970703125,0.017623993485694205,0.2643169533453817,22.515508715165574,0.3101732168081698,1615,0,6.9837077662552876,2.9800249027791486,42.67109968687963,0.08869622300769424,0.037847653738110276,0.09375,,
0.5965800000000745,1200,,,,0,-0.10546875,-0.9453125,0.017623993485694205,0.2643169533453817,22.515598939907107,0.30633234211665333,1615,0,6.897256157420981,2.980172389823203,43.208086256398346,0.08869183348184169,0.03832204391321534,0.09375,,
0.6172099999999627,1200,,,,-0.01953125,0.0234375,-1,0.017623993485694205,0.4447139321723426,22.515693082479167,0.3011591860391805,1615,0,6.780807801827433,2.980259099541911,43.951387307257534,0.14921988904947847,0.06558421137559627,0.09375,,
0.62425,1200,,,,-0.0625,-0.05078125,-0.94921875,0.017623993485694205,0.4447139321723426,22.515783918757887,0.30076168955399213,1615,0,6.771885213038228,2.980263607193427,44.00936391324805,0.1492196633542556,0.065670624675698,0.09375,,
0.6323300000000746,1200,,,,-0.03125,0.041015625,-0.95703125,0.017623993485694205,0.4447139321723426,22.51599083582887,0.2970910139143048,1616,0,6.689298546701594,2.981764756393047,44.57514843411072,0.1491445397289825,0.06648139996556518,0.09375,,
0.6404400000004098,1200,,,,-0.0625,0.00390625,-1.01953125,0.017623993485694205,0.4447139321723426,22.516057549537287,0.2959300878908726,1617,0,6.663178889590515,2.9838682900618427,44.78145250945252,0.14903939750072737,0.0667420070121624,0.09375,,
0.6484950000001117,1200,,,,-0.03125,-0.0078125,-0.970703125,0.016106069112737622,0.4447139321723426,22.516054790952396,0.29252994397913823,1617,0,6.586620246628511,2.7276151601896377,41.41145318930175,0.1630413038697966,0.06751777323126804,0.09375,,
0.656695000000298,1200,,,,-0.0625,0.171875,-0.96484375,0.016106069112737622,0.4447139321723426,22.51618486118221,0.28867760613210064,1617,0,6.499918344953925,2.727914052572473,41.96843572181537,0.1630234397425275,0.06841838751983506,0.09375,,
0.6657750000003725,1200,,,,-0.0625,0.03515625,-0.9765625,0.016106069112737622,0.4447139321723426,22.51624860241083,0.28555987814181155,1619,0,6.4297372071151715,2.730695076434331,42.469777355947514,0.16285741165690246,0.0691651801383454,0.09375,,
0.6741550000002607,1200,,,,-0.03125,0.06640625,-0.943359375,0.016106069112737622,0.4447139321723426,22.51643573922364,0.2809635266896157,1620,0,6.326297193772378,2.7316325990369963,43.17901159822245,0.16280151742555754,0.07029608609126363,0.09375,,
0.6808950000004843,1200,,,,-0.03125,0.02734375,-0.962890625,0.016106069112737622,0.4447139321723426,22.516288917423104,0.2794888671211305,1620,0,6.293052081302649,2.73198744222759,43.41275754485848,0.16278037200995868,0.07066744823130205,0.09375,,
0.6887199999997392,1200,,,,-0.125,0.0859375,-1,0.016106069112737622,0.4447139321723426,22.516276381177203,0.27744487753802827,1619,0,6.247025543188108,2.7304885835701147,43.70861884096983,0.16286972772868327,0.0711881085002555,0.09375,,
0.7016899999994785,1200,,,,-0.03125,0.0859375,-0.984375,0.016106069112737622,0.4447139321723426,22.51625583546732,0.2750621996878064,1618,0,6.1933708588370475,2.7296522229090767,44.07377315398862,0.1629196307280482,0.07180482847039588,0.09375,,
0.7101450000004843,1200,,,,-0.03125,0.0390625,-0.978515625,0.016106069112737622,0.4447139321723426,22.51636883296156,0.2733692360696761,1618,0,6.155282546929767,2.729249741896703,44.339958744185395,0.16294365639961073,0.0722491500238546,0.09375,,
0.7183250000001863,1200,,,,-0.0625,0.0625,-0.970703125,0.016106069112737622,0.4447139321723426,22.51657167665865,0.271083681703473,1618,0,6.103875149448769,2.728243341699043,44.696906062133756,0.16300376340161513,0.07285763900536268,0.09375,,
0.7254850000003352,1200,,,,-0.0625,-0.00390625,-0.9453125,0.016106069112737622,0.4447139321723426,22.516546873836184,0.2705375770652691,1617,0,6.091572035124201,2.7279317430662373,44.78206491422731,0.1630223825441018,0.07300478917561964,0.09375,,
0.7341000000005588,1200,,,,-0.03125,0.09765625,-0.986328125,0.016106069112737622,0.4447139321723426,22.51651995981533,0.2693032992092074,1617,0,6.063773111888239,2.727786959640854,44.98497732860308,0.16303103532355567,0.0733394742788884,0.09375,,
0.741214999999851,1200,,,,-0.0625,0.01171875,-0.98046875,0.016106069112737622,0.4447139321723426,22.516495194245625,0.26713378914176134,1618,0,6.014916679431093,2.7282225332213774,45.35761139553175,0.1630050066507009,0.07393517747188559,0.09375,,
0.7491049999995157,1200,,,,0,0.12109375,-1.015625,0.016106069112737622,0.4447139321723426,22.51666731173737,0.2651108679271279,1618,0,5.969413213841084,2.728400869047015,45.70634954070127,0.16299435219270905,0.07449876834480128,0.09375,,
0.7564750000005588,1200,,,,-0.0625,0.009765625,-0.94921875,0.016106069112737622,0.4447139321723426,22.516638975211404,0.2631711595244062,1618,0,5.925729987698822,2.7284657161041213,46.044381397197014,0.16299047832909322,0.07504795748296343,0.09375,,
0.7661299999998883,1200,,,,-0.125,0.13671875,-0.97265625,0.016106069112737622,0.4447139321723426,22.516606228281468,0.262764897878947,1618,0,5.9165737361548425,2.728497425689705,46.116173774975124,0.16298858411417724,0.07516409868346548,0.09375,,
0.7746900000004098,1200,,,,0,0.01171875,-0.970703125,0.016106069112737622,0.5409923692441998,22.516426287372642,0.26121908769866087,1618,0,5.881720333021627,2.728509894265063,46.38965710332135,0.1982739261386914,0.09197859446103158,0.09375,,
0.782820000000298,1200,,,,-0.0625,0.0390625,-0.951171875,0.016106069112737622,0.5409923692441998,22.516617653292645,0.25898030746049705,1618,0,5.831360562820184,2.7285143130103777,46.79035507437056,0.19827360504014413,0.09277292381703851,0.09375,,
0.7902050000000745,1200,,,,-0.03125,0.00390625,-0.951171875,0.016106069112737622,0.5409923692441998,22.516587711670336,0.25706172336992966,1618,0,5.788152841572158,2.7283504730183252,47.136807677615856,0.19828551155515944,0.09346546023433226,0.09375,,
0.798730000000447,1200,,,,0,-0.04296875,-0.9765625,0.015380382968895767,0.5409923692441998,22.51665781027565,0.2563271538154359,1617,0,5.771630809944063,2.605037891019376,45.135213543650465,0.20767159322680884,0.09373301707242133,0.09375,,
0.8058650000002235,1200,,,,-0.03125,0.076171875,-0.98046875,0.015380382968895767,0.5409923692441998,22.51681815682331,0.2551814280305093,1617,0,5.745873811961473,2.6048908677379297,45.33498216259463,0.2076833144699049,0.09415319356961668,0.09375,,
0.81325,1200,,,,-0.125,-0.01171875,-0.984375,0.015380382968895767,0.5409923692441998,22.516870988043063,0.2541675692729569,1617,0,5.723058366663669,2.6048342145848173,45.514723906325266,0.2076878314232479,0.09452854305932551,0.09375,,
0.8215449999999255,1200,,,,-0.03125,0.10546875,-0.98828125,0.015380382968895767,0.5409923692441998,22.5167645291088,0.2522789180800552,1617,0,5.680504994066932,2.603864517733946,45.83860977947528,0.20776517578380263,0.09523666818517816,0.09375,,
0.8307249999996275,1200,,,,-0.0625,0.021484375,-1.00390625,0.015380382968895767,0.5409923692441998,22.516928151558933,0.2506189744225118,1616,0,5.643169440489084,2.6034682287705193,46.13485836684148,0.20779680092339056,0.09586675979683376,0.09375,,
0.8378700000001118,1200,,,,-0.0625,0.109375,-1.005859375,0.015380382968895767,0.5409923692441998,22.517089894632125,0.250348905938174,1616,0,5.637128820032666,2.6033125548869838,46.1815338623377,0.2078092268362627,0.09596948846045084,0.09375,,
0.8496950000002981,1200,,,,-0.0625,-0.056640625,-0.966796875,0.015380382968895767,0.5409923692441998,22.517289167621872,0.2479357237517146,1616,0,5.582840386700972,2.603432437687452,46.63275783218083,0.20779965764148908,0.09690271112405643,0.09375,,
0.8581750000007451,1200,,,,0.0625,0.125,-1.01953125,0.015380382968895767,0.5409923692441998,22.5171554925536,0.24814306027981245,1616,0,5.587475872718637,2.6035440766386087,46.59606834904918,0.207790747273488,0.09682231862255454,0.09375,,
0.8685800000000745,1200,,,,-0.0625,-0.005859375,-0.951171875,0.015380382968895767,0.5409923692441998,22.517272951427298,0.2467312665805265,1617,0,5.555715275245087,2.603591407561598,46.863298037654424,0.20778696982675482,0.09737582695332317,0.09375,,
0.877320000000298,1200,,,,-0.03125,0.052734375,-0.951171875,0.015380382968895767,0.5409923692441998,22.51721074883368,0.2474664783058226,1616,0,5.572254845283886,2.6028926330064515,46.711658121836024,0.20784275247624437,0.09708679596771713,0.09375,,
0.8849850000003353,1200,,,,-0.0625,0.017578125,-0.94921875,0.015380382968895767,0.5409923692441998,22.517143989551165,0.24639968896370126,1616,0,5.548217275376283,2.6025986349238655,46.90873673016628,0.20786623107562863,0.09750742308618572,0.09375,,
0.8942150000007824,1200,,,,0,0.03125,-0.99609375,0.015380382968895767,0.5409923692441998,22.517285281693088,0.2463548587280899,1616,0,5.547242634511599,2.6024992515709293,46.9151869323283,0.20787416900029623,0.097524554970513,0.09375,,
0.9026050000004471,1200,,,,-0.0625,0.11328125,-1.01953125,0.015380382968895767,0.5409923692441998,22.517434658710062,0.24618780073686705,1616,0,5.543517716863937,2.602962441344465,46.95506669755907,0.20783717838232427,0.09759008573174517,0.095703125,,
0.9096450000004843,1200,,,,0,0.01953125,-0.970703125,0.015380382968895767,0.5409923692441998,22.517546740973426,0.24558903534559165,1616,0,5.530062582464935,2.603331838743541,47.07599235853762,0.20780768751528106,0.09782753109514744,0.095703125,,
0.9209900000002235,1200,,,,-0.03125,0.0625,-1.0234375,0.015380382968895767,0.5787314657407916,22.517680736532608,0.24416163183436065,1616,0,5.49795367375695,2.6035118627879332,47.3541978939386,0.22228877617675433,0.10526306696675448,0.095703125,,
0.9304750000005588,1200,,,,-0.03125,0.078125,-0.962890625,0.015380382968895767,0.5787314657407916,22.517702090909744,0.24501398990001014,1616,0,5.517152032673597,2.6024840969896967,47.17078814535658,0.2223765618434374,0.1048967768720957,0.095703125,,
0.9387050000010059,1200,,,,-0.0625,0.0703125,-0.958984375,0.015380382968895767,0.5787314657407916,22.517754853196948,0.24432867422749996,1615,0,5.501733189861463,2.6016999261999905,47.28873313948368,0.22244358771462142,0.10519075458026063,0.095703125,,
0.9482200000006705,1200,,,,-0.0625,-0.0078125,-0.984375,0.014849438984599365,0.5787314657407916,22.51787515010085,0.24334417137908124,1615,0,5.479593669618896,2.5116171594016374,45.835828545592136,0.23042184736413707,0.10561576288941188,0.095703125,,
0.9569900000002235,1200,,,,-0.03125,0.0546875,-0.978515625,0.014849438984599365,0.5787314657407916,22.517882270424682,0.24346516820054578,1616,0,5.482319994489033,2.5132377751744026,45.84259542859178,0.2302732640172223,0.10556324080362824,0.095703125,,
0.9652900000000373,1200,,,,-0.0625,-0.001953125,-0.974609375,0.014849438984599365,0.5787314657407916,22.517786179401345,0.24257121308503757,1617,0,5.462166709526877,2.5137796480666506,46.021657370549015,0.2302236260787195,0.1059527283800022,0.095703125,,
0.9757949999999255,1200,,,,-0.03125,0.068359375,-0.994140625,0.014849438984599365,0.5787314657407916,22.517833141131952,0.24203286695780576,1617,0,5.450055712825659,2.513990743556357,46.127798980846435,0.2302042945958118,0.10618817425643161,0.095703125,,
0.9872800000002607,1200,,,,-0.03125,0.017578125,-0.994140625,0.014849438984599365,0.5787314657407916,22.517877068404353,0.24128995135422657,1617,0,5.43333746243574,2.514081622518102,46.2714057409394,0.230195973176533,0.10651491274781762,0.095703125,,
0.9958500000005588,1200,,,,-0.0625,0.08203125,-0.951171875,0.014849438984599365,0.5787314657407916,22.51777449263058,0.24009602125330406,1617,0,5.40642806315974,2.514102133015078,46.50209165172417,0.23019409519641848,0.10704506912509569,0.095703125,,
1.0029900000002234,1200,,,,0,0,-0.955078125,0.014849438984599365,0.5787314657407916,22.51768776789281,0.23908597343186436,1617,0,5.383663299421437,2.5141091055684015,46.69885477122211,0.23019345678315314,0.1074977080760206,0.095703125,,
1.0103450000006706,1200,,,,-0.03125,0.009765625,-0.94921875,0.014849438984599365,0.5787314657407916,22.517701371505467,0.23936370195286197,1617,0,5.389920359752586,2.514111684806303,46.644690774646406,0.23019322062670391,0.10737291594552562,0.095703125,,
1.0185750000001863,1200,,,,-0.0625,0.0390625,-0.9765625,0.014849438984599365,0.5787314657407916,22.517816663549556,0.23934454963100202,1617,0,5.389516688010741,2.5141128987251498,46.64820695922371,0.23019310947979038,0.10738095811600504,0.095703125,,
1.0290050000008195,1200,,,,-0.03125,0.05859375,-0.98046875,0.014849438984599365,0.5787314657407916,22.517717551692638,0.24003542136475012,1617,0,5.405049820692971,2.5141133898631933,46.51415756128708,0.23019306451101776,0.10707236472181,0.095703125,,
1.0371400000005961,1200,,,,-0.0625,0.001953125,-0.974609375,0.014849438984599365,0.5787314657407916,22.517844145060113,0.2402177298720213,1617,0,5.409185402138327,2.5141135684089315,46.478598559684556,0.23019304816331132,0.10699050276812677,0.095703125,,
1.0462000000001863,1200,,,,0.0625,0.203125,-0.98828125,0.014849438984599365,0.5787314657407916,22.51794813019856,0.24005333163081335,1617,0,5.405508470144008,2.5141136275165157,46.51021529986682,0.23019304275140198,0.10706327978899154,0.095703125,,
1.0538850000007078,1200,,,,-0.03125,0.017578125,-0.9765625,0.014849438984599365,0.5787314657407916,22.518061987457628,0.24107837701511833,1617,0,5.428617837462115,2.5141136528832235,46.31222399804394,0.23019304042881816,0.10660751651130211,0.095703125,,
1.0639550000010058,1200,,,,-0.0625,0.15234375,-1.025390625,0.014849438984599365,0.5787314657407916,22.517944598391697,0.2405882019155958,1617,0,5.417551801762062,2.514361240270713,46.41139267838502,0.230170373481609,0.10682527586585493,0.095703125,,
1.0742900000009685,1200,,,,-0.0625,-0.02734375,-0.9140625,0.014849438984599365,0.602973449617273,22.517841275144008,0.24154151069146204,1617,0,5.438993399108842,2.514444530130723,46.22996105387267,0.23980383833956562,0.11086122107007296,0.09765625,,
1.0923600000003353,1200,,,,-0.03125,-0.05078125,-0.97265625,0.014625509358063827,0.602973449617273,22.517949271867977,0.24350293870030174,1618,0,5.483186821204172,2.477686094401633,45.18697201452465,0.2433615182244837,0.10996770113421976,0.09765625,,
1.1112250000005588,1200,,,,-0.0625,-0.005859375,-0.98828125,0.014625509358063827,0.602973449617273,22.518057654695546,0.24355735428139072,1618,0,5.4844385459334655,2.477609859372341,45.17526887432094,0.2433690063576134,0.10994260297881508,0.09765625,,
1.1293999999994413,1200,,,,-0.0625,-0.00390625,-0.97265625,0.014625509358063827,0.602973449617273,22.517837233340735,0.24784682300903335,1617,0,5.580974419318022,2.476055213950192,44.366001846909704,0.2435218109112014,0.10804089112649155,0.09765625,,
1.146330000001006,1200,,,,-0.0625,-0.044921875,-0.93359375,0.014625509358063827,0.602973449617273,22.518110223763756,0.24492513417878883,1625,0,5.515251168008095,2.488466400695691,45.11972936301346,0.2423072497377107,0.10932837530861622,0.09765625,,
1.1535449999999254,1200,,,,-0.03125,0.126953125,-1.052734375,0.014625509358063827,0.602973449617273,22.51810450582644,0.24324212385256186,1627,0,5.477351565131166,2.4913949248502103,45.48539372039649,0.24202242832036167,0.11008485441318089,0.099609375,,
1.1610650000004097,1200,,,,-0.125,0.05078125,-0.9765625,0.014625509358063827,0.602973449617273,22.518249938340237,0.2413876400953521,1627,0,5.435627211693258,2.49239810020018,45.85299916886262,0.24192501573839445,0.11092987545579676,0.099609375,,
1.1708950000004843,1200,,,,-0.0625,0.0390625,-0.951171875,0.014625509358063827,0.602973449617273,22.51811559641284,0.23968849798516176,1627,0,5.397333304760439,2.492381244836388,46.178012438811436,0.2419266518180107,0.11171691936932102,0.099609375,,
1.1866850000005216,1200,,,,-0.0625,0.10546875,-0.99609375,0.014625509358063827,0.602973449617273,22.517730981780304,0.23761290633312357,1626,0,5.3505035026082375,2.4907508314385725,46.55170920315057,0.24208501388676282,0.11269471168897251,0.099609375,,
1.1932649999996647,1200,,,,-0.03125,0.1015625,-0.98046875,0.014625509358063827,0.602973449617273,22.518149680012808,0.2371379047807072,1624,0,5.339906834656589,2.487314174781526,46.57972979301025,0.24241949639121693,0.1129183463846051,0.1015625,,
1.2148700000001118,1200,,,,-0.0625,0.05078125,-0.994140625,0.014625509358063827,0.6240248337444443,22.51792076457146,0.23578174804124005,1622,0,5.309314720124796,2.4841515623717556,46.78855357652193,0.25120239972341046,0.11753396938009668,0.1015625,,
1.224875,1200,,,,-0.09375,0.056640625,-0.923828125,0.014625509358063827,0.6240248337444443,22.51801797168924,0.23562701741770178,1620,0,5.305853412827342,2.4816668751626514,46.77224721593355,0.25145390785116756,0.11761064341427382,0.1015625,,
1.2444599999999628,1200,,,,-0.0625,-0.029296875,-0.974609375,0.014696997154036221,0.6240248337444443,22.517789903546205,0.24088720744697298,1620,0,5.424247527742889,2.492818806126486,45.95695151035605,0.2503289979242804,0.11504357619242174,0.103515625,,
1.275929999999702,1200,,,,-0.015625,0.029296875,-0.994140625,0.014696997154036221,0.6240248337444443,22.517741599447504,0.23787387008617986,1623,0,5.356382339861144,2.49807845819501,46.6374186847119,0.24980193544254586,0.11650117451485385,0.103515625,,
1.2833700000001118,1200,,,,-0.0625,0.13671875,-0.98828125,0.014696997154036221,0.6240248337444443,22.517842628665086,0.23549329063266197,1626,0,5.302800858572772,2.5022485163691677,47.18729937451654,0.24938563442528153,0.11767834591329498,0.103515625,,
1.291605000000447,1200,,,,-0.0625,-0.08203125,-0.9921875,0.014696997154036221,0.6240248337444443,22.517749714872537,0.23534084971542665,1627,0,5.299346351577409,2.504133818092797,47.253635674283004,0.24919787801904103,0.1177550573871618,0.10546875,,
1.2999000000003724,1200,,,,-0.0625,0.064453125,-0.958984375,0.014696997154036221,0.6240248337444443,22.517794355823384,0.23435653686286076,1624,0,5.277192303020841,2.49981454987197,47.37016213036225,0.24962845094905312,0.11824940193807827,0.10546875,,
1.308,1200,,,,-0.0625,0.10546875,-0.990234375,0.014696997154036221,0.6240248337444443,22.51790096800201,0.2330077777388143,1623,0,5.246846063896843,2.4981063770560583,47.61158125536296,0.2497991436536976,0.11893332225588105,0.10546875,,
1.3166900000004098,1200,,,,0.0625,-0.109375,-0.97265625,0.014696997154036221,0.6240248337444443,22.517871268970907,0.23184228407858767,1623,0,5.22059470758582,2.497394430122838,47.8373551291768,0.24987035536623295,0.11953136925908092,0.10546875,,
1.3246699999999254,1200,,,,-0.0625,0.09375,-0.9921875,0.014696997154036221,0.6240248337444443,22.51766963763759,0.23153614101777728,1621,0,5.213654332611778,2.4952446466157174,47.85980211629653,0.2500856317198415,0.11969048846240625,0.10546875,,
1.3329650000007822,1200,,,,-0.0625,-0.00390625,-0.953125,0.014696997154036221,0.6240248337444443,22.517586495523542,0.23201518785229563,1620,0,5.22442206073921,2.493532596746623,47.72839115517037,0.2502573395505741,0.11944380191522089,0.10546875,,
1.3411850000005214,1200,,,,0.0625,0.14453125,-1.01953125,0.014696997154036221,0.6240248337444443,22.51770291644742,0.23318939666393032,1620,0,5.2508895573439975,2.492877686906289,47.47534031485582,0.2503230852528796,0.11884173661045126,0.10546875,,
1.3487549999998882,1200,,,,-0.09375,0.0234375,-0.9375,0.014696997154036221,0.6240248337444443,22.517911537621703,0.2339445072162341,1619,0,5.267941718207662,2.4919346605827646,47.30376290933241,0.25041781536860586,0.11845704966469511,0.107421875,,
1.3570800000000744,1200,,,,-0.0625,0.10546875,-0.96875,0.014696997154036221,0.6240248337444443,22.517617965197164,0.23387129310781804,1618,0,5.266224431228495,2.4908665854819234,47.29890679765159,0.2505251936741969,0.11849567786059452,0.107421875,,
1.3657450000001117,1200,,,,-0.0625,-0.078125,-0.95703125,0.014696997154036221,0.6373838876094196,22.517674641267018,0.2340301185674833,1618,0,5.269814066159732,2.4904317725030793,47.25843722827834,0.2559330854379515,0.12094997652809028,0.107421875,,
1.3785200000004842,1200,,,,0,0.12890625,-0.99609375,0.014696997154036221,0.6373838876094196,22.517723586905543,0.23288312582194295,1618,0,5.243997855313056,2.4900526509723258,47.48386097163411,0.2559720523823187,0.1215454134794586,0.107421875,,
1.3867099999999628,1200,,,,-0.041015625,-0.017578125,-0.98046875,0.014696997154036221,0.6373838876094196,22.51782527701457,0.23362774852566612,1618,0,5.260788821163248,2.48958968701014,47.32350549778674,0.25601965293119544,0.12115747453030881,0.107421875,,
1.3945650000004097,1200,,,,-0.0625,0.20703125,-0.97265625,0.014703338382616919,0.6373838876094196,22.517833019800584,0.2350067544251908,1618,0,5.291842854671729,2.490573546742268,47.06438976251056,0.2559185166176416,0.1204464881353622,0.107421875,,
1.405894999999553,1200,,,,-0.041015625,-0.01953125,-0.9609375,0.014703338382616919,0.6373838876094196,22.517845028616364,0.233666375976932,1618,0,5.26166324264696,2.491739062198313,47.356490662538214,0.2557988102683167,0.12113733969959924,0.107421875,,
1.4143050000006332,1200,,,,0,0.16796875,-0.95703125,0.014703338382616919,0.6373838876094196,22.51788581755809,0.23296112892518775,1619,0,5.245792101066806,2.4923629823513047,47.51166142944261,0.2557347754411395,0.12150384066493954,0.107421875,,
1.4220999999996276,1200,,,,-0.0625,0.033203125,-1.017578125,0.014703338382616919,0.6373838876094196,22.517794719588938,0.23230861943031855,1619,0,5.231077803923023,2.49260347827553,47.64990259571772,0.2557101011711594,0.12184561413546868,0.107421875,,
1.4311650000000373,1200,,,,-0.03125,0.0625,-0.990234375,0.014703338382616919,0.6373838876094196,22.517641725783072,0.234017394938023,1618,0,5.269519856815483,2.4911063488961096,47.27387725229209,0.2558637803206857,0.12095672944187524,0.107421875,,
1.439875,1200,,,,-0.09375,0.017578125,-0.98046875,0.014703338382616919,0.6373838876094196,22.51786724385678,0.2333926991409266,1617,0,5.255505814940792,2.4904482297988286,47.38741269620089,0.2559313941895936,0.12127926598376342,0.107421875,,
1.4493499999996275,1200,,,,0,0.16796875,-0.9921875,0.014703338382616919,0.6373838876094196,22.518063526334366,0.23358650050767257,1617,0,5.259915657325906,2.4902406748371715,47.3437377530724,0.25595272539313735,0.1211775870819685,0.107421875,,
1.4582400000002236,1200,,,,-0.0625,0.046875,-1.0078125,0.014703338382616919,0.6373838876094196,22.51816586268952,0.2337570675116846,1617,0,5.263780417804026,2.489539835274752,47.295662768420584,0.256024779591075,0.12108861635898692,0.107421875,,
1.465925000000745,1200,,,,-0.03125,0.07421875,-0.962890625,0.014703338382616919,0.6373838876094196,22.51836027201875,0.2343521957496224,1617,0,5.277227174428659,2.48897711228876,47.16448676587871,0.25608266322035717,0.1207800738042751,0.107421875,,
1.4742750000003726,1200,,,,0,-0.046875,-1.01953125,0.014703338382616919,0.6373838876094196,22.51818510728729,0.23436592736399708,1616,0,5.277495335223534,2.488768813639854,47.15814331524065,0.2561040961764697,0.12077393671110132,0.107421875,,
1.4833950000004843,1200,,,,-0.0625,0.005859375,-0.94140625,0.014703338382616919,0.6373838876094196,22.51821347642145,0.23476523905397004,1616,0,5.286493769860412,2.4888404862041,47.07922858802152,0.2560967210002025,0.12056836068611304,0.10546875,,
1.490605000000447,1200,,,,-0.03125,0.080078125,-1.025390625,0.014703338382616919,0.6373838876094196,22.518294111172143,0.2352492771020396,1616,0,5.297412411224362,2.488933950020885,46.983956634133975,0.256087104121052,0.12031985394584459,0.107421875,,
1.49925,1200,,,,0,0.05078125,-0.91015625,0.014703338382616919,0.6373838876094196,22.518446803517563,0.2364179646507801,1617,0,5.323765360384487,2.4889758135897053,46.752169660045816,0.25608279683929824,0.11972426364849918,0.10546875,,
1.507800000000745,1200,,,,-0.03125,0.1171875,-0.982421875,0.014703338382616919,0.6373838876094196,22.518529423283127,0.23528284335316532,1616,0,5.298223630841968,2.4877285607969255,46.95401202613239,0.2562111870457597,0.12030143157776253,0.10546875,,
1.5178150000004098,1200,,,,-0.03125,-0.041015625,-0.9375,0.014703338382616919,0.6562531464177834,22.518610584533448,0.23440932844952364,1615,0,5.278572384736821,2.4866187300505107,47.10778878851139,0.26391385960663655,0.12432398356710285,0.107421875,,
1.5297800000002608,1200,,,,-0.03125,0.068359375,-1.009765625,0.014703338382616919,0.6562531464177834,22.518687450772077,0.23526301263632812,1615,0,5.297814250284515,2.486221524975806,46.92919395658852,0.2639560231561303,0.1238724340670381,0.10546875,,
1.5487750000003726,1200,,,,-0.09375,0.111328125,-1.029296875,0.014751367123642787,0.6562531464177834,22.51896709660317,0.23472640759585292,1616,0,5.285796249354877,2.4960161593401002,47.221195097043996,0.26292023149052224,0.12415407546173919,0.107421875,,
1.5570600000005215,1200,,,,-0.0625,-0.029296875,-0.953125,0.014751367123642787,0.6562531464177834,22.518948478269103,0.23458646672053557,1616,0,5.2826405577789295,2.496262409095963,47.254065117493234,0.26289429509754525,0.12422824139556886,0.107421875,,
1.5663100000005215,1200,,,,-0.0625,0.0859375,-0.984375,0.014751367123642787,0.6562531464177834,22.51893392157211,0.233353116472678,1616,0,5.254863410241156,2.495631938122253,47.49185170557504,0.2629607100282412,0.12488491045053951,0.107421875,,
1.574975000000559,1200,,,,-0.03125,0.005859375,-0.9453125,0.014751367123642787,0.6562531464177834,22.518918898634077,0.23342568974421424,1615,0,5.2564941762076804,2.4953841456197536,47.47240388688224,0.2629868221170398,0.12484616636467767,0.107421875,,
1.5831200000001118,1200,,,,-0.03125,0.05078125,-0.962890625,0.014751367123642787,0.6562531464177834,22.51877308459538,0.23413706704041856,1616,0,5.272479483375882,2.4959165687888283,47.33857337251759,0.2629307223743611,0.12446765293007744,0.107421875,,
1.5914500000001863,1200,,,,0,0.01953125,-0.9296875,0.014751367123642787,0.6562531464177834,22.51864043423328,0.233434348410288,1617,0,5.256624156850811,2.497318960261856,47.50803720686727,0.26278307130979056,0.12484307929120386,0.107421875,,
1.5989749999996274,1200,,,,-0.03125,0.119140625,-0.9921875,0.014751367123642787,0.6562531464177834,22.51857429663658,0.23272643351399513,1617,0,5.240667483876153,2.497900436019647,47.66378412110448,0.2627218991416284,0.1252231988457316,0.107421875,,
1.6072450000001117,1200,,,,-0.0625,-0.017578125,-0.95703125,0.014751367123642787,0.6562531464177834,22.51854673817211,0.2320876392660367,1617,0,5.226276352164276,2.4981180007983927,47.79919454056206,0.26269901830419795,0.12556801481537033,0.107421875,,
1.6157099999999627,1200,,,,-0.125,0.140625,-1.015625,0.014751367123642787,0.6562531464177834,22.51855301330938,0.23097734745745005,1617,0,5.201275643594169,2.498208845797834,48.030695102164,0.2626894655031136,0.1261715762413048,0.109375,,
1.6227649999996647,1200,,,,-0.03125,0.009765625,-0.931640625,0.014751367123642787,0.6562531464177834,22.518437387203633,0.23104503167737384,1617,0,5.202773079451423,2.498240456618257,48.017478726588436,0.26268614163190696,0.1261352621757969,0.109375,,
1.6300650000004098,1200,,,,-0.0625,-0.01953125,-0.94921875,0.014751367123642787,0.6562531464177834,22.51850566709716,0.22996975566508002,1617,0,5.178575246205053,2.4982535163021917,48.24210130253401,0.26268476843340594,0.12672465209397057,0.109375,,
1.6378100000005216,1200,,,,-0.03125,0.076171875,-0.984375,0.014751367123642787,0.6562531464177834,22.5185135612247,0.22987996676545497,1617,0,5.176555149061781,2.4983733828562382,48.263242850007174,0.26267216538607574,0.12677410507965423,0.109375,,
1.6456850000005216,1200,,,,0,-0.015625,-0.97265625,0.014751367123642787,0.6562531464177834,22.518585994489104,0.2293715921889876,1617,0,5.165123923400603,2.498534556802654,48.373177369143825,0.2626552210899108,0.1270546759671394,0.107421875,,
1.6540949999997392,1200,,,,-0.03125,0.08984375,-0.951171875,0.014751367123642787,0.6562531464177834,22.51845666077716,0.22865813143692928,1617,0,5.14902822289678,2.498599440965471,48.52565052672773,0.2626484004031491,0.12745184489367267,0.107421875,,
1.6623300000000745,1200,,,,-0.0625,-0.015625,-0.974609375,0.014751367123642787,0.6562531464177834,22.518332406060555,0.22967393126411625,1617,0,5.171873929212073,2.498624667587398,48.311786052527765,0.26264574865157436,0.12688885216460843,0.109375,,
1.6712949999999256,1200,,,,-0.03125,0.08984375,-0.978515625,0.014751367123642787,0.6641261882816353,22.518208122820987,0.22866574199751744,1616,0,5.149142768859385,2.4957793205392096,48.469802306376195,0.26609972396844433,0.12897801014531773,0.107421875,,
1.6819700000006705,1200,,,,-0.1875,0.04296875,-0.98828125,0.014751367123642787,0.6641261882816353,22.518492700106037,0.2288526082035231,1615,0,5.153415787231262,2.4947749709254112,48.41012396296012,0.2662068507266146,0.12887106643464635,0.109375,,
1.6903250000001864,1200,,,,-0.03125,0.087890625,-1.021484375,0.014751367123642787,0.6641261882816353,22.518326422743215,0.22855092535834967,1615,0,5.146584341439338,2.494515789386091,48.46934634492852,0.26623450976234514,0.12904212662643358,0.109375,,
1.700820000000298,1200,,,,-0.0625,0.021484375,-0.94921875,0.014613731909619744,0.6641261882816353,22.518264484067615,0.22893086266157067,1615,0,5.155125713979007,2.4717357252592125,47.94714741013351,0.26868818599609307,0.12882832061316044,0.109375,,
1.7083050000006332,1200,,,,0,0.07421875,-0.978515625,0.014613731909619744,0.6641261882816353,22.51822007293292,0.22909995011347725,1615,0,5.158923095353234,2.471874752706309,47.914549354937776,0.2686730739712936,0.12873349263140393,0.109375,,
1.7170100000007078,1200,,,,-0.0625,-0.017578125,-0.94140625,0.014613731909619744,0.6641261882816353,22.518171658032273,0.2297584582419085,1615,0,5.1737404025761355,2.4719348523143583,47.77848635551022,0.2686665417819748,0.128364807007122,0.107421875,,
1.7253850000007078,1200,,,,-0.03125,0.052734375,-0.986328125,0.014613731909619744,0.6641261882816353,22.518163280213273,0.2292507743975563,1616,0,5.162306369999509,2.4724078917581376,47.893474632315794,0.26861513850345015,0.12864912321770983,0.107421875,,
1.7345300000002608,1200,,,,-0.0625,0.04296875,-0.9609375,0.014613731909619744,0.6641261882816353,22.518188746605855,0.23094886172793216,1616,0,5.200550059203354,2.472596107576479,47.5448958173329,0.26859469132327485,0.12770306616053792,0.107421875,,
1.7434800000004471,1200,,,,-0.03125,0.01953125,-0.939453125,0.014613731909619744,0.6641261882816353,22.518138298147743,0.23052660215904544,1616,0,5.19102990881947,2.4726745094954503,47.633601673040246,0.268586174901423,0.127937268701399,0.107421875,,
1.7617500000009314,1200,,,,-0.03125,0.080078125,-0.96484375,0.014613731909619744,0.6641261882816353,22.51852518729426,0.22957952378645854,1617,0,5.169792288872388,2.4749837297456097,47.873949115380064,0.2683355774423201,0.1284628378031976,0.107421875,,
1.7697649999996647,1200,,,,0,-0.00390625,-1.01171875,0.014613731909619744,0.6641261882816353,22.518387554380507,0.23198519926777036,1617,0,5.223932623991842,2.4749647223673343,47.377424260807224,0.26833763822152196,0.12713146131164046,0.107421875,,
1.7771550000002607,1200,,,,-0.0625,0,-0.92578125,0.014613731909619744,0.6641261882816353,22.518370472599457,0.23229482269594415,1617,0,5.230900876334075,2.4745310593163343,47.306020852196646,0.26838466455342075,0.12696210537773922,0.107421875,,
1.785125,1200,,,,-0.03125,0.08984375,-1.009765625,0.014613731909619744,0.6641261882816353,22.518255740762125,0.23198816464249689,1617,0,5.223968820249775,2.4743360684816342,47.365061959985596,0.26840581469160474,0.1271305804328827,0.107421875,,
1.7934700000006705,1200,,,,-0.0625,0.03125,-0.98828125,0.014613731909619744,0.6641261882816353,22.518343760802676,0.23113575107043968,1617,0,5.204794298015476,2.4742566121666925,47.53802879606781,0.2684144340631119,0.12759893095772457,0.107421875,,
1.8017999999998138,1200,,,,-0.03125,0.099609375,-1,0.014613731909619744,0.6641261882816353,22.518501786599057,0.22982913823736004,1617,0,5.175407860010513,2.4740684647563134,47.80431864844923,0.2684348463845156,0.12832344932912904,0.10546875,,
1.8085550000006334,1200,,,,-0.03125,-0.013671875,-0.98828125,0.014613731909619744,0.6641261882816353,22.518737513513685,0.22994241618521377,1617,0,5.17801291329795,2.473936361664586,47.777717110575935,0.26844918025085274,0.1282588899259125,0.10546875,,
1.8174550000000744,1200,,,,0,0.0625,-0.9921875,0.014613731909619744,0.6655704085921346,22.518500362700852,0.23088374550177204,1617,0,5.199155706823385,2.47387341966876,47.58221448190218,0.26903979940948286,0.1280150943966995,0.10546875,,
1.8254599999999628,1200,,,,-0.0625,0.05078125,-0.9609375,0.014613731909619744,0.6655704085921346,22.518640501460535,0.23192767100108355,1617,0,5.222695845614414,2.47396258940348,47.36945559410488,0.269030102331748,0.12743809485881227,0.10546875,,
1.8375700000002981,1200,,,,0.0625,-0.03515625,-0.99609375,0.014613731909619744,0.6655704085921346,22.51871466345419,0.22982418856970926,1617,0,5.175345325161173,2.474118785398454,47.80586859334655,0.26901311793117694,0.12860405765704283,0.10546875,,
1.8462350000003354,1200,,,,-0.0625,0.037109375,-0.9765625,0.01458485268464572,0.6655704085921346,22.518610906258253,0.23002319838957958,1617,0,5.1798029039479925,2.4692937246220876,47.67157689996308,0.2695387761915592,0.1284933849673785,0.10546875,,
1.8542400000002235,1200,,,,0,0.0390625,-0.990234375,0.01458485268464572,0.6655704085921346,22.518427620715897,0.23447638626549472,1615,0,5.280039532886566,2.4673374954761464,46.72952693078167,0.2697524800771906,0.1260540578241222,0.10546875,,
1.8623500000005588,1200,,,,-0.0625,0.03125,-1.04296875,0.01458485268464572,0.6655704085921346,22.518168713072907,0.2393385812456548,1615,0,5.389466552037161,2.466492804761358,45.76506377665615,0.269844861216423,0.12349467283372526,0.10546875,,
1.8712999999998137,1200,,,,-0.03125,0.013671875,-0.982421875,0.01458485268464572,0.6655704085921346,22.518265315024777,0.23949143688685873,1615,0,5.392931716494797,2.466163282184264,45.72954770855466,0.26988091721268487,0.12341532279305964,0.10546875,,
1.8788849999997765,1200,,,,-0.03125,0.05078125,-0.96875,0.01458485268464572,0.6655704085921346,22.51847934268197,0.23851755124434268,1621,0,5.371052550562819,2.476149247848693,46.10175053284898,0.2687925249943596,0.1239180593238454,0.10546875,,
1.891714999999851,1200,,,,-0.0625,-0.01171875,-0.90625,0.01458485268464572,0.6655704085921346,22.518492893816887,0.23808128249025415,1628,0,5.361231667907599,2.486933463306397,46.38735308144232,0.2676269463627924,0.12414505655039074,0.10546875,,
1.9016250000009314,1200,,,,-0.0625,0.072265625,-0.99609375,0.01458485268464572,0.6655704085921346,22.51859414920051,0.2374858579169926,1630,0,5.347847650607453,2.4898672808579145,46.55830613602268,0.26731160078653027,0.12445575343129557,0.10546875,,
1.910660000000149,1200,,,,0,0.02734375,-0.9765625,0.01458485268464572,0.6655704085921346,22.51853197092007,0.23755966866882464,1629,0,5.349494993920106,2.4878682006351447,46.50659928577738,0.2675263940518298,0.12441742806537426,0.10546875,,
1.9186650000000371,1200,,,,-0.03125,0.06640625,-0.986328125,0.01458485268464572,0.6655704085921346,22.518393667676484,0.23728164887942546,1628,0,5.343201579582289,2.487042464624449,46.54592246955572,0.26761521689282364,0.12456397137166705,0.10546875,,
1.9260099999997764,1200,,,,-0.03125,0.072265625,-0.96875,0.01458485268464572,0.6655704085921346,22.51846414684802,0.23735622219443145,1628,0,5.344897579516597,2.4867777306777983,46.526199869721495,0.26764370630370976,0.12452444573359439,0.10546875,,
1.935019999999553,1200,,,,-0.0625,0.1171875,-1.05078125,0.01458485268464572,0.6655704085921346,22.51860496337684,0.2369037961804286,1626,0,5.3347430005114145,2.4839160879243956,46.561119958098736,0.26795205032400954,0.12476147558154718,0.10546875,,
1.9454599999999627,1200,,,,-0.03125,0.00390625,-0.91796875,0.01458485268464572,0.6655704085921346,22.51860870033726,0.237419561396596,1626,0,5.346358200895644,2.482669644521397,46.43664998176685,0.2680865777131784,0.12449042574076602,0.10546875,,
1.9550850000008941,1200,,,,-0.03125,0.068359375,-1.029296875,0.01458485268464572,0.6655704085921346,22.518702747781283,0.23664525032338676,1625,0,5.3289440487066395,2.4818392905993596,46.57281570073369,0.2681762719742423,0.12489724089966223,0.10546875,,
1.964105000000447,1200,,,,-0.0625,0.01171875,-0.9453125,0.01458485268464572,0.6661817910908835,22.518766236216496,0.2364411744207132,1624,0,5.3243635353965315,2.4806030912240074,46.58966418676866,0.2685563818926665,0.1251195164759293,0.10546875,,
1.9737599999997766,1200,,,,-0.09375,0.12109375,-1.001953125,0.01458485268464572,0.6661817910908835,22.518715287195672,0.23444654865851638,1624,0,5.279435079306797,2.4800390147276423,46.975461909710184,0.26861746413454857,0.12618429454735428,0.107421875,,
1.980910000000149,1200,,,,0.125,-0.03515625,-0.8828125,0.01458485268464572,0.6661817910908835,22.518597767376534,0.233796880162455,1622,0,5.264777903645858,2.4775008808575887,47.05803219432902,0.26889265559424713,0.1265355924377271,0.107421875,,
1.9950049999998882,1200,,,,-0.03125,0.083984375,-0.99609375,0.01458485268464572,0.6661817910908835,22.51874960885678,0.23396419782324215,1620,0,5.268581188218625,2.474873041965582,46.97418438762578,0.2691781678472653,0.12644424889580722,0.107421875,,
2.02319000000041,1200,,,,-0.0625,0.068359375,-0.99609375,0.014605335222595878,0.6661817910908835,22.51900415542555,0.23312718486076187,1618,0,5.249792044622157,2.474277665629237,47.130965276307776,0.269242939199981,0.1268967961832535,0.107421875,,
2.0341150000002237,1200,,,,-0.0625,-0.015625,-0.91796875,0.014605335222595878,0.6661817910908835,22.51877415732026,0.23332637126012967,1617,0,5.25422385935392,2.473179389158413,47.070308676618225,0.2693625031856567,0.12678976170855422,0.107421875,,
2.0427750000003724,1200,,,,0,0.072265625,-1.001953125,0.014605335222595878,0.6661817910908835,22.518835520322963,0.23284847723646737,1617,0,5.243476560045674,2.4724809845767366,47.15346690813089,0.26943859032546896,0.12704963652685436,0.107421875,,
2.0507050000010056,1200,,,,-0.0625,0.015625,-0.935546875,0.014605335222595878,0.6661817910908835,22.51897258019966,0.23354306860724852,1616,0,5.259149958262317,2.472197524192828,47.00754958144738,0.2694694839597786,0.1266710012792633,0.109375,,
2.0607400000002234,1200,,,,-0.125,0.01171875,-1.05078125,0.014605335222595878,0.6661817910908835,22.518955144589313,0.23372970104463514,1616,0,5.263348653782408,2.4720941230762925,46.96808601687004,0.26948075515097375,0.12656995287822026,0.109375,,
2.0767949999999256,1200,,,,-0.03125,0.064453125,-0.984375,0.014605335222595878,0.6661817910908835,22.518852734840134,0.23084659072007424,1615,0,5.198400380765265,2.4704569801864436,47.52340718747723,0.26965933688940713,0.12815130468900393,0.109375,,
2.084030000000261,1200,,,,0,0.1640625,-0.953125,0.014605335222595878,0.6661817910908835,22.518844547467932,0.23034364321359754,1615,0,5.18707269402442,2.4702965738211504,47.62409782047139,0.26967684696271416,0.12843116539668595,0.109375,,
2.091430000000633,1200,,,,-0.03125,-0.04296875,-0.955078125,0.014605335222595878,0.6661817910908835,22.51880833070291,0.23043505510971635,1615,0,5.189122838690665,2.470647835286365,47.61205144085135,0.2696385059725311,0.12838042416798454,0.109375,,
2.0998900000005962,1200,,,,-0.03125,0.107421875,-0.9765625,0.014605335222595878,0.6661817910908835,22.51867164485142,0.23132713002710892,1615,0,5.209179683626315,2.4708126718322694,47.43189565141357,0.2696205174457302,0.12788612248966005,0.109375,,
2.107225000000559,1200,,,,-0.125,-0.0703125,-0.9453125,0.014605335222595878,0.6661817910908835,22.518736799341585,0.23138328031489652,1616,0,5.21045918917943,2.470878309841853,47.421507781370416,0.26961335507191453,0.1278547181550418,0.109375,,
2.115459999999963,1200,,,,-0.03125,0.0859375,-0.984375,0.014605335222595878,0.6667711573226597,22.518604086327784,0.2308041227875224,1615,0,5.197386662544401,2.470679630441342,47.53696022361767,0.2698735801709561,0.12828969645992033,0.109375,,
2.123825000000186,1200,,,,-0.125,0.0859375,-0.9765625,0.014605335222595878,0.6667711573226597,22.518607235392235,0.23196901794199515,1615,0,5.223619205815443,2.470599462707242,47.29669919194587,0.2698823372170667,0.127645437205749,0.109375,,
2.132805000000633,1200,,,,-0.03125,-0.025390625,-0.9453125,0.014605335222595878,0.6667711573226597,22.518464355725833,0.23146095892339974,1615,0,5.212145353258698,2.4705667233000916,47.400188518446875,0.2698859136384754,0.12792643184937005,0.109375,,
2.1450750000001864,1200,,,,-0.03125,0.021484375,-0.97265625,0.014605335222595878,0.6667711573226597,22.518327992943046,0.2329583153860856,1616,0,5.245831754547346,2.4708748607662474,47.101679512012005,0.2698522567492091,0.12710494512994425,0.109375,,
2.162100000000559,1200,,,,-0.125,0.10546875,-0.98828125,0.014496222077397435,0.6667711573226597,22.518470273293545,0.23355500538754864,1616,0,5.259301445998428,2.4534504480216635,46.64973995526319,0.2717687483194575,0.12677941437070062,0.109375,,
2.169695000000298,1200,,,,-0.03125,0.0390625,-0.962890625,0.014496222077397435,0.6667711573226597,22.51844730006515,0.23350192554696494,1616,0,5.258100804893067,2.4524041757759694,46.64049372149387,0.2718846933587876,0.1268083633357082,0.111328125,,
2.1767200000006706,1200,,,,0,0.02734375,-0.9765625,0.014496222077397435,0.6667711573226597,22.518571132478417,0.2325259943636879,1615,0,5.2361531442289815,2.452020747246584,46.828667529502546,0.2719272086385845,0.12733988845561947,0.109375,,
2.1843300000000747,1200,,,,-0.0625,-0.033203125,-0.93359375,0.014496222077397435,0.6667711573226597,22.518638411193287,0.2316040821773109,1615,0,5.21540858110716,2.45184379277528,47.01153811145487,0.27194683416920745,0.12784638958835193,0.109375,,
2.192390000000596,1200,,,,0,0.24609375,-1,0.014496222077397435,0.6667711573226597,22.518609120632476,0.23164394499514404,1615,0,5.216299452506938,2.452313053811301,47.01250524704303,0.2718947959300656,0.12782455520305902,0.111328125,,
2.2005600000005217,1200,,,,-0.03125,-0.021484375,-0.962890625,0.014496222077397435,0.6667711573226597,22.518544264244127,0.23124451676846994,1616,0,5.207289886714534,2.453087422662256,47.108716357828825,0.2718089665956685,0.1280457151086992,0.111328125,,
2.208735000000335,1200,,,,-0.03125,0.099609375,-1.021484375,0.014496222077397435,0.6667711573226597,22.51861298191853,0.2306879599144946,1616,0,5.194772888902839,2.453375121039255,47.22776478410049,0.2717770925467827,0.12835424600506162,0.111328125,,
2.216695000000298,1200,,,,-0.125,-0.01171875,-0.96484375,0.014496222077397435,0.6667711573226597,22.51861564843937,0.2308824445564505,1616,0,5.199153028938821,2.45349400716346,47.190263366112795,0.27176392335823507,0.12824611116683207,0.111328125,,
2.224375,1200,,,,0,0.01171875,-0.97265625,0.014496222077397435,0.6667711573226597,22.518487718501508,0.23096013284932373,1615,0,5.200872915030973,2.4515290082831065,47.136875834784874,0.2719817530487324,0.1282037012278522,0.111328125,,
2.23268499999959,1200,,,,0,0.140625,-1.0234375,0.014496222077397435,0.6667711573226597,22.518755029305286,0.2326123850413388,1614,0,5.238141315528345,2.4507558434320815,46.78674544665059,0.27206755789630255,0.1272915557558618,0.111328125,,
2.2414699999997394,1200,,,,-0.03125,-0.025390625,-0.9453125,0.014496222077397435,0.6667711573226597,22.518451932791912,0.23066407244445622,1614,0,5.194197827962519,2.450425218166334,47.17620120232387,0.2721042667939926,0.12836845638284208,0.111328125,,
2.248765000000596,1200,,,,-0.0625,0.064453125,-0.99609375,0.014496222077397435,0.6667711573226597,22.518432637765496,0.23018332534854374,1615,0,5.183367706198041,2.4515692319254083,47.29684195458352,0.27197729056135705,0.12863666926916342,0.111328125,,
2.2568650000002237,1200,,,,-0.0625,-0.03125,-0.9609375,0.014496222077397435,0.6667711573226597,22.518509200838395,0.2298707728195128,1616,0,5.176347112740031,2.45277987947473,47.384377941694545,0.27184304751613125,0.1288111370432639,0.111328125,,
2.2644150000009686,1200,,,,0,0.044921875,-1.01171875,0.014496222077397435,0.6682713978958948,22.51858224731114,0.23079540974756577,1616,0,5.197185416702435,2.453258607026718,47.20359983968568,0.2724015299413629,0.1285833281507025,0.111328125,,
2.2728900000005963,1200,,,,-0.0625,0.037109375,-0.95703125,0.014496222077397435,0.6682713978958948,22.518454718445057,0.23168225755675778,1616,0,5.217126425858975,2.4528865941687155,47.01604664994982,0.27244284325438717,0.12809185427893233,0.111328125,,
2.280550000000745,1200,,,,-0.0625,-0.0546875,-1.0078125,0.014496222077397435,0.6682713978958948,22.518332610953486,0.23064168097745347,1615,0,5.193666086199721,2.452176209077903,47.21474519884268,0.2725217687953943,0.12867045874812458,0.109375,,
2.288015000000596,1200,,,,-0.03125,0.046875,-0.958984375,0.014496222077397435,0.6682713978958948,22.51841121673888,0.2304212183679106,1615,0,5.1887197482705965,2.4519069935535427,47.25456591427519,0.2725516912561886,0.12879311859512746,0.109375,,
2.2977600000007077,1200,,,,0,-0.015625,-0.90234375,0.014113539497217414,0.6682713978958948,22.51839338298473,0.23065233654465264,1615,0,5.193920049017073,2.387077533435929,45.95907351110791,0.27995378806736687,0.12866416725501237,0.109375,,
2.3163250000001865,1200,,,,-0.0625,0.046875,-0.96484375,0.014113539497217414,0.6682713978958948,22.518474951455016,0.23333918141879106,1615,0,5.254442511972064,2.387331487070835,45.434534332260434,0.27992400783681637,0.12718216944485772,0.111328125,,
2.3250999999996274,1200,,,,-0.0625,0.087890625,-1.001953125,0.014113539497217414,0.6682713978958948,22.5185011118399,0.23167723255792308,1615,0,5.217024018943582,2.387348413546873,45.76073264907639,0.2799220231549893,0.12809436864184037,0.111328125,,
2.3342450000001116,1200,,,,-0.03125,-0.021484375,-0.970703125,0.014113539497217414,0.6682713978958948,22.51858472420143,0.23226610716847665,1616,0,5.23030401283379,2.38828604678374,45.66247087977131,0.2798121266905375,0.1277691308681355,0.111328125,,
2.3440800000000745,1200,,,,-0.0625,0.08984375,-0.984375,0.014113539497217414,0.6682713978958948,22.51866218387131,0.23180151783026662,1616,0,5.219860073728396,2.3886150966578543,45.76013653468943,0.27977358044455924,0.12802477239941948,0.109375,,
2.354495000000112,1200,,,,-0.03125,0.025390625,-0.96484375,0.014113539497217414,0.6682713978958948,22.518662485481368,0.23210150798969575,1616,0,5.226615520791216,2.3881777154217354,45.69262280574654,0.27982481939284104,0.12785929924203235,0.109375,,
2.362420000000857,1200,,,,0,0.017578125,-0.94140625,0.014113539497217414,0.6682713978958948,22.51856162972334,0.23251895380831678,1615,0,5.235992391411376,2.3869029230203256,45.58644750774608,0.2799742676800116,0.127630322571145,0.109375,,
2.380769999999553,1200,,,,0,0.06640625,-1.00390625,0.014113539497217414,0.6682713978958948,22.518360583904194,0.23291501029802955,1615,0,5.244864187294788,2.3864285203822657,45.500292003045075,0.2800299242940866,0.12741443324971544,0.109375,,
2.3890400000000374,1200,,,,-0.03125,-0.005859375,-0.94140625,0.014113539497217414,0.6682713978958948,22.518436791586804,0.23319694312713118,1615,0,5.251230623799566,2.386552755388149,45.44749462291453,0.28001534698410935,0.12725995976393856,0.109375,,
2.3978050000006332,1200,,,,-0.0625,0.10546875,-0.978515625,0.014113539497217414,0.6682713978958948,22.51837578297971,0.23267686406078816,1615,0,5.239505060926114,2.386608738253813,45.55027069354458,0.2800087786424693,0.1275447566373328,0.109375,,
2.405875,1200,,,,-0.0625,-0.0234375,-0.97265625,0.014113539497217414,0.6682713978958948,22.51839007594063,0.23245379149140843,1615,0,5.234485151434904,2.386845425070456,45.598475418660065,0.2799810121244733,0.12766707299049362,0.109375,,
2.4147900000000373,1200,,,,-0.0625,0.083984375,-0.98046875,0.014113539497217414,0.6680555490647889,22.518259242078,0.23174214990960382,1615,0,5.218429808980961,2.387174385213066,45.74507031032053,0.2798520096407461,0.12801849857500425,0.109375,,
2.42205999999959,1200,,,,-0.0625,0.060546875,-1.0078125,0.014113539497217414,0.6680555490647889,22.5181492883465,0.2313548056211856,1615,0,5.2096820515542435,2.387285915174443,45.82402326188459,0.2798389354280478,0.1282334588663588,0.109375,,
2.4299100000001492,1200,,,,-0.03125,0.06640625,-0.966796875,0.014113539497217414,0.6680555490647889,22.518044495152854,0.2317268045149456,1615,0,5.218034494787132,2.3873301825870112,45.75152166916446,0.27983374647442183,0.12802819715587985,0.109375,,
2.437895000000484,1200,,,,-0.125,0.046875,-1.05078125,0.014113539497217414,0.6680555490647889,22.51789321215623,0.23195472598216957,1614,0,5.223131749721455,2.385482446464538,45.671496733578536,0.28005049882253247,0.1279032544221033,0.109375,,
2.4492099999999626,1200,,,,-0.0625,0.041015625,-0.947265625,0.013755000836944954,0.6680555490647889,22.517796618708363,0.2341397623864834,1613,0,5.272311549771535,2.324064170640916,44.08055458599795,0.2874514213093164,0.12671018067848014,0.109375,,
2.466945000000298,1200,,,,-0.03125,0.064453125,-0.947265625,0.013755000836944954,0.6680555490647889,22.517583023162643,0.23235419529183574,1614,0,5.232054883264058,2.325349520280313,44.4442876109439,0.28729253096724017,0.12768511874784028,0.109375,,
2.4750800000000743,1200,,,,-0.03125,0.021484375,-1.021484375,0.013755000836944954,0.6680555490647889,22.517506605326833,0.2329891037634309,1615,0,5.246333682962234,2.325956657093254,44.33489742840663,0.2872175399431808,0.127337601730202,0.109375,,
2.483785000000149,1200,,,,0,0.056640625,-0.982421875,0.013755000836944954,0.6680555490647889,22.51742392479588,0.23153162262666538,1615,0,5.213495698680487,2.326065669043969,44.616238383637416,0.2872040793841237,0.12813965670555189,0.109375,,
2.4915,1200,,,,-0.0625,0.14453125,-0.9765625,0.013755000836944954,0.6680555490647889,22.517485270758577,0.23114968061964955,1615,0,5.204909528693508,2.325818790651907,44.68509544364192,0.28723456519909646,0.12835103960634614,0.109375,,
2.499660000000149,1200,,,,-0.03125,-0.0078125,-0.955078125,0.013755000836944954,0.6680555490647889,22.51751059088902,0.23121453956514393,1615,0,5.206375843425657,2.325722305603453,44.67065720082916,0.2872464814286799,0.128314891040449,0.109375,,
2.508214999999851,1200,,,,-0.0625,0.08203125,-1.0390625,0.013755000836944954,0.6680555490647889,22.517436453688028,0.23180868904292679,1615,0,5.219737424936832,2.3256841044791607,44.555576557709806,0.28725119966987117,0.12798642818184933,0.107421875,,
2.5171349999997763,1200,,,,-0.03125,-0.009765625,-0.966796875,0.013755000836944954,0.6680555490647889,22.517577004531738,0.23434455407391278,1616,0,5.276871541951983,2.327466647072839,44.106941557494864,0.28703120188853204,0.12660068446874995,0.107421875,,
2.526109999999404,1200,,,,0,0.025390625,-0.99609375,0.013755000836944954,0.6680555490647889,22.517636993263473,0.23507735939297333,1616,0,5.293386644145909,2.328108217000103,43.981450317346784,0.2869521030794761,0.1262056966504815,0.107421875,,
2.5357599999997764,1200,,,,-0.03125,0.04296875,-0.9609375,0.013755000836944954,0.6680555490647889,22.517546813897205,0.2342165721197942,1616,0,5.273982627297997,2.32833813320401,44.14762614409445,0.28692376744501547,0.12667003217017644,0.107421875,,
2.5441500000003727,1200,,,,-0.0625,0.095703125,-1.048828125,0.013755000836944954,0.6680555490647889,22.517534064119097,0.2333315617888162,1616,0,5.254051390813778,2.3277199143416003,44.30333358389685,0.2869999714951743,0.12715055475719594,0.107421875,,
2.5511450000004845,1200,,,,-0.0625,0.01171875,-0.9921875,0.013755000836944954,0.6680555490647889,22.517582712999577,0.23329463257025207,1616,0,5.253231185399496,2.3275471324638723,44.30696175970537,0.28702127649617354,0.12717040721937783,0.107421875,,
2.5590900000007824,1200,,,,-0.03125,0.04296875,-0.951171875,0.013755000836944954,0.6680555490647889,22.51750517610938,0.23133971112604704,1616,0,5.209193142720413,2.327465825244154,44.67996792356742,0.2870313032393114,0.12824549421792183,0.107421875,,
2.566945000000298,1200,,,,-0.0625,0.1015625,-1.021484375,0.013755000836944954,0.6679653836995019,22.517439909721908,0.23138880574655332,1615,0,5.210283529180329,2.326642199156627,44.654809783886165,0.2870941582429947,0.1282013502640584,0.107421875,,
2.575045000000857,1200,,,,0,-0.0390625,-0.98828125,0.013755000836944954,0.6679653836995019,22.517367740209806,0.229702884386255,1615,0,5.172304318712201,2.326254916684233,44.975213625160855,0.28714195461071723,0.1291427074936325,0.107421875,,
2.5832350000003355,1200,,,,-0.0625,0.103515625,-0.99609375,0.013755000836944954,0.6679653836995019,22.517104061033926,0.23047912398699377,1615,0,5.189722418711079,2.326106337766339,44.82140180329821,0.28716029566426465,0.12870926993921922,0.107421875,,
2.590960000000894,1200,,,,-0.0625,-0.01171875,-0.90625,0.013755000836944954,0.6679653836995019,22.517115385182137,0.23014971262340472,1615,0,5.182307635007714,2.3260478033261642,44.88440222292404,0.2871675219848601,0.12889342562128844,0.107421875,,
2.601495000000112,1200,,,,-0.03125,0.091796875,-1.009765625,0.013541208080801097,0.6679653836995019,22.51745118444088,0.23169187895476,1615,0,5.2171105741951935,2.289663424942691,43.88757708659263,0.29173081791103017,0.12803358759605055,0.107421875,,
2.60980999999959,1200,,,,-0.0625,0.046875,-0.96484375,0.013541208080801097,0.6679653836995019,22.517487877506586,0.23217937014301865,1615,0,5.228096152602537,2.2895574425367626,43.79333079780917,0.2917443219766593,0.12776455600706385,0.107421875,,
2.62925,1200,,,,-0.03125,-0.044921875,-0.96875,0.013541208080801097,0.6679653836995019,22.51745074647817,0.23389869039862288,1615,0,5.2668022407167365,2.2902396170365864,43.48444297625493,0.2916574225380851,0.12682560558958852,0.107421875,,
2.6376550000002608,1200,,,,-0.03125,0.091796875,-0.9921875,0.013541208080801097,0.6679653836995019,22.51737742831166,0.23349732486824706,1615,0,5.257747392559422,2.2904288042576466,43.562929772909605,0.29163333191489305,0.12704402357648123,0.107421875,,
2.6457850000010805,1200,,,,-0.0625,-0.0390625,-0.96875,0.013541208080801097,0.6679653836995019,22.51760244482749,0.2337644966612995,1615,0,5.263816001534345,2.290361362980813,43.51142521534182,0.2916419192603616,0.1268975555955598,0.107421875,,
2.6540650000004096,1200,,,,-0.03125,0.0625,-0.96484375,0.013541208080801097,0.6679653836995019,22.517654982364192,0.23327238155232616,1615,0,5.252747004709698,2.2902646108367337,43.60127393882183,0.2916542396624925,0.1271649639894313,0.10546875,,
2.6618850000007077,1200,,,,-0.0625,-0.03515625,-0.943359375,0.013541208080801097,0.6679653836995019,22.517769030611532,0.2326007096767419,1615,0,5.237649056857203,2.290226894911605,43.72623805165426,0.2916590426841892,0.1275315273032645,0.10546875,,
2.669545000000857,1200,,,,-0.125,0.0390625,-0.9609375,0.013541208080801097,0.6679653836995019,22.517877107539427,0.23259443919991304,1615,0,5.237532997800693,2.2902119371176397,43.726921397523014,0.2916609475628591,0.12753435328808221,0.107421875,,0.227625,5412,
2.6873400000007823,1200,,,,-0.0625,0.029296875,-0.97265625,0.013541208080801097,0.6679653836995019,22.517759644096195,0.2325135926155426,1616,0,5.235685192502088,2.2916869333174605,43.7705257107386,0.2914732261149436,0.12757936337656064,0.107421875,,
2.7072949999999256,1500,,,,-0.0625,0,-0.966796875,0.013541208080801097,0.6679653836995019,22.517855901787836,0.23258086343373094,1616,0,5.237222368314149,2.2912374489242824,43.74909613894869,0.2915304059878675,0.12754191758989958,0.109375,,
2.7161500000003724,1500,,,,-0.0625,0.029296875,-0.998046875,0.013541208080801097,0.6676815162349501,22.517900375823825,0.2343592673540856,1616,0,5.277278634430361,2.291016558181158,43.412840535535885,0.2914346096062368,0.1265200423337171,0.107421875,,
2.725089999999851,1500,,,,0.0625,0.015625,-0.8828125,0.013541208080801097,0.6676815162349501,22.517869227160862,0.2344941366407833,1616,0,5.280308303413149,2.2908631642625044,43.385026642889564,0.29145412377779284,0.12644744925279575,0.107421875,,
2.73293499999959,1500,,,,-0.25,0.013671875,-0.9921875,0.013541208080801097,0.6676815162349501,22.503443872891783,0.882999540186728,1615,0,19.870530592381286,2.2906712823202846,11.527982464638205,0.29147853792388617,0.033601594740049416,0.115234375,,
2.7411450000004844,1500,,,,0.25,-0.228515625,-0.994140625,0.013541208080801097,0.6676815162349501,22.48575010609455,1.3222527035013412,1615,0,29.731843868039086,2.2905962140824405,7.7041848606798595,0.2914880903627127,0.02245678132840894,0.123046875,,
2.752125,1500,,,,-0.0625,-0.4609375,-1.28515625,0.013490675311685954,0.6676815162349501,22.47230826362907,1.6876267581205138,1872,0,37.92486874243316,2.644258030432388,6.972359082877445,0.25250240655439027,0.017605374477879163,0.12890625,,
2.7596250000009315,1500,,,,-0.14453125,0.634765625,-0.7890625,0.013490675311685954,0.6676815162349501,22.458568532339864,2.0487848200747116,1989,0,46.01277428966551,2.80992722380906,6.10684156125785,0.23761523450769642,0.01451078589679631,0.140625,,
2.7683800000008194,1500,,,,-0.5625,0.00390625,-1.05859375,0.013490675311685954,0.6676815162349501,22.451571431128965,2.229232894147873,2360,0,50.04978155958333,3.3339267885238644,6.661221457190352,0.2002687997028795,0.013340348257865774,0.146484375,,
2.7771250000009315,1500,,,,0.125,0.005859375,-1.005859375,0.013490675311685954,0.6676815162349501,22.445855307455997,2.376718237770515,2602,0,53.34747367158878,3.6756373913656026,6.889993355623762,0.18165053979573528,0.012515710122380858,0.150390625,,
2.7850250000003727,1500,,,,-0.03125,-0.08984375,-1.060546875,0.013490675311685954,0.6676815162349501,22.441838553555797,2.484270482991242,3707,0,55.75159710265354,5.237105846699249,9.393642727501316,0.12749055218270308,0.01197600698336176,0.15234375,,
2.797410000000149,1500,,,,-0.125,-0.1953125,-0.9375,0.013490675311685954,0.6676815162349501,22.43713714644641,2.5999716080469413,6029,0,58.33591954661603,8.517276468611804,14.600398064876096,0.07839143401009886,0.011445461414239097,0.154296875,,
2.8043950000004845,1500,,,,0.125,-0.060546875,-0.896484375,0.013490675311685954,0.6676815162349501,22.43528756516839,2.6442789100971233,5570,0,59.32515775053902,7.86959917296602,13.265197213730994,0.0848431415069522,0.011254610043222068,0.154296875,,
2.812469999999739,1500,,,,0,-0.11328125,-0.7890625,0.013490675311685954,0.6676815162349501,22.43416163356442,2.6628860056250634,4739,0,59.7396150619494,6.695097700250536,11.207132307946384,0.09972692649577986,0.01117652859903049,0.15625,,
2.82081500000041,1500,,,,0,0.068359375,-1.0390625,0.013490675311685954,0.6676815162349501,22.43314939260756,2.6827200102587803,3938,0,60.1818587686729,5.563647302903147,9.244724933287122,0.12000787970268165,0.011094398376783027,0.158203125,,
2.8280599999995903,1500,,,,-0.125,0.0390625,-0.9375,0.013490675311685954,0.6676815162349501,22.432756937012723,2.6874646834773843,3750,0,60.287242021253995,5.297110118403066,8.786452889212603,0.1260463727033558,0.011075005156141692,0.158203125,,
2.83625,1500,,,,-0.03125,0.205078125,-0.9375,0.013490675311685954,0.6676815162349501,22.432622731695588,2.683633641585046,3678,0,60.20094103176371,5.1956240707383765,8.630469859261867,0.12850843462584513,0.011090881716992804,0.16015625,,
2.8442599999997764,1500,,,,0,0.00390625,-0.9296875,0.013490675311685954,0.6676815162349501,22.432525948755323,2.6765005469899004,3657,0,60.04066797220876,5.166952651530103,8.60575477594911,0.12922152790334315,0.011120487809096366,0.158203125,,
2.851835000000894,1500,,,,0.09375,-0.07421875,-1.001953125,0.013490675311685954,0.6676815162349501,22.432892747045408,2.661995064434776,3691,0,59.716249773629556,5.214106937949482,8.73147084372336,0.1280529003683083,0.011180901660200963,0.158203125,,
2.8604300000006333,1500,,,,-0.15625,-0.052734375,-0.89453125,0.013490675311685954,0.6675654665828084,22.433303534974215,2.645774863118074,3714,0,59.35347058953261,5.246432080018371,8.839301270688651,0.12724180098038565,0.011247286130906356,0.162109375,,
2.8692450000001117,1500,,,,0.03125,0.005859375,-0.990234375,0.013490675311685954,0.6675654665828084,22.433675212370453,2.621319347709107,3740,0,58.80582687440888,5.28414532509436,8.985751252813204,0.12633366902544216,0.011352029247178557,0.1640625,,
2.8772550000008197,1500,,,,-0.125,0.28125,-0.92578125,0.013490675311685954,0.6675654665828084,22.43436679853515,2.6049075555065637,3761,0,58.43945157650982,5.31377280520041,9.092783491035226,0.12562928281944696,0.011423198688112628,0.166015625,,
2.888640000000596,1500,,,,-0.03125,-0.060546875,-1.017578125,0.013490675311685954,0.6675654665828084,22.435276988627592,2.5701768672330454,3793,0,57.662629926136496,5.358414375092743,9.29269855009502,0.12458265073448228,0.011577090178473177,0.166015625,,
2.8973450000006706,1500,,,,-0.03125,0.23828125,-0.953125,0.031747326869234455,0.6675654665828084,22.436006988324795,2.5479223213175732,3807,0,57.16520300678981,12.655418204623986,22.138324608277586,0.05274938020925267,0.01167782901957889,0.166015625,,
2.9073700000001117,1500,,,,-0.125,-0.060546875,-0.962890625,0.031747326869234455,0.6675654665828084,22.436867043270716,2.521872806618338,3820,0,56.58292486213561,12.701325487826427,22.44727630954608,0.052558724459320076,0.011798002104156559,0.166015625,,
2.923899999999441,1500,,,,0.09375,-0.029296875,-1.08203125,0.031747326869234455,0.6675654665828084,22.43765535327553,2.46718874884082,3841,0,55.35793083796939,12.769368715530701,23.0669183660534,0.05227865851902954,0.012059075483452366,0.16796875,,
2.9439750000005587,1500,,,,-0.0625,-0.056640625,-1.029296875,0.031747326869234455,0.6675654665828084,22.43926303338911,2.414483360826949,3860,0,54.17922722333726,12.833843078775734,23.68775587343125,0.05201602220669273,0.012321428355391162,0.17578125,,
2.9525149999996647,1500,,,,-0.3125,-0.1953125,-0.87890625,0.031747326869234455,0.6675654665828084,22.4401544889027,2.3869077941712793,3868,0,53.56257965196947,12.859787227946484,24.0089019451729,0.051911081789290894,0.012463280725469358,0.1796875,,
2.9598150000004098,1500,,,,0.3125,0.23828125,-1.21484375,0.031747326869234455,0.6675654665828084,22.440762352173852,2.36721755872153,3870,0,53.12216667116301,12.867699519099201,24.222843918910296,0.05187916189618493,0.012566608412551658,0.181640625,,
2.9677600000007076,1500,,,,-0.1875,-0.091796875,-0.912109375,0.031747326869234455,0.6675654665828084,22.44159796341523,2.3468941671467283,3874,0,52.6680553617911,12.880892755328974,24.456746441171298,0.05182602473781399,0.01267495946066588,0.18359375,,
2.9756699999999254,1500,,,,0.125,0.234375,-1.0625,0.031747326869234455,0.6675654665828084,22.442358448859743,2.3247315203145775,3879,0,52.172458076262416,12.89594557683891,24.717918327690118,0.05176553069375187,0.01279536159877695,0.18359375,,
2.9838950000004845,1500,,,,-0.125,0.140625,-0.921875,0.031747326869234455,0.6675654665828084,22.442814949475686,2.304288869538198,3882,0,51.7147286891823,12.906056494277207,24.956249063677095,0.05172497632245913,0.012908613919160903,0.18359375,,
2.998459999999963,1500,,,,-0.375,-0.22265625,-0.8359375,0.031747326869234455,0.6675654665828084,22.443815639309495,2.271808725573132,3885,0,50.988056204538026,12.917615376842082,25.3345907618506,0.05167869201149767,0.013092585132190112,0.1875,,
3.01256500000041,1500,,,,-0.3125,-0.0625,-0.81640625,0.031747326869234455,2.6375107559040716,22.445007441050706,2.239378730513578,3885,0,50.26287226970794,12.915893102185729,25.69668727421649,0.2042066108039971,0.052474334171579505,0.189453125,,
3.0331850000005214,1500,,,,-0.25,0.005859375,-0.90234375,0.031747326869234455,2.6375107559040716,22.446354011692716,2.2010593681126642,3894,0,49.405757777409534,12.944767585039248,26.200929137369005,0.20375110936347293,0.05338468378092678,0.19140625,,
3.041334999999963,1500,,,,0,0.076171875,-0.98828125,0.031747326869234455,2.6375107559040716,22.446962597112755,2.185920578915887,3888,0,49.06727747518398,12.926854237396237,26.345163014055668,0.2040334568230829,0.05375294680325408,0.193359375,,
3.0488050000006335,1500,,,,-0.3125,-0.1171875,-0.9375,0.06361560443510177,2.6375107559040716,22.44759269114436,2.1708030240278267,3890,0,48.72930209608112,25.911638562666827,53.17465559341692,0.10178865182629418,0.05412576504181421,0.1953125,,
3.0599900000011546,1500,,,,0.09375,0.216796875,-1.01171875,0.06361560443510177,2.6375107559040716,22.44807162167833,2.1531904969142617,3890,0,48.3349744898485,25.91513518046474,53.615700543935404,0.10177491792102521,0.05456733522137292,0.197265625,,
3.088375,1500,,,,-0.03125,-0.01171875,-0.962890625,0.06361560443510177,2.6375107559040716,22.449614065364944,2.101846090600915,3893,0,47.18563355878662,25.93176206240309,54.95690129940882,0.10170966205678866,0.05589647858851162,0.201171875,,
3.0960999999996273,1500,,,,-0.125,0.091796875,-0.931640625,0.06361560443510177,2.6375107559040716,22.450018136305836,2.0948007616843376,3895,0,47.02831509176066,25.944903227483657,55.16868545441296,0.10165814583228562,0.05608346271300207,0.203125,,
3.1036800000006335,1500,,,,0.125,0.16796875,-1.10546875,0.06361560443510177,2.6375107559040716,22.450412696245603,2.0806235534355326,3892,0,46.71085744015672,25.92819644336482,55.50785805330707,0.10172364906541838,0.05646461872987665,0.203125,,
3.1114550000000745,1500,,,,-0.1875,0.021484375,-0.953125,0.06361560443510177,2.6375107559040716,22.45088912757425,2.071955216892961,3890,0,46.517236851762924,25.911407191062814,55.70280813031743,0.1017895607311433,0.05669964371076169,0.205078125,,
3.120340000000782,1500,,,,-0.09375,0.078125,-0.923828125,0.06361560443510177,2.6375107559040716,22.45134035119243,2.0608180457343717,3896,0,46.26812734666163,25.955241127281738,56.097453291795006,0.10161765567771071,0.057004916930020834,0.205078125,,
3.1280400000009685,1500,,,,-0.0625,0.11328125,-1.03515625,0.06361560443510177,2.6375107559040716,22.451663951065683,2.0492778723662832,3897,0,46.00969813272266,25.96116183139546,56.425412217455005,0.10159448074910368,0.05732510455286473,0.205078125,,
3.135839999999851,1500,,,,-0.0625,0.0703125,-0.9765625,0.06361560443510177,2.6375107559040716,22.45194206956145,2.0418304384091486,3894,0,45.843058719029464,25.941621191806878,56.58789338382106,0.10167100723593461,0.057533481176927664,0.20703125,,
3.144299999999814,1500,,,,-0.125,-0.01953125,-1.03515625,0.06361560443510177,2.6375107559040716,22.452163017111488,2.0371321714543167,3891,0,45.73802360089463,25.92014767047438,56.670895744536246,0.10175523648379743,0.05766560398233915,0.208984375,,
3.1543099999995903,1500,,,,0,0.08984375,-1.00390625,0.06361560443510177,2.6375107559040716,22.452477549267314,2.0258410636157658,3895,0,45.4851509992168,25.94999340870467,57.051571421960325,0.10163820523435449,0.05798619325127636,0.2109375,,
3.1626150000002236,1500,,,,0.09375,0.08984375,-1.07421875,0.06361560443510177,3.7039493733206235,22.45284202660585,2.0187566626930327,3898,0,45.32682443760469,25.970120898713986,57.295257766101706,0.1426234936589779,0.0817164983269311,0.208984375,,
3.1708800000008197,1500,,,,-0.28125,-0.06640625,-0.900390625,0.06361560443510177,3.7039493733206235,22.453166146200278,2.008724214541972,3897,0,45.10221853100656,25.958415043704495,57.5546301028602,0.14268780921656907,0.08212344079647121,0.2109375,,
3.17869000000041,1500,,,,0.4375,0.25,-1.13671875,0.06361560443510177,3.7039493733206235,22.45340076984517,2.0027529491794445,3895,0,44.968614610915424,25.948635025534873,57.703879138932265,0.14274158812884513,0.08236743349486128,0.21484375,,
3.186714999999851,1500,,,,-0.21875,-0.029296875,-0.869140625,0.06361560443510177,3.7039493733206235,22.453761594552667,1.9942457727499665,3895,0,44.7783191422722,25.946738684226464,57.94486970756321,0.14275202052935956,0.08271747230065128,0.21484375,,
3.1948499999996276,1500,,,,0.09375,0.09375,-1.0546875,0.07641249943331653,3.7039493733206235,22.454002300299493,1.9891526081178879,3896,0,44.66443723832579,31.17912961367967,69.80750579551777,0.11879579126209913,0.08292837887012103,0.21484375,,
3.202930000000633,1500,,,,-0.4375,-0.09375,-0.86328125,0.07641249943331653,3.7039493733206235,22.45417934078143,1.9863215830988739,3896,0,44.601221055367,31.1742290049828,69.89546085808678,0.11881446603630824,0.08304591860215263,0.216796875,,
3.214929999999702,1500,,,,0.15625,0.115234375,-1.048828125,0.07641249943331653,3.7039493733206235,22.454352391561674,1.980587666766516,3894,0,44.472813411956274,31.158571001334792,70.06206401360248,0.11887417343888945,0.08328569949039556,0.216796875,,
3.2329100000010804,1500,,,,-0.09375,0.00390625,-0.98828125,0.07641249943331653,3.7039493733206235,22.45501266646181,1.9689743063114833,3895,0,44.21334298816221,31.169427141840707,70.49778423266045,0.11883277021631805,0.0837744699447931,0.220703125,,
3.240045000000857,1500,,,,0.125,0.2109375,-1.0546875,0.07641249943331653,3.7039493733206235,22.45512376208766,1.9635526807440171,3892,0,44.0918184594859,31.146377598391943,70.6398118440296,0.11892071113630417,0.08400536659026721,0.220703125,,
3.248665000000037,1500,,,,-0.15625,0.041015625,-0.939453125,0.07641249943331653,3.7039493733206235,22.455364556934775,1.9590867426352718,3895,0,43.99200700453288,31.16450921253491,70.8412989871632,0.11885152267473638,0.08419596252880605,0.22265625,,
3.2563650000002236,1500,,,,0.1875,0.1796875,-1.06640625,0.07641249943331653,3.7039493733206235,22.455330522774993,1.9534038366565525,3896,0,43.86432879657966,31.171590005769595,71.06364296676577,0.11882452491627968,0.08444103614346062,0.22265625,,
3.2641500000003725,1500,,,,-0.25,-0.009765625,-0.892578125,0.07641249943331653,3.7039493733206235,22.455461530289753,1.9507408712286052,3896,0,43.80478658943786,31.174398000314604,71.16664736321606,0.1188138219472031,0.08455581368392544,0.22265625,,
3.270959999999963,1500,,,,0.375,0.171875,-1.00390625,0.07641249943331653,3.7039493733206235,22.455600061404382,1.9483206261308936,3893,0,43.75070877178032,31.149856683494537,71.19851896796364,0.118907429043911,0.08466032842214687,0.224609375,,
3.279415000000037,1500,,,,-0.21875,0.072265625,-0.91796875,0.07641249943331653,3.7039493733206235,22.455619762359003,1.9449486501444115,3894,0,43.67502734495631,31.155550448468123,71.33493060552378,0.11888569837490198,0.08480703043562865,0.224609375,,
3.2876650000000374,1500,,,,0.03125,0.09375,-1.001953125,0.07641249943331653,3.7039493733206235,22.455638917126073,1.9406849397339225,3897,0,43.57932025856954,31.182139407435308,71.5526061958334,0.11878432473550629,0.08499328010037675,0.224609375,,
3.296035000000149,1500,,,,-0.3125,-0.109375,-0.8984375,0.07641249943331653,3.7039493733206235,22.455783659952907,1.9403592141914219,3900,0,43.572286736478794,31.205719856560005,71.61827435243265,0.11869456594323641,0.08500699987865615,0.224609375,,
3.3046550000002606,1500,,,,0.125,0.15625,-1,0.07641249943331653,3.7039493733206235,22.455795531191686,1.935266694033384,3897,0,43.457953179538976,31.18686172663238,71.76330094928605,0.11876633839555563,0.08523064484925005,0.2265625,,
3.3135600000005216,1500,,,,-0.03125,0.091796875,-1.029296875,0.07641249943331653,4.162013124293809,22.455696491484417,1.9339910845349495,3897,0,43.429116811553605,31.18002378788784,71.79520579058358,0.13348332100729765,0.09583462501329462,0.228515625,,
3.32175,1500,,,,-0.28125,-0.00390625,-0.8984375,0.07641249943331653,4.162013124293809,22.455931301392,1.9285354671935355,3897,0,43.307059963595954,31.182429500967597,72.00310879376167,0.13347302281769485,0.09610472582974716,0.228515625,,
3.329510000000708,1500,,,,0.3125,0.3046875,-1.1171875,0.07641249943331653,4.162013124293809,22.455844782411727,1.927655499150839,3897,0,43.28713268289364,31.18539147032459,72.04309811596401,0.13346034563184175,0.09614896774945245,0.23046875,,
3.3398800000008197,1500,,,,-0.15625,-0.076171875,-0.896484375,0.07641249943331653,4.162013124293809,22.45585484863493,1.9219101975436796,3897,0,43.158136428152154,31.186890782150357,72.26190323131533,0.13345392951694673,0.09643634940592381,0.23046875,,
3.3487350000003353,1500,,,,0.09375,0.15625,-1.08984375,0.07948336694629891,4.162013124293809,22.45599773881009,1.9178868396114697,3898,0,43.068062533608796,32.44612549209118,75.33685887720482,0.12827458012847512,0.09663803940671632,0.232421875,,
3.357464999999851,1500,,,,-0.15625,0.09765625,-0.904296875,0.07948336694629891,4.162013124293809,22.455997933337898,1.9172148768176291,3899,0,43.052973311581354,32.45541959771481,75.38485057194464,0.12823784674122216,0.0966719091425497,0.232421875,,
3.3693300000000743,1500,,,,0.1875,0.1484375,-0.94921875,0.07948336694629891,4.162013124293809,22.455998098752488,1.9143904260525153,3899,0,42.98954776770525,32.45618517813355,75.49785206746323,0.12823482185139395,0.09681453610034045,0.232421875,,
3.387765000000596,1500,,,,-0.25,0.1640625,-0.9140625,0.07948336694629891,4.162013124293809,22.45584716529526,1.9102319885850627,3900,0,42.89587758592421,32.4619107813845,75.67606168299143,0.1282122039063869,0.09702594651332011,0.236328125,,
3.3955849999999628,1500,,,,0.0625,0.095703125,-0.990234375,0.07948336694629891,4.162013124293809,22.456039827462973,1.9088115345773453,3899,0,42.864347843589584,32.44958369642813,75.70296838490452,0.12826090970011245,0.09709731592046707,0.236328125,,
3.405530000000261,1500,,,,-0.25,-0.0859375,-0.953125,0.07948336694629891,4.162013124293809,22.456037637962115,1.9060431982739083,3900,0,42.80217780002057,32.4593355586442,75.83571030030298,0.12822237586392707,0.09723834950033335,0.23828125,,
3.4145950000006704,1500,,,,0.0625,0.138671875,-1.009765625,0.07948336694629891,4.162013124293809,22.455916501277205,1.904665459122968,3899,0,42.77100851293218,32.45494627342689,75.8807131321532,0.128239716967319,0.09730921175345654,0.23828125,,
3.423889999999665,1500,,,,0.0625,0.150390625,-1.01953125,0.07948336694629891,4.162013124293809,22.45613991574617,1.901868852071134,3896,0,42.70863304350894,32.42837739962421,75.9293264352155,0.1283447849704019,0.09745133074275182,0.240234375,,
3.43306500000041,1500,,,,-0.3125,-0.046875,-0.9140625,0.07948336694629891,4.162013124293809,22.45619789599752,1.8989995514835885,3896,0,42.64430973252599,32.425302450864805,76.03664510984717,0.1283569561332744,0.09759832320886008,0.2421875,,
3.4448650000002234,1500,,,,0.125,0.142578125,-1.009765625,0.07948336694629891,4.162013124293809,22.456330179248926,1.898771038998276,3898,0,42.639429386540826,32.44304493303082,76.08695847902574,0.12828676016338997,0.09760949393960587,0.2421875,,
3.4541749999998137,1500,,,,-0.09375,0.13671875,-1.041015625,0.07948336694629891,4.162013124293809,22.45614382295301,1.8960952879159443,3898,0,42.57898848746394,32.44762736919327,76.2057261617346,0.12826864278666325,0.09774805067337813,0.24609375,,
3.462339999999851,1500,,,,-0.25,-0.015625,-0.892578125,0.07948336694629891,4.349728417355992,22.455920815343376,1.8961422692354237,3901,0,42.579620652576175,32.465891468618416,76.24748875411633,0.1339784068939073,0.10215517072937622,0.24609375,,
3.470280000000261,1500,,,,0.15625,0.1640625,-1.029296875,0.07948336694629891,4.349728417355992,22.45574913958633,1.8948467211195852,3898,0,42.55020262742911,32.44499214033525,76.25108727313147,0.1340647086164172,0.10222579796957369,0.24609375,,
3.47744000000041,1500,,,,-0.5,-0.0078125,-0.85546875,0.07948336694629891,4.349728417355992,22.455826654431245,1.8931466388714553,3900,0,42.51217275391655,32.46397734019067,76.3639570438089,0.1339863064767173,0.10231724552246653,0.248046875,,
3.4861500000003725,1500,,,,0.125,0.177734375,-1.0625,0.07948336694629891,4.349728417355992,22.455932082097355,1.8935948735524533,3901,0,42.52243787150162,32.47143882629782,76.36306959733382,0.13395551828252383,0.10229254565555292,0.248046875,,
3.4937250000005586,1500,,,,-0.4375,-0.015625,-0.765625,0.07948336694629891,4.349728417355992,22.455870165571366,1.897163883946884,3897,0,42.60246586072233,32.43869764939054,76.14277012847194,0.1340907228881217,0.10210039089230882,0.25,,
3.5024950000010433,1500,,,,0.125,0.212890625,-1.044921875,0.08052793138189032,4.349728417355992,22.455678706504017,1.9011280393146166,3903,0,42.691120430774966,32.91741702825493,77.10600400294386,0.13214063587134942,0.10188836398447818,0.25,,
3.5107599999997765,1500,,,,-0.25,-0.017578125,-0.9140625,0.08052793138189032,4.349728417355992,22.45569625506701,1.8991308409897734,3904,0,42.64630531389631,32.918542820821465,77.18967112983395,0.13213611674830042,0.10199543396174654,0.25,,
3.5229500000001863,1500,,,,-0.03125,0.146484375,-0.93359375,0.08052793138189032,4.349728417355992,22.45593261068889,1.8969876309459395,3903,0,42.598626403832384,32.91638387568126,77.27099827970027,0.13214478339370644,0.10210959330286455,0.251953125,,
3.5396299999998884,1500,,,,-0.3125,-0.04296875,-0.908203125,0.08052793138189032,4.349728417355992,22.456009635949904,1.8913638964518282,3908,0,42.47248588381001,32.952998000756985,77.5866948096821,0.13199795712839457,0.10241285215222252,0.25390625,,
3.5576150000002236,1500,,,,-0.4375,-0.140625,-0.90234375,0.08052793138189032,4.349728417355992,22.455850599051534,1.8888952581591751,3902,0,42.416749714479316,32.901851222666146,77.56806319234502,0.1322031513643055,0.10254742399253602,0.2578125,,
3.5656450000004845,1500,,,,0.125,0.060546875,-0.986328125,0.08052793138189032,4.349728417355992,22.455759846740946,1.8810913211642224,3901,0,42.24133495785242,32.90023593790913,77.88635461151108,0.13220964206958893,0.10297327065292955,0.259765625,,
3.5735149999996647,1500,,,,-0.0625,0.107421875,-0.9921875,0.08052793138189032,4.349728417355992,22.455706529856023,1.8796402517012696,3901,0,42.20864987390842,32.89478022701737,77.93374184032244,0.13223156948722956,0.10305300999558406,0.259765625,,
3.581625,1500,,,,0.0625,-0.1015625,-0.8828125,0.08052793138189032,4.349728417355992,22.455920987251993,1.880613940103759,3900,0,42.230918046494665,32.88527970329382,77.87015112266408,0.13226977105261842,0.10299867060827575,0.259765625,,
3.5891550000002606,1500,,,,-0.125,0.033203125,-1.001953125,0.08052793138189032,4.349728417355992,22.455860849393595,1.8804614407193896,3900,0,42.227380445444815,32.88882515976226,77.88507080673074,0.13225551220594084,0.10300729932740142,0.26171875,,
3.596515000000596,1500,,,,0.0625,0.04296875,-1.015625,0.08052793138189032,4.349728417355992,22.45595520146896,1.8772674729996877,3900,0,42.15583427485583,32.88676510995742,78.01236928567438,0.13226379678307082,0.10318212157766313,0.259765625,,
3.6054199999999255,1500,,,,-0.09375,0.02734375,-0.9296875,0.08052793138189032,4.349728417355992,22.455957743851428,1.8748821576600536,3899,0,42.102274507115155,32.88192457560547,78.10011444880139,0.13228326728122783,0.10331338314325278,0.26171875,,
3.6142900000000373,1500,,,,-0.125,-0.046875,-0.9375,0.08052793138189032,4.428788761323022,22.456034969710252,1.875755811347443,3900,0,42.12203809425541,32.887934316534974,78.07773746118951,0.13466302622406942,0.10514184407252171,0.259765625,,
3.6214150000009684,1500,,,,0.1875,0.078125,-1.060546875,0.08052793138189032,4.428788761323022,22.45611792258965,1.8739947035543825,3899,0,42.082646049325646,32.8830927745783,78.13931836899128,0.13468285333388375,0.10524026355500501,0.259765625,,
3.6298750000009314,1500,,,,-0.4375,-0.1875,-0.70703125,0.08052793138189032,4.428788761323022,22.45644968123768,1.8735092119832097,3898,0,42.072365346236204,32.87334905779213,78.1352528845469,0.13472277356155912,0.1052659798153997,0.263671875,,
3.6380049999998882,1500,,,,0.1875,-0.005859375,-1.078125,0.08052793138189032,4.428788761323022,22.456523452191767,1.8728700596282513,3897,0,42.058150416949616,32.862603684488924,78.1361124031863,0.13476682504659243,0.10530155790061088,0.26171875,,
3.6464350000005217,1500,,,,-0.21875,0.048828125,-0.9609375,0.08086986026241075,4.428788761323022,22.45635082877974,1.8710036753990784,3895,0,42.01591493669803,32.982222816543526,78.49935641348085,0.13427805596842884,0.10540740973975025,0.26171875,,
3.6546950000002982,1500,,,,0.5,0.1484375,-1.0859375,0.08086986026241075,4.428788761323022,22.456532022165412,1.8704612101783673,3897,0,42.004072062588776,33.00454416418407,78.57462989541864,0.1341872421958508,0.1054371289222588,0.263671875,,
3.662070000000298,1500,,,,-0.25,-0.20703125,-0.935546875,0.08086986026241075,4.428788761323022,22.45650631015167,1.8703786114142555,3898,0,42.00216908959695,33.013141293996846,78.5986581397138,0.13415229777386736,0.10544190591385291,0.265625,,
3.6745849999999627,1500,,,,0.0625,0.037109375,-0.95703125,0.08086986026241075,4.428788761323022,22.456481074914088,1.8692138625975472,3899,0,41.97596573038888,33.01662640181362,78.65602572166894,0.1341381371744191,0.10550772767847866,0.265625,,
3.6858499999996273,1500,,,,0,0.130859375,-1.029296875,0.08086986026241075,4.428788761323022,22.45630465466256,1.8715310126071967,3891,0,42.027670589756326,32.95456012029031,78.41157898558988,0.13439077157022017,0.10537792599912685,0.267578125,,
3.694070000000298,1500,,,,-0.25,-0.12109375,-0.92578125,0.08086986026241075,4.428788761323022,22.45628845707824,1.8734695523654197,3896,0,42.07117268347111,32.9914309911682,78.41813975423092,0.13424057787940777,0.1052689639683612,0.267578125,,
3.702495000000112,1500,,,,0.09375,0.0625,-1.068359375,0.08086986026241075,4.428788761323022,22.456195741830612,1.873944879285541,3899,0,42.08167301863725,33.01721549726892,78.45984517451615,0.13413574387244612,0.10524269696600676,0.26953125,,
3.711269999999553,1500,,,,-0.0625,0.146484375,-1.01171875,0.08086986026241075,4.428788761323022,22.456094535118652,1.8751073542428287,3898,0,42.10758801037318,33.011131158934624,78.39710778684915,0.13416046666199588,0.10517792565634472,0.26953125,,
3.719955000001006,1500,,,,-0.15625,-0.091796875,-0.943359375,0.08086986026241075,4.428788761323022,22.4558694428442,1.8765474926984307,3900,0,42.13950549933259,33.02379774460825,78.36778660141441,0.13410900816354787,0.10509826133088263,0.26953125,,
3.727915000000037,1500,,,,0.1875,0.00390625,-1.0390625,0.08086986026241075,4.428788761323022,22.455809196471243,1.8792039028666623,3899,0,42.199044284037846,33.01709825777216,78.24134128616075,0.13413622017133178,0.1049499778126077,0.26953125,,
3.736300000000745,1500,,,,-0.125,0.021484375,-0.94921875,0.08086986026241075,4.428788761323022,22.45601402317209,1.8782686539792859,3896,0,42.178427233043415,32.99638975922017,78.23048872095009,0.1342204039181434,0.10500127794839684,0.26953125,,
3.7446900000004097,1500,,,,0.1875,0.107421875,-1.095703125,0.08086986026241075,4.428788761323022,22.456086369494415,1.8789360959133317,3896,0,42.19355125259042,32.99538730579496,78.2000716371776,0.13422448175188406,0.10496364088460372,0.26953125,,
3.7527750000003723,1500,,,,-0.375,-0.18359375,-0.80078125,0.08086986026241075,4.428788761323022,22.456147209591755,1.8799214274792149,3898,0,42.21579231793912,33.00954677840138,78.19241323198936,0.13416690604855086,0.10490834159805783,0.271484375,,
3.761945000000298,1500,,,,0.15625,0.091796875,-1.107421875,0.08086986026241075,4.457156815256477,22.45613896370762,1.878064245232493,3899,0,42.17407167371152,33.01819169710052,78.29026315635973,0.13499094245212345,0.1056847640830176,0.271484375,,
3.770410000000149,1500,,,,-0.3125,-0.06640625,-0.83984375,0.08086986026241075,4.457156815256477,22.456259976547923,1.8780342369051797,3900,0,42.173625068800504,33.0257592064586,78.30903592608315,0.134960010681142,0.10568588325014117,0.271484375,,
3.7785499999998136,1500,,,,0.125,0.09375,-1.08203125,0.08086986026241075,4.457156815256477,22.45617238114953,1.8753757536317148,3900,0,42.113761202982,33.02903344925863,78.42812540552636,0.13494663178999333,0.10583611361078986,0.271484375,,
3.7859199999999253,1500,,,,-0.28125,-0.01953125,-0.98046875,0.08086986026241075,4.457156815256477,22.45616491725913,1.8784003745410043,3899,0,42.18166859133411,33.01643261833351,78.27199283699383,0.13499813461922858,0.10566573025923788,0.2734375,,
3.794850000000559,1500,,,,0.3125,0.1875,-1.03515625,0.08086986026241075,4.457156815256477,22.456302145396318,1.8787042627331665,3899,0,42.18875056578001,33.01541205783829,78.25643474878736,0.1350023076328163,0.10564799278203205,0.2734375,,
3.8037450000001116,1500,,,,-0.25,-0.154296875,-0.888671875,0.08089189531932008,4.457156815256477,22.456287354250048,1.8790687033264282,3900,0,42.196906760276306,33.033770390091426,78.28481499309576,0.13492728085902703,0.10562757219570401,0.2734375,,
3.8118650000002234,1500,,,,0.09375,0.0625,-1.01171875,0.08089189531932008,4.457156815256477,22.4562718849133,1.8789804040324136,3900,0,42.194894819376124,33.037649545311176,78.29774120005652,0.13491143821062335,0.10563260873942802,0.275390625,,
3.8190099999997766,1500,,,,-0.03125,0.107421875,-1.0859375,0.08089189531932008,4.457156815256477,22.45606462450877,1.8780628583176007,3900,0,42.1739009152697,33.03898062827816,78.33987350294149,0.13490600286382878,0.10568519199139807,0.275390625,,
3.8293449999997393,1500,,,,-0.125,0.046875,-0.93359375,0.08089189531932008,4.457156815256477,22.455945296950347,1.877656035681557,3900,0,42.164541223753695,33.03948028965419,78.35844842784905,0.13490396265864288,0.10570865200699743,0.275390625,,
3.8384199999999256,1500,,,,-0.09375,0.02734375,-0.998046875,0.08089189531932008,4.457156815256477,22.455949183185425,1.8749292506827346,3900,0,42.10331597539942,33.039749871385304,78.47303497589151,0.1349028619346989,0.10586237002949489,0.275390625,,
3.8467750000003726,1500,,,,-0.21875,0.103515625,-0.875,0.08089189531932008,4.457156815256477,22.455741112734014,1.8766627871559594,3900,0,42.14185370427608,33.03981913442477,78.40143759758783,0.13490257913102457,0.10576556139494676,0.275390625,,
3.8554350000005218,1500,,,,0.125,0.115234375,-1.05859375,0.08089189531932008,4.457156815256477,22.45564389311874,1.8728211037754725,3901,0,42.055403781899585,33.04763221189235,78.58117920654912,0.13487068564181573,0.10598297518129673,0.275390625,,
3.863695000000298,1500,,,,-0.15625,0.029296875,-0.97265625,0.08089189531932008,4.457156815256477,22.455724533181357,1.8730412654565909,3898,0,42.06049869637462,33.02150195151632,78.50953501500587,0.13497741022805923,0.10597013714534627,0.275390625,,
3.8725049999998884,1500,,,,0.1875,0.23828125,-1.046875,0.08089189531932008,4.457156815256477,22.455807571695047,1.872820382901137,3899,0,42.05569413477617,33.02918946432883,78.53678352919337,0.13494599436265786,0.10598224347391809,0.275390625,,
3.8806650000009686,1500,,,,-0.15625,-0.046875,-0.90625,0.08089189531932008,4.457156815256477,22.455817747184465,1.8735192572666466,3900,0,42.07140698702022,33.03339961385598,78.51745871976036,0.13492879532105156,0.1059426611672766,0.275390625,,
3.8899000000003725,1500,,,,-0.125,0.109375,-0.958984375,0.08089189531932008,4.457156815256477,22.455902331284744,1.87325364274255,3896,0,42.065600843150065,32.9987911497505,78.4460235639877,0.13507030590998412,0.10595728400209639,0.275390625,,
3.898355000000447,1500,,,,0.15625,0.271484375,-1.01171875,0.08089189531932008,4.457156815256477,22.45590720477691,1.8728186391645523,3899,0,42.055841572455755,33.03101811325806,78.54085634299027,0.1349385235409215,0.10598187192562726,0.27734375,,
3.906464999999851,1500,,,,-0.25,-0.046875,-0.90625,0.08089189531932008,4.468919556024483,22.455985106902908,1.8723597676915327,3895,0,42.04568305804525,32.990619740106304,78.46375023700251,0.13546030936156286,0.10628723880772761,0.27734375,,
3.9148600000003353,1500,,,,0.0625,0.044921875,-1.119140625,0.08089189531932008,4.468919556024483,22.4560824875634,1.869878388650023,3895,0,41.99014333723705,32.991351954589135,78.56927681723882,0.13545730293731872,0.1064278233139877,0.27734375,,
3.923714999999851,1500,,,,-0.3125,0.111328125,-0.92578125,0.08089189531932008,4.468919556024483,22.455930132566934,1.8711389352148229,3896,0,42.01816519750975,33.00711305355513,78.55438927045613,0.1353926212442001,0.10635684673564322,0.279296875,,
3.9326550000002607,1500,,,,0.4375,0.26171875,-1.09375,0.08089189531932008,4.468919556024483,22.45586158556125,1.8693594032728624,3897,0,41.97807601356278,33.012668597136845,78.64264333236882,0.13536983666967375,0.10645841783174176,0.28125,,
3.9400800000000746,1500,,,,-0.21875,-0.0390625,-0.908203125,0.08089189531932008,4.468919556024483,22.455868399120224,1.8708118354689485,3899,0,42.01070437680726,33.02908524797327,78.62064142444503,0.13530255296121785,0.10637573500175891,0.279296875,,
3.9479550000010057,1500,,,,0.125,0.103515625,-1.060546875,0.08095951064109931,4.468919556024483,22.45567910516027,1.8706050942261534,3900,0,42.005707728420596,33.066855671930284,78.71991084096797,0.1351480044054521,0.10638838857131935,0.28125,,
3.9553750000009313,1500,,,,-0.5,0.16015625,-0.82421875,0.08095951064109931,4.468919556024483,22.455693681512674,1.8713073824443611,3901,0,42.02150536412386,33.07419564616929,78.70778393009833,0.1351180117525271,0.1063483927408239,0.28125,,
3.9627850000010802,1500,,,,0.1875,0.193359375,-0.998046875,0.08095951064109931,4.468919556024483,22.455791040379125,1.8735813695793884,3899,0,42.07275173242208,33.05706923664666,78.57120790882865,0.13518801452217952,0.10621885595803915,0.283203125,,
3.970730000000447,1500,,,,-0.4375,-0.14453125,-0.890625,0.08095951064109931,4.468919556024483,22.455801137683295,1.8752246708031666,3900,0,42.10967229603353,33.063301192111204,78.5171182517741,0.13516253353100605,0.10612572628463382,0.283203125,,
3.9805949999997394,1500,,,,0.15625,0.107421875,-1.060546875,0.08095951064109931,4.468919556024483,22.455810923442343,1.8757575743986106,3900,0,42.121657428910034,33.065826512675194,78.50077259775775,0.13515221082743545,0.10609552968248721,0.283203125,,
3.989390000000596,1500,,,,-0.15625,0.0859375,-0.9453125,0.08095951064109931,4.468919556024483,22.455736305318585,1.8846478419399522,3900,0,42.32115496699131,33.066970098985344,78.13343025438736,0.13514753673066682,0.10559540635197807,0.283203125,,
3.9974200000008566,1500,,,,-0.15625,0.083984375,-0.923828125,0.08095951064109931,4.468919556024483,22.45526753997019,1.8906697785590152,3900,0,42.455495707278885,33.06728566341414,77.88693810432848,0.1351462470041478,0.10526127375444347,0.283203125,,
4.018189999999478,1500,,,,-0.28125,-0.005859375,-0.900390625,0.08095951064109931,4.468919556024483,22.454974124149476,1.8894047961629383,3910,0,42.42653580788269,33.15302083840772,78.1421820262026,0.13479675284513581,0.10533312397365645,0.283203125,,
4.026040000000968,1500,,,,0.25,0.24609375,-1.04296875,0.08095951064109931,4.468919556024483,22.455088404237756,1.8852504536535482,3909,0,42.33346560091976,33.14026642548902,78.28384932597862,0.1348486309267364,0.10556469905283135,0.283203125,,
4.034080000000075,1500,,,,-0.25,-0.0078125,-0.888671875,0.08095951064109931,4.468919556024483,22.455133392385353,1.8843311960879663,3908,0,42.31290836358832,33.13635779915811,78.3126451966442,0.13486453710787802,0.10561598644138909,0.283203125,,
4.042980000000447,1500,,,,0.03125,0.05859375,-1.0390625,0.08095951064109931,4.468919556024483,22.455034690859563,1.880850902180224,3910,0,42.23457225679144,33.146362304200146,78.48158637115145,0.13482383119483982,0.10581188152807366,0.283203125,,
4.051129999999889,1500,,,,0.09375,0.064453125,-0.974609375,0.08095951064109931,4.468919556024483,22.455147412343333,1.88153406800412,3906,0,42.25012485837854,33.11319580293262,78.37419632232402,0.13495887206479476,0.10577293134645635,0.28515625,,
4.0602900000000375,1500,,,,-0.1875,-0.15625,-0.921875,0.08095951064109931,4.474079735261349,22.455412030392452,1.8800083738723337,3904,0,42.21636265589135,33.09424130369576,78.39197700059887,0.13519209261224888,0.10597975414722248,0.28515625,,
4.068140000000596,1500,,,,0,0.0703125,-1.025390625,0.08095951064109931,4.474079735261349,22.455310374926064,1.8800949531090978,3903,0,42.21811570639686,33.09263027187461,78.38490590630609,0.13519867410067626,0.10597535348038851,0.287109375,,
4.076464999999851,1500,,,,-0.21875,-0.158203125,-0.923828125,0.08095951064109931,4.474079735261349,22.455638438950825,1.8782955512524955,3905,0,42.17832578041587,33.10736421739533,78.49378467451558,0.13513850591919277,0.10607532784856868,0.287109375,,
4.084775000000373,1500,,,,0.09375,0.064453125,-1.041015625,0.08095951064109931,4.474079735261349,22.455756943521965,1.8741146188209659,3904,0,42.084662364544926,33.097685022703246,78.64548071220136,0.1351780262635399,0.10631140857222675,0.287109375,,
4.093030000000261,1500,,,,-0.375,0,-0.89453125,0.08095951064109931,4.474079735261349,22.455638568182838,1.874912707860561,3905,0,42.10236211460973,33.10856762500187,78.63826626846912,0.1351335939970643,0.10626671546556343,0.287109375,,
4.10175500000082,1500,,,,0.15625,0.025390625,-1.0390625,0.08107931974920535,4.474079735261349,22.45565869845734,1.8762571978265636,3905,0,42.132591264917274,33.151790911873725,78.6844338707417,0.13495740689106792,0.10619047157887013,0.287109375,,
4.110490000000223,1500,,,,-0.15625,-0.015625,-0.982421875,0.08107931974920535,4.474079735261349,22.455675755329327,1.8743699114878172,3902,0,42.09024297791575,33.127737821589214,78.70645422258775,0.13505539555271442,0.106297313075832,0.287109375,,
4.118935000000522,1500,,,,0.1875,0.06640625,-1.11328125,0.08107931974920535,4.474079735261349,22.45576461517072,1.8722091137722494,3900,0,42.04188716924701,33.11293171374864,78.7617634299971,0.13511578418783413,0.10641957429860735,0.287109375,,
4.128370000000111,1500,,,,-0.15625,0.01171875,-0.947265625,0.08107931974920535,4.474079735261349,22.455407401558887,1.875634357559631,3901,0,42.11813363536269,33.11777188070115,78.63067287695586,0.1350960369972398,0.10622692292103086,0.287109375,,
4.13918499999959,1500,,,,-0.125,0.01953125,-0.962890625,0.08107931974920535,4.474079735261349,22.455439850516296,1.8794065803957116,3902,0,42.202901420740424,33.129763497552275,78.50115130063261,0.13504713776758195,0.10601355794610329,0.287109375,,
4.148615000000223,1500,,,,0.1875,0.18359375,-1.0390625,0.08107931974920535,4.474079735261349,22.45533779326606,1.8791898852631723,3906,0,42.19784365127342,33.166336395754776,78.59723039367653,0.13489821974530847,0.10602626457018813,0.287109375,,
4.157209999999963,1500,,,,-0.21875,-0.041015625,-0.92578125,0.08107931974920535,4.474079735261349,22.455303349251174,1.8804389981870915,3908,0,42.22582813405312,33.17784439122398,78.57239480513026,0.1348514292400747,0.10595599738287236,0.287109375,,
4.164980000000447,1500,,,,0.0625,0.08203125,-0.970703125,0.08107931974920535,4.474079735261349,22.455402235762058,1.878603524762439,3906,0,42.184797790060955,33.162630849683886,78.61275290383695,0.13491329308404365,0.10605905372658857,0.287109375,,
4.17253500000108,1500,,,,0.03125,0.091796875,-1.029296875,0.08107931974920535,4.474079735261349,22.45562653607059,1.8751595226915325,3909,0,42.10788193711744,33.18580551153037,78.81138633638469,0.13481907900975423,0.1062527852135331,0.287109375,,
4.179615000000224,1500,,,,-0.3125,0.05859375,-0.921875,0.08107931974920535,4.474079735261349,22.455728085174172,1.871171870924595,3905,0,42.01852673410933,33.15363455160993,78.90242026190995,0.1349499020475898,0.10647873885662515,0.287109375,,
4.187399999999442,1500,,,,-0.3125,0.1640625,-0.84375,0.08107931974920535,4.474079735261349,22.455806245636065,1.8716881757758241,3905,0,42.030267027469925,33.153032584366926,78.87894826530352,0.13495235236402084,0.1064489962040261,0.287109375,,
4.195200000000186,1500,,,,0.09375,0.109375,-0.974609375,0.08107931974920535,4.474079735261349,22.45581577000065,1.8723928042422298,3906,0,42.0461078611384,33.16739039131603,78.88337845884512,0.134893932940614,0.10640889163956528,0.2890625,,
4.204285000000149,1500,,,,-0.09375,0.1484375,-1.10546875,0.08107931974920535,4.474079735261349,22.45582502857631,1.8727526262113101,3906,0,42.05420529600795,33.16574996022803,78.86428890234272,0.13490060501048862,0.10638840286647998,0.2890625,,
4.211965000000783,1500,,,,0,-0.04296875,-0.828125,0.08107931974920535,4.47276029420643,22.45576787234192,1.8734128483246226,3905,0,42.068924051040625,33.15410293082468,78.80901087605679,0.13490819834693607,0.10631981670792912,0.2890625,,
4.22019000000041,1500,,,,-0.09375,0.12890625,-1.03515625,0.08107931974920535,4.47276029420643,22.45568155112183,1.8727603407269273,3902,0,42.054109832934294,33.13374422932964,78.78836185323617,0.13499109135535578,0.1063572695266903,0.291015625,,
4.229215000000782,1500,,,,-0.21875,0.033203125,-0.94140625,0.08107931974920535,4.47276029420643,22.455626023896873,1.8708764242359779,3900,0,42.01170131956855,33.114923960259006,78.82309670909345,0.135067811104569,0.1064646313698101,0.291015625,,
4.237775000000372,1500,,,,0.1875,0.1484375,-1.048828125,0.08107931974920535,4.47276029420643,22.455498757648712,1.8709996309212802,3899,0,42.01422988771401,33.10811714517895,78.80215163686857,0.13509558017429366,0.10645822394365426,0.291015625,,
4.245200000000186,1500,,,,-0.5,-0.06640625,-0.8359375,0.08090992221456768,4.47276029420643,22.45533247046004,1.8715117593603443,3902,0,42.02541877881213,33.05820769441761,78.66241111934976,0.13529953999779984,0.10642988039565837,0.29296875,,
4.252245000001043,1500,,,,0.15625,0.115234375,-1.00390625,0.08090992221456768,4.47276029420643,22.455361304561684,1.8704573584665756,3903,0,42.001795789143,33.06559074818082,78.72423101663645,0.1352693296263733,0.10648973954972156,0.291015625,,
4.259785000000149,1500,,,,-0.4375,0.05859375,-0.80859375,0.08090992221456768,4.47276029420643,22.45550651949709,1.8711451896158684,3904,0,42.01751300434475,33.07570296099276,78.71884982238863,0.135227973823604,0.10644990563206184,0.29296875,,
4.267165000000038,1500,,,,0.0625,-0.0234375,-1.01953125,0.08090992221456768,4.47276029420643,22.45570069238555,1.8709483587753892,3902,0,42.01345635557012,33.061903564452095,78.69360541213545,0.1352844153539758,0.1064601840027721,0.291015625,,
4.276120000000112,1500,,,,-0.125,0.013671875,-0.96484375,0.08090992221456768,4.47276029420643,22.455644116463127,1.8727305862700578,3901,0,42.05337157129576,33.05250247329128,78.59655775103612,0.13532289416877682,0.10635913666573615,0.291015625,,
4.285090000000782,1500,,,,0.1875,0.166015625,-1.044921875,0.08090992221456768,4.47276029420643,22.45577410751165,1.8738289618694914,3901,0,42.078279883854364,33.05684693860791,78.56035710074731,0.13530510948346325,0.10629617718576585,0.291015625,,
4.2962549999998885,1500,,,,-0.28125,-0.044921875,-0.890625,0.08090992221456768,4.47276029420643,22.45571992907967,1.876237994950688,3903,0,42.13227493491065,33.06559348090555,78.48043698563146,0.1352693184469628,0.10615995222466179,0.29296875,,
4.313170000000857,1500,,,,0.09375,0.1328125,-0.9609375,0.08090992221456768,4.47276029420643,22.455625990507137,1.8733895664968956,3903,0,42.06813543977259,33.07072668113748,78.61229487692324,0.13524832209863577,0.10632180978427051,0.29296875,,
4.320840000000782,1500,,,,-0.1875,-0.1484375,-0.82421875,0.08090992221456768,4.47276029420643,22.455728490467997,1.8736579793857928,3902,0,42.07435486908625,33.064259536518264,78.58530365919391,0.13527477575193936,0.10630609329895513,0.29296875,,
4.328280000000261,1500,,,,0,0.01171875,-1.029296875,0.08090992221456768,4.47276029420643,22.455840172079224,1.872350104886359,3901,0,42.045194701503846,33.05393045954658,78.6152393732745,0.13531704798860358,0.10637982118908944,0.294921875,,
4.335940000000409,1500,,,,-0.21875,-0.06640625,-0.853515625,0.08090992221456768,4.47276029420643,22.45593485251538,1.8718120695163833,3902,0,42.03328988921189,33.063815570049826,78.66102238772383,0.13527659216252064,0.10640995044631021,0.294921875,,
4.343780000000261,1500,,,,0.1875,0.22265625,-1.16796875,0.08090992221456768,4.47276029420643,22.455938090558742,1.869125996112602,3901,0,41.972977652158534,33.0538151858228,78.75022701450621,0.135317519900845,0.10656285411231504,0.296875,,
4.352275000000373,1500,,,,-0.25,-0.046875,-0.92578125,0.08090992221456768,4.47276029420643,22.455941244323157,1.8689991546440874,3899,0,41.97013520237728,33.03509362587114,78.71095355442162,0.13539420668399824,0.10657007113841947,0.294921875,,
4.360354999999516,1500,,,,0.3125,0.16015625,-1.10546875,0.08090992221456768,4.47222693054491,22.455944145693902,1.8704556471333609,3900,0,42.00284753902449,33.0423806231966,78.66700130865462,0.1353482057344649,0.10647437477637205,0.296875,,
4.369015000000596,1500,,,,-0.15625,-0.091796875,-0.9296875,0.08090992221456768,4.47222693054491,22.456094358705126,1.872036436056459,3901,0,42.038626851017895,33.05322414806936,78.62584157472078,0.1353038030574737,0.10638375383654147,0.296875,,
4.377129999999888,1500,,,,0.15625,0.033203125,-1.056640625,0.08090992221456768,4.47222693054491,22.456188110288796,1.87272910261659,3899,0,42.054357007970474,33.03743490496664,78.55888724848444,0.13536846741913924,0.106343961689803,0.296875,,
4.385410000000149,1500,,,,-0.125,0.03125,-0.9609375,0.08090992221456768,4.47222693054491,22.45637612934862,1.8727472146489066,3900,0,42.055115847345824,33.04706087164631,78.58035866932933,0.13532903721498538,0.10634204282728568,0.296875,,
4.393805000000634,1500,,,,0.3125,0.1015625,-1.02734375,0.08090992221456768,4.47222693054491,22.456428693735504,1.8701478203856037,3904,0,41.99684117523418,33.078059457024374,78.76320821131358,0.1352022157271744,0.10648960267950372,0.296875,,
4.402235000000335,1500,,,,-0.21875,-0.14453125,-0.947265625,0.08068743811455574,4.47222693054491,22.456277052032625,1.868591447729034,3900,0,41.961607247261924,32.95399591011586,78.5336836978907,0.13571121823111215,0.10657901886817578,0.298828125,,
4.4103300000010055,1500,,,,-0.03125,0.025390625,-0.966796875,0.08068743811455574,4.47222693054491,22.45636186797751,1.8668904564037232,3901,0,41.9235676568757,32.960289940504474,78.61995479551894,0.13568530309100976,0.10667572395431475,0.296875,,
4.4183650000002235,1500,,,,-0.1875,0.01953125,-0.91796875,0.08068743811455574,4.47222693054491,22.456082810757295,1.8671944489876877,3902,0,41.92987317025385,32.97243625103591,78.63709989570734,0.13563531964989103,0.10665968180694678,0.296875,,
4.426865000000223,1500,,,,0.03125,0.021484375,-1.001953125,0.08068743811455574,4.47222693054491,22.45607837545981,1.866098821294562,3899,0,41.905261387343856,32.94686164857558,78.62225543479397,0.13574060492460477,0.10672232513255729,0.298828125,,
4.434804999999702,1500,,,,-0.1875,0.07421875,-1.05859375,0.08068743811455574,4.47222693054491,22.456017742156778,1.8693852463702316,3900,0,41.97894825941604,32.95220136300938,78.49696747849816,0.13571860894141127,0.10653499232300971,0.298828125,,
4.445459999999962,1500,,,,0.03125,0.0625,-0.96875,0.08068743811455574,4.47222693054491,22.456097052336364,1.8732705203426177,3901,0,42.06634461009446,32.9656988507015,78.36596965164136,0.1356630402649493,0.10631365696252416,0.298828125,,
4.458044999999926,1500,,,,0.03125,0.01953125,-0.998046875,0.08068743811455574,4.47222693054491,22.455969878558356,1.8655298271938046,3906,0,41.89228160701625,33.000169885179716,78.7738662571502,0.1355213305296763,0.10675539166135768,0.30078125,,
4.466259999999776,1500,,,,-0.0625,0.041015625,-0.9921875,0.08068743811455574,4.47222693054491,22.455789625287778,1.8655778030397612,3905,0,41.893022674667435,32.99740651816238,78.76587653847139,0.13553267976025068,0.10675350320924086,0.30078125,,
4.474995000000112,1500,,,,-0.28125,-0.078125,-0.919921875,0.08068743811455574,4.47222693054491,22.455728942666816,1.8655149688715353,3903,0,41.89149847946672,32.976363071129605,78.71850916789978,0.1356191682175009,0.10675738736672286,0.30078125,,
