Time (s),ESC signal (µs),Servo 1 (µs),Servo 2 (µs),Servo 3 (µs),AccX (g),AccY (g),AccZ (g),Torque (N·m),Thrust (N),Voltage (V),Current (A),Motor Electrical Speed (RPM),Motor Optical Speed (RPM),Electrical Power (W),Mechanical Power (W),Motor Efficiency (%),Propeller Mech. Efficiency (N/W),Overall Efficiency (N/W),Vibration (g),App message,90% settling time (s),Max acceleration (RPM/s),
0,1000,,,,-0.0625,0.05078125,-0.955078125,-0.0006012392383652367,0.004706132436133602,22.529952563684336,0.06816395993222754,0,0,1.5357307838259662,0,0,0,0,0.060546875,,
0,1200,,,,-0.0625,0.046875,-0.953125,-0.0006012392383652367,0.004706132436133602,22.53003476511132,0.0674064411124672,0,0,1.518669461656315,0,0,0,0,0.060546875,,
0.008144999999552965,1200,,,,-0.0625,0.044921875,-0.95703125,-0.0006012392383652367,0.004706132436133602,22.530131277929556,0.06783927656348455,0,0,1.5284278067750767,0,0,0,0,0.05859375,,
0.016389999999664725,1200,,,,-0.0625,0.046875,-0.953125,-0.0006012392383652367,0.004706132436133602,22.53015780535716,0.06739597138858937,0,0,1.5184418708302545,0,0,0,0,0.05859375,,
0.024695000000298024,1200,,,,-0.0625,0.05078125,-0.953125,-0.0006012392383652367,0.0056079217387236535,22.53034728945491,0.06751019560626545,0,0,1.5210281525881935,0,0,0,0,0.05859375,,
0.03232500000018627,1200,,,,-0.0625,0.048828125,-0.955078125,-0.0006216202885264468,0.0056079217387236535,22.530231769052293,0.06708417028588003,0,0,1.511421904575448,0,0,0,0,0.05859375,,
0.04241000000014901,1200,,,,-0.21875,0.294921875,-0.982421875,-0.0006216202885264468,0.0056079217387236535,22.52935074992843,0.0958239969239785,0,0,2.1588524369603745,0,0,0,0,0.064453125,,
0.050139999999664724,1200,,,,-0.125,-0.13671875,-1.00390625,-0.0006216202885264468,0.0056079217387236535,22.527289942514045,0.15686782132491658,0,0,3.533806893636884,0,0,0,0,0.064453125,,
0.05807500000018626,1200,,,,0.15625,0.142578125,-0.93359375,-0.0006216202885264468,0.0056079217387236535,22.526173557721748,0.19825535725065963,0,0,4.465934586176488,0,0,0,0,0.068359375,,
0.06555999999959022,1200,,,,-0.5,0.09375,-0.75390625,-0.0006216202885264468,0.0056079217387236535,22.525326183264944,0.2321022575800876,0,0,5.228179059863652,0,0,0,0,0.07421875,,
0.07325499999895692,1200,,,,0.03125,0.0234375,-0.978515625,-0.0006216202885264468,0.0056079217387236535,22.524395715328676,0.2573531887173747,0,0,5.7967250612718075,0,0,0,0,0.076171875,,
0.08129999999981373,1200,,,,-0.1875,0.23828125,-0.90234375,-0.0006216202885264468,0.0056079217387236535,22.52372081962467,0.27682760998493955,0,0,6.235187802464721,0,0,0,0,0.078125,,
0.09049499999918044,1200,,,,-0.03125,-0.005859375,-1.013671875,-0.0006216202885264468,0.0056079217387236535,22.523240887757577,0.2878162075542641,0,0,6.482553774145523,0,0,0,0,0.078125,,
0.09846999999973922,1200,,,,-0.03125,0.14453125,-0.966796875,-0.0006216202885264468,0.0056079217387236535,22.523126353978444,0.30378059309263344,0,0,6.8420886821118945,0,0,0,0,0.078125,,
0.10561999999918044,1200,,,,-0.0625,0.013671875,-1.013671875,-0.0006216202885264468,0.0056079217387236535,22.522384929864966,0.33395215781840215,0,0,7.521399046545067,0,0,0,0,0.080078125,,
0.11346499999891967,1200,,,,0.25,-0.58203125,-1.17578125,-0.0006216202885264468,0.0056079217387236535,22.52148710872207,0.35643055373042537,0,0,8.027346120994444,0,0,0,0,0.0859375,,
0.12056500000040979,1200,,,,0,-0.439453125,-1.013671875,-0.0006216202885264468,0.0056079217387236535,22.52124958918926,0.359521776935534,2,0,8.096879671113989,0.00012563274611326536,0.0015516192807145976,0,0.0006926028255959127,0.08984375,,
0.12745999999996274,1200,,,,0.125,-0.14453125,-1.24609375,-0.0006216202885264468,0.0056079217387236535,22.52111053458511,0.35993569755247246,2,0,8.106151629922227,0.00012563274611326533,0.0015498445112908737,0,0.0006918106143022466,0.09375,,
0.1352399999992922,1200,,,,0.03125,0.01953125,-0.970703125,-0.0006216202885264468,0.0056079217387236535,22.520972484794544,0.35947967924935376,2,0,8.095831965217464,0.00012563274611326536,0.0015518200804195015,0,0.0006926924574049034,0.09375,,
0.14310999999940396,1200,,,,-0.0625,0.05078125,-0.8828125,-0.0006216202885264468,0.0056079217387236535,22.520924807493937,0.3569804442701222,2,0,8.039529743153203,0.00012563274611326533,0.0015626877457634806,0,0.0006975435029019691,0.09375,,
0.15118499999959023,1200,,,,-0.0625,0.029296875,-1.013671875,-0.0006216202885264468,0.0056079217387236535,22.52097052042258,0.3526530224594918,2,0,7.942088322748138,0.00012563274611326533,0.0015818603496692621,0,0.0007061016587616074,0.09375,,
0.15955499999970196,1200,,,,-0.0625,-0.009765625,-1.005859375,-0.0006216202885264468,0.0056079217387236535,22.521065524473816,0.3447029460587529,2,0,7.7630776346683374,0.00012563274611326536,0.0016183368507383577,0,0.0007223838279910802,0.09375,,
0.166839999999851,1200,,,,0.0625,0.01953125,-0.98046875,-0.0006216202885264468,0.0056079217387236535,22.521334865251266,0.3374276705046665,2,0,7.599321560237262,0.00012563274611326533,0.0016532100282560342,0,0.0007379503149421362,0.09375,,
0.17545999999903142,1200,,,,-0.03125,0.033203125,-0.970703125,-0.0006216202885264468,0.009021087187912273,22.521662228243176,0.3293969406682019,2,0,7.4185666367459016,0.00012563274611326536,0.001693490835426036,0,0.0012160148489101265,0.09375,,
0.18438499999977648,1200,,,,-0.0625,0.05859375,-0.94921875,-0.00063012644075311,0.009021087187912273,22.52179108048518,0.3219061836612271,425,0,7.249903815934449,0.02805937766072877,0.38703103341947115,0.32149990270589535,0.001244304395885221,0.09375,,
0.19446499999985098,1200,,,,-0.0625,0.0078125,-0.98046875,-0.00063012644075311,0.009021087187912273,22.521899948047587,0.3138575769659637,568,0,7.06866894636408,0.03750089173298946,0.5305226771481333,0.2405566046840545,0.0012762073392264977,0.09375,,
0.2115099999997765,1200,,,,-0.03125,0.0234375,-0.9609375,-0.00063012644075311,0.009021087187912273,22.52234624979217,0.29368848243565143,651,0,6.614553690991748,0.042928374837095606,0.6489988114475366,0.21014276040370622,0.001363824017363098,0.091796875,,
0.2197849999992177,1200,,,,-0.03125,0.04296875,-0.986328125,-0.00063012644075311,0.009021087187912273,22.52262006637416,0.2853661080559735,657,0,6.427192431564565,0.043336205530392385,0.6742633893698916,0.20816513761422048,0.001403581312364142,0.091796875,,
0.22754999999981373,1200,,,,-0.0625,0.11328125,-1,-0.00063012644075311,0.009021087187912273,22.522924074859898,0.2788449095001573,659,0,6.2804027253332215,0.04349327638430564,0.6925236849679572,0.2074133736948705,0.0014363867386280769,0.091796875,,
0.2347549999989569,1200,,,,-0.0625,0.048828125,-0.951171875,-0.00063012644075311,0.009021087187912273,22.522975370560278,0.2719792306278136,683,0,6.1257815127341795,0.04508787427021105,0.7360346459710173,0.20007789974415324,0.0014726426610481252,0.091796875,,
0.24159499999973924,1200,,,,-0.0625,0.0234375,-0.9453125,-0.00063012644075311,0.009021087187912273,22.52319010790319,0.26528963746657686,736,0,5.975168938316427,0.04856385922720271,0.812761274677635,0.18575721393367298,0.0015097626997729822,0.091796875,,
0.25003000000026077,1200,,,,-0.03125,0.025390625,-1.005859375,-0.00063012644075311,0.009021087187912273,22.523331315701824,0.25742683451557596,761,0,5.7981098833466636,0.0502336099328668,0.8663790604787919,0.17958269771908159,0.0015558668892810478,0.08984375,,
0.2583299999991432,1200,,,,-0.0625,0.04296875,-0.96875,-0.00063012644075311,0.009021087187912273,22.523560368943365,0.250451490817092,771,0,5.641059272910637,0.05087184060312088,0.9018136158826845,0.17732967946433706,0.0015991831944105121,0.08984375,,
0.26640499999932943,1200,,,,-0.03125,0.03125,-0.95703125,-0.00063012644075311,0.009021087187912273,22.523875352378955,0.2438466985157505,775,0,5.4923726424578945,0.051123208814663756,0.9308037189513344,0.17645776540780708,0.0016424754427942897,0.08984375,,
0.2744949999991804,1200,,,,-0.0625,0.11328125,-0.998046875,-0.00063012644075311,0.009021087187912273,22.52414529748145,0.23748404519316377,776,0,5.349125139764472,0.0512232265337479,0.9576000784308312,0.17611321656922221,0.0016864602999939317,0.08984375,,
0.28238999999966474,1200,,,,-0.0625,-0.009765625,-0.947265625,-0.00063012644075311,0.009021087187912273,22.52287716520436,0.2722721265018386,777,0,6.132351660709893,0.051262006173336414,0.8359273735355586,0.17597998715478544,0.0014710648845712112,0.08984375,,
0.29035999999940393,1200,,,,-0.0625,0.046875,-1.0625,-0.00063012644075311,0.009021087187912273,22.52182325544542,0.3007070927300552,811,0,6.772471994125139,0.05352203467257221,0.7902880177134808,0.16854903299360552,0.0013320228117204061,0.08984375,,
0.2994349999995902,1200,,,,-0.03125,0.11328125,-0.978515625,-0.00063012644075311,0.009021087187912273,22.520105217215903,0.33679397178150056,825,0,7.584635681043436,0.0544702639121363,0.718165857963038,0.1656148977442777,0.0011893896512998,0.091796875,,
0.307464999999851,1200,,,,-0.1875,-0.01171875,-0.76953125,-0.00063012644075311,0.009021087187912273,22.518635144860475,0.37599366566193276,830,0,8.466864173819719,0.05479291776898405,0.647145349731823,0.16463965700725522,0.0010654578841368756,0.091796875,,
0.3156499999994412,1200,,,,0.15625,0.126953125,-1.005859375,-0.00063012644075311,0.009021087187912273,22.517539939285268,0.4079531755580597,832,0,9.186101923986865,0.054916249217750075,0.5978188536570891,0.1642699076577952,0.00098203647886339,0.09375,,
0.3236049999995157,1200,,,,-0.09375,0.1953125,-0.876953125,-0.00063012644075311,0.08917783223487467,22.516679823830263,0.43352658304507363,833,0,9.761579265545084,0.054965792780617154,0.5630829939027072,0,0.009135594744350519,0.095703125,,
0.3319349999995902,1200,,,,0.125,0.06640625,-0.9609375,0.013116575972559611,0.08917783223487467,22.51598522922686,0.45077997065478187,1003,0,10.149755160894387,1.3774743880137037,13.571503609475464,0.0647401018929054,0.008786205265173748,0.095703125,,
0.3393099999995902,1200,,,,-0.03125,0.037109375,-0.9765625,0.013116575972559611,0.08917783223487467,22.51559749065752,0.46072329899330156,1069,0,10.373460354701034,1.4677047088720463,14.148651064221914,0.060760064129936064,0.008596729460142116,0.095703125,,
0.3501349999997765,1200,,,,0.03125,-0.06640625,-0.884765625,0.013116575972559611,0.08917783223487467,22.515324415031998,0.466745030941501,1095,0,10.508915790752043,1.5036896807338562,14.308704253364738,0.05930600799983717,0.008485921289173533,0.095703125,,
0.3589999999990687,1200,,,,0,-0.01953125,-0.958984375,0.013116575972559611,0.08917783223487467,22.51537414348103,0.47152399203815343,1211,0,10.616539098366795,1.6628660056690339,15.66297632648329,0.05362899471806513,0.008399896746821515,0.09765625,,
0.3670800000000745,1200,,,,-0.09375,0.08984375,-0.986328125,0.013116575972559611,0.08917783223487467,22.5152761133033,0.47276003541997524,1323,0,10.644322732815791,1.8165789413682234,17.066176843434317,0.049091085558719015,0.008377971475812634,0.09765625,,
0.3766049999995157,1200,,,,-0.03125,0.029296875,-1.025390625,0.013116575972559611,0.08917783223487467,22.515464015084145,0.4708691382775953,1371,0,10.601837138702878,1.8828476324144092,17.759635502614156,0.04736327608226075,0.00841154519430634,0.095703125,,
0.3850699999993667,1200,,,,0,0.04296875,-0.94921875,0.013116575972559611,0.08917783223487467,22.515569736035648,0.4641390625399881,1424,0,10.450355429837312,1.9553997344315817,18.71132276370836,0.045605934512821196,0.00853347360609944,0.095703125,,
0.39222499999962745,1200,,,,-0.03125,0.095703125,-1.005859375,0.013116575972559611,0.08917783223487467,22.515587682932335,0.4596433079630406,1469,0,10.34913920331491,2.018293881503249,19.502045936890806,0.04418476072892515,0.008616932334460273,0.095703125,,
0.4004550000000745,1200,,,,0,0.07421875,-0.96875,0.013116575972559611,0.08917783223487467,22.515866988788197,0.4550339965025282,1492,0,10.245484940627637,2.0490298255472146,19.999344466575256,0.043521978608124366,0.008704110420507987,0.095703125,,
0.4085999999996275,1200,,,,-0.03125,0.04296875,-1.00390625,0.013116575972559611,0.08917783223487467,22.51627120354502,0.4507676006605542,1501,0,10.149605546244318,2.06138171090696,20.309968712722412,0.04326119309346085,0.008786334782032328,0.095703125,,
0.4165099999997765,1200,,,,-0.03125,0.115234375,-0.998046875,0.013116575972559611,0.08917783223487467,22.516258117321527,0.4449339445831701,1536,0,10.01824754139269,2.109750561891662,21.05907797920488,0.04226937242994039,0.008901540101341676,0.095703125,,
0.42466499999910595,1200,,,,0,0.00390625,-0.9453125,0.013116575972559611,0.08917783223487467,22.51670681142623,0.4392555358441965,1550,0,9.890588115899698,2.1292844669675004,21.528390850131057,0.041881596197374506,0.00901643372364441,0.09375,,
0.43352999999932945,1200,,,,-0.0625,-0.037109375,-0.998046875,0.013116575972559611,0.08917783223487467,22.516960201189534,0.43018542105714863,1556,0,9.686468005075778,2.1373440641716166,22.065257047787007,0.041723667110862596,0.009206434397774799,0.095703125,,
0.44242999999970195,1200,,,,-0.03125,0.130859375,-0.982421875,0.013116575972559611,0.08917783223487467,22.517714074969135,0.4220571222489097,1572,0,9.503761602105243,2.158605920798959,22.713174121716094,0.04131269694742037,0.009383424792044476,0.095703125,,
0.45137499999906866,1200,,,,-0.0625,0.001953125,-0.994140625,0.013116575972559611,0.08917783223487467,22.517841064473462,0.41344856366717797,1584,0,9.30996904499235,2.1754982451322653,23.367405784259006,0.04099191182268817,0.009578746374333187,0.095703125,,
0.4598849999997765,1200,,,,0,0.14453125,-0.984375,0.013116575972559611,0.08917783223487467,22.51807658602604,0.40620482648782574,1588,0,9.14695139246628,2.181113363914719,23.84524931127494,0.040886381107131435,0.009749459509353508,0.095703125,,
0.4684749999996275,1200,,,,-0.0625,0.00390625,-0.986328125,0.013116575972559611,0.08917783223487467,22.518291504031374,0.3995399496780124,1594,0,8.996957054355509,2.190023628318254,24.341825965013843,0.04072003200410921,0.009911999323338203,0.095703125,,
0.4776499999994412,1200,,,,-0.03125,0.044921875,-0.978515625,0.013116575972559611,0.21938818858101442,22.518570621033188,0.3929629573457232,1599,0,8.84896410643972,2.1961417887512846,24.8180664124637,0.0998970966741439,0.0247925277967121,0.095703125,,
0.48627500000037255,1200,,,,-0.03125,0.046875,-0.982421875,0.028679584695168115,0.21938818858101442,22.518721570038448,0.3853796145214258,1601,0,8.678256238176733,4.807494467840293,55.39700990495676,0.04563462112096237,0.025280215582469016,0.09375,,
0.49363999999966474,1200,,,,-0.03125,0.060546875,-1.0078125,0.028679584695168115,0.21938818858101442,22.519008576763888,0.37871400540730066,1604,0,8.528263935907608,4.8184246173206,56.499478129810086,0.04553110321418921,0.025724835702762093,0.09375,,
0.5036399999996647,1200,,,,0,0,-0.90234375,0.028679584695168115,0.21938818858101442,22.51922872333356,0.37241205368200375,1607,0,8.386432216191418,4.825942553492408,57.544643885335574,0.04546017407982798,0.02615989528389064,0.09375,,
0.5110949999997392,1200,,,,-0.03125,0.05078125,-1.013671875,0.028679584695168115,0.21938818858101442,22.519523422195938,0.3651728049911451,1608,0,8.223517535147082,4.829768883435731,58.73117997004853,0.04542415876946666,0.02667814443677605,0.09375,,
0.5204850000003353,1200,,,,-0.0625,0.078125,-0.95703125,0.028679584695168115,0.21938818858101442,22.51964337033114,0.35748240737099324,1609,0,8.050376325162203,4.833783696717183,60.04419546957999,0.045386430660935395,0.027251917142717432,0.09375,,
0.5288149999994785,1200,,,,-0.0625,0.0078125,-1.0546875,0.028679584695168115,0.21938818858101442,22.51982820111706,0.35042080372872497,1612,0,7.891416298068247,4.841724178633482,61.35431202404943,0.045311996405985704,0.027800863659254528,0.09375,,
0.5366549999993294,1200,,,,-0.0625,0.0703125,-0.986328125,0.028679584695168115,0.21938818858101442,22.520031062120665,0.34515715748148085,1613,0,7.772949907796223,4.844391086708872,62.323714216271696,0.04528705148990353,0.02822457254754329,0.09375,,
0.5448449999997392,1200,,,,-0.03125,0.04296875,-0.947265625,0.028679584695168115,0.21938818858101442,22.52032580415942,0.3395970844648386,1614,0,7.6478369842908105,4.8461233709718305,63.3659344586725,0.04527086328324712,0.028686305556937602,0.09375,,
0.5537649999996648,1200,,,,-0.0625,0.04296875,-1.01953125,0.028679584695168115,0.21938818858101442,22.52052732606834,0.3347928255785648,1614,0,7.5397109770137005,4.847542689245895,64.293481593984,0.04525760836881735,0.02909769210648295,0.09375,,
0.561644999999553,1200,,,,-0.03125,0.033203125,-0.9609375,0.028679584695168115,0.21938818858101442,22.520698680898832,0.33054722505567996,1614,0,7.444154455286221,4.848025361577817,65.12526561206896,0.04525310249400454,0.029471203196922265,0.09375,,
0.5710899999989196,1200,,,,-0.0625,0.1015625,-1.01953125,0.028679584695168115,0.21938818858101442,22.520660655637094,0.32685051364974105,1614,0,7.360889503026498,4.848225256527171,65.86466560235388,0.045251236684114834,0.029804575722921927,0.09375,,
0.5800449999999255,1200,,,,0,-0.029296875,-0.98046875,0.028679584695168115,0.21938818858101442,22.52099309200462,0.32547109665287255,1614,0,7.3299323193665105,4.848297525818455,66.14382390692346,0.04525056216387604,0.0299304521545671,0.09375,,
0.5886349999997765,1200,,,,-0.0625,0.17578125,-1.01953125,0.028679584695168115,0.21938818858101442,22.520937836874477,0.3266950167124637,1614,0,7.3574781629980635,4.848323578231552,65.89654051050465,0.04525031901048099,0.029818394797874192,0.095703125,,
0.6014150000000372,1200,,,,0,-0.02734375,-0.953125,0.028679584695168115,0.21938818858101442,22.520760624982266,0.3237448844882899,1614,0,7.290981047123312,4.848334190294149,66.49769295734323,0.045250219966314675,0.030090352335722357,0.095703125,,
0.6088349999999627,1200,,,,-0.0625,0.052734375,-0.9375,0.028679584695168115,0.21938818858101442,22.520772002636978,0.31770613784075996,1622,0,7.154987494150111,4.871129381778639,68.08019421083901,0.04503846467344442,0.03066227421926108,0.095703125,,
0.6161399999996647,1200,,,,-0.0625,-0.0078125,-0.9765625,0.028679584695168115,0.21938818858101442,22.520738183270208,0.31339631976628884,1625,0,7.057916465057021,4.8799468638755465,69.14146530404028,0.04495708553817759,0.031083987699086768,0.095703125,,
0.6244199999999255,1200,,,,-0.03125,0.0546875,-1,0.028679584695168115,0.47374100010928316,22.52080071253332,0.30938405028003285,1628,0,6.967576539993008,4.88809433342141,70.15487099946972,0.09691731946950566,0.06799222044997566,0.095703125,,
0.6328649999992922,1200,,,,-0.0625,0.0625,-0.9609375,0.021613215935139884,0.47374100010928316,22.520761539865358,0.3049922497419242,1630,0,6.868657727944936,3.6891425641560813,53.70980343287323,0.1284149343297756,0.06897140880697572,0.09375,,
0.640695000000298,1200,,,,-0.03125,0.015625,-0.96484375,0.021613215935139884,0.47374100010928316,22.520920564863612,0.3011139689740384,1631,0,6.781363776235126,3.691299059326551,54.43298989891211,0.12833991299412992,0.06985925187636732,0.09375,,
0.6488949999995529,1200,,,,-0.03125,0.021484375,-0.96484375,0.021613215935139884,0.47374100010928316,22.521199966617054,0.29692948745315956,1631,0,6.687208362917716,3.6921445214578164,55.21204546177601,0.12831052450845828,0.07084286512385324,0.09375,,
0.6590149999996647,1200,,,,-0.0625,-0.02734375,-0.96484375,0.021613215935139884,0.47374100010928316,22.5212064590192,0.2931158186665352,1626,0,6.601321868593473,3.680602050707872,55.755530846310464,0.12871290989423073,0.07176456617926161,0.09375,,
0.6672849999992176,1200,,,,-0.01953125,0.0625,-0.96484375,0.021613215935139884,0.47374100010928316,22.52139373528179,0.28759712171612856,1624,0,6.477088015302693,3.6753668098934162,56.7441233037136,0.12889625025563678,0.0731410471789218,0.09375,,
0.6742599999997765,1200,,,,-0.0625,-0.03125,-0.98828125,0.021613215935139884,0.47374100010928316,22.521504929998336,0.28468987613376134,1623,0,6.411644448867122,3.674110953741166,57.303722672743454,0.128940308573669,0.07388759683843492,0.091796875,,
0.6812549999989569,1200,,,,-0.0625,0.15234375,-1.01953125,0.021613215935139884,0.47374100010928316,22.521698900730733,0.2837009794779569,1621,0,6.389428037644935,3.6688599657876586,57.42078859283867,0.12912485200496793,0.07414450829058845,0.09375,,
0.6887999999998138,1200,,,,-0.03125,-0.009765625,-0.9765625,0.021613215935139884,0.47374100010928316,22.521972527127513,0.2811960532601781,1620,0,6.333089786262416,3.6665615567974656,57.89530356494995,0.12920579479458383,0.07480408711983061,0.091796875,,
0.6976500000003726,1200,,,,-0.03125,0.0859375,-1.013671875,0.021613215935139884,0.47374100010928316,22.5218639562969,0.278512106377395,1619,0,6.2726117700133805,3.6654292757548,58.435455758279474,0.1292457075199544,0.07552531823729824,0.091796875,,
0.7057249999996275,1200,,,,-0.0625,0.08984375,-0.9609375,0.021613215935139884,0.47374100010928316,22.521968786024853,0.27582678351706524,1619,0,6.212162208720978,3.664209590836716,58.984448050836406,0.12928872881452866,0.0762602430831924,0.091796875,,
0.7136049999995158,1200,,,,-0.0625,0.048828125,-0.986328125,0.021613215935139884,0.47374100010928316,22.521677521936933,0.2733946217476914,1618,0,6.157305507233432,3.662894074365749,59.48858750085866,0.12933516244018445,0.0769396612776068,0.091796875,,
0.7212399999992922,1200,,,,-0.03125,0.048828125,-0.978515625,0.021613215935139884,0.47374100010928316,22.521789302677885,0.272991827891669,1618,0,6.148264429129073,3.6623769917996603,59.56765578344605,0.12935342297366578,0.07705280174105825,0.091796875,,
0.7278799999989569,1200,,,,0,-0.11328125,-0.9453125,0.021613215935139884,0.47374100010928316,22.521941220811478,0.2719066614864849,1618,0,6.123865847545697,3.6617691233458545,59.7950578034528,0.12937489616396503,0.07735979394439993,0.091796875,,
0.7351349999997765,1200,,,,-0.0625,0.142578125,-0.958984375,0.021613215935139884,0.47374100010928316,22.521943734284694,0.2702017696380422,1617,0,6.085469052692141,3.6606691265047986,60.154264113550305,0.12941377211045849,0.07784790227463331,0.09375,,
0.7436399999996647,1200,,,,0,0.0078125,-0.953125,0.021613215935139884,0.47374100010928316,22.521979978797614,0.26831195680426023,1617,0,6.042916519217559,3.6601496578398462,60.56925734783716,0.1294321392281201,0.07839608549989097,0.091796875,,
0.7533549999995157,1200,,,,-0.0625,0.09375,-0.978515625,0.021613215935139884,0.47374100010928316,22.521883843263716,0.26530664199889786,1617,0,5.975205373945529,3.6599514996647438,61.25231302715903,0.12943914698123143,0.07928447148862834,0.091796875,,
0.7623999999994412,1200,,,,0,-0.02734375,-0.994140625,0.021613215935139884,0.47374100010928316,22.521830342693352,0.2644024586961517,1617,0,5.954827316945715,3.6594931548496725,61.454227974601615,0.12945535899731553,0.07955579144354925,0.09375,,
0.7703999999994412,1200,,,,-0.03125,0.123046875,-1.009765625,0.021613215935139884,0.47374100010928316,22.521950743104338,0.2622724098195658,1617,0,5.906886295231535,3.659348302752516,61.95054585199322,0.12946048337430496,0.08020147611301086,0.09375,,
0.7782999999998137,1200,,,,-0.0625,0.00390625,-0.95703125,0.021613215935139884,0.5825465064322878,22.5219531273739,0.26144946083046555,1617,0,5.888352502000924,3.659299869196691,62.14471480695531,0.1591961651834157,0.09893200283684314,0.09375,,
0.786914999999106,1200,,,,-0.0625,0.009765625,-0.95703125,0.017775927573995313,0.5825465064322878,22.522054714473246,0.2597965377370016,1616,0,5.851151837543464,3.009045856081816,51.42655565310245,0.19359841434614822,0.09956099629724581,0.09375,,
0.79475,1200,,,,-0.03125,0.005859375,-0.95703125,0.017775927573995313,0.5825465064322878,22.52215047356474,0.25925300711713556,1616,0,5.838935237016277,3.008824196667948,51.53035741162751,0.19361267669856394,0.09976930429698887,0.09375,,
0.8028999999994412,1200,,,,-0.125,-0.00390625,-0.98046875,0.017775927573995313,0.5825465064322878,22.522175617012845,0.25753290293194636,1616,0,5.800201266992418,3.0087376916430633,51.87298773173755,0.1936182433085952,0.10043556759787338,0.09375,,
0.8149949999991805,1200,,,,-0.0625,0.111328125,-1.005859375,0.017775927573995313,0.5825465064322878,22.52220051854106,0.25648206001766727,1616,0,5.776540385126385,3.008562819054023,52.08243374876359,0.19362949736095486,0.10084695468108326,0.09375,,
0.8232449999991804,1200,,,,-0.01953125,0.056640625,-0.974609375,0.017775927573995313,0.5825465064322878,22.52218487708315,0.25524831629908407,1616,0,5.748749769252167,3.008314483441693,52.32989091875246,0.19364548142779925,0.10133446920026039,0.09375,,
0.830929999999702,1200,,,,-0.0625,-0.09375,-0.98828125,0.017775927573995313,0.5825465064322878,22.522176878947253,0.2546869752812864,1616,0,5.7361051060492,3.0082650885218074,52.444385744419876,0.19364866103556647,0.10155785078239658,0.095703125,,
0.8389399999994784,1200,,,,-0.0625,0.0859375,-0.96875,0.017775927573995313,0.5825465064322878,22.52220061979756,0.2549774658474056,1616,0,5.74265363934285,3.007423564100657,52.369927789077074,0.1937028469770912,0.10144204108728912,0.095703125,,
0.846039999999106,1200,,,,0,0.15234375,-1.0546875,0.017775927573995313,0.5825465064322878,22.522093966000128,0.2546754608614215,1615,0,5.735824660355323,3.0070881620994236,52.426431074222215,0.19372445203787378,0.10156281632155054,0.095703125,,
0.8538950000004842,1200,,,,-0.09375,0.0234375,-0.9921875,0.017775927573995313,0.5825465064322878,22.522089895793297,0.25680121525343147,1615,0,5.783700055286748,3.006963207124928,51.9903034109857,0.1937325022973203,0.10072211575007167,0.095703125,,
0.8622099999990315,1200,,,,-0.0625,0.07421875,-0.953125,0.017775927573995313,0.5825465064322878,22.52234308679663,0.2544948215325019,1617,0,5.731819684368087,3.0093869559584685,52.50316865629458,0.19357647087519553,0.10163378098250686,0.095703125,,
0.8703499999996275,1200,,,,-0.0625,0.060546875,-0.98828125,0.017775927573995313,0.5825465064322878,22.52241510826782,0.2529745009573702,1618,0,5.697596722368786,3.0123316848941535,52.87021584149204,0.19338723864757848,0.10224425048287605,0.095703125,,
0.8779599999999628,1200,,,,-0.0625,-0.015625,-0.94921875,0.017775927573995313,0.5825465064322878,22.52223208449066,0.253138993445623,1619,0,5.701255160016681,3.01369753861283,52.86024663039309,0.19329959259960347,0.10217864138369546,0.095703125,,
0.8858849999997764,1200,,,,-0.03125,0.078125,-0.9921875,0.017775927573995313,0.5825465064322878,22.522220629284725,0.2543656245815453,1619,0,5.728878717331374,3.014240681119166,52.61484541469329,0.19326476153058636,0.10168595552039361,0.095703125,,
0.8935099999997764,1200,,,,-0.0625,0.10546875,-0.9921875,0.017775927573995313,0.5825465064322878,22.52191856043649,0.2547775763033762,1620,0,5.738079824530033,3.0155507604714726,52.55330794772372,0.19318079936456062,0.10152290038593184,0.095703125,,
0.9007549999998883,1200,,,,-0.03125,0.033203125,-0.953125,0.017775927573995313,0.5825465064322878,22.521922158396787,0.25210601088174195,1620,0,5.677911952742526,3.0160411731615824,53.11884365703812,0.19314938788505664,0.10259872137518937,0.095703125,,
0.9088549999995157,1200,,,,-0.0625,0.00390625,-0.94921875,0.017775927573995313,0.5825465064322878,22.521828716108228,0.25115186713755555,1620,0,5.656399333402797,3.0162672872133336,53.32486462547538,0.19313490846843695,0.10298892848532978,0.09375,,
0.9178449999997392,1200,,,,-0.03125,0.078125,-0.953125,0.017775927573995313,0.5825465064322878,22.52194858581705,0.24940187265837707,1621,0,5.61701615321846,3.0177331733456856,53.72484413484503,0.19304109176307094,0.10371102566591305,0.09375,,
0.9261349999997764,1200,,,,-0.125,0.02734375,-1.05859375,0.017775927573995313,0.6312487537387264,22.521918393063245,0.2481435391692752,1622,0,5.588668538936309,3.018872519595814,54.0177414094842,0.20910083140020833,0.11295154639084605,0.09375,,
0.9365999999996275,1200,,,,-0.03125,0.025390625,-0.91796875,0.015915961191922772,0.6312487537387264,22.522047092372464,0.24636968309190668,1622,0,5.548749604728802,2.7034446707804993,48.72169161276528,0.2334979371175669,0.11376414484458953,0.095703125,,
0.9459399999994784,1200,,,,-0.03125,0.0234375,-0.9609375,0.015915961191922772,0.6312487537387264,22.522344996211697,0.2453380350642804,1621,0,5.5255878664104054,2.702128995361848,48.90210889212111,0.2336116280245142,0.11424101272120486,0.095703125,,
0.9551049999995157,1200,,,,-0.03125,0.080078125,-0.92578125,0.015915961191922772,0.6312487537387264,22.522362921155494,0.24246371286019194,1621,0,5.46085573624808,2.701008295120856,49.461264416712154,0.23370855797778337,0.11559520782587646,0.095703125,,
0.9665449999999255,1200,,,,-0.0625,0.033203125,-0.974609375,0.015915961191922772,0.6312487537387264,22.522379450718244,0.24121244515909293,1620,0,5.432678218108656,2.700612482646171,49.71051798437582,0.2337428112308075,0.11619476221407618,0.095703125,,
0.9847449999991804,1200,,,,-0.0625,0.03515625,-0.970703125,0.015915961191922772,0.6312487537387264,22.52229560980891,0.2404037289736767,1618,0,5.41444384964553,2.696999206930877,49.81119542143635,0.2340559656511998,0.11658607444604907,0.095703125,,
0.9927999999998137,1200,,,,0,0.083984375,-1.041015625,0.015915961191922772,0.6312487537387264,22.522181541949433,0.24000949491309306,1618,0,5.405537416224271,2.696579581240646,49.885503949100176,0.23409238804971616,0.11677816748508404,0.095703125,,
1.0010449999999256,1200,,,,-0.1875,0.0390625,-0.9921875,0.015915961191922772,0.6312487537387264,22.522270717416017,0.23879059481125522,1618,0,5.3781064211118865,2.696170678869634,50.13234152983196,0.234127890599039,0.11737379373170158,0.095703125,,
1.0101949999993667,1200,,,,-0.03125,0.05078125,-0.96875,0.015915961191922772,0.6312487537387264,22.52236649523827,0.24024338411943205,1618,0,5.4108495451941545,2.6959987184326297,49.82579345284476,0.23414282411295612,0.11666351992717913,0.095703125,,
1.0175300000002607,1200,,,,-0.03125,0.0390625,-0.978515625,0.015915961191922772,0.6312487537387264,22.522316090438576,0.23965225678826438,1618,0,5.397523879172244,2.6959414185619415,49.9477441677458,0.2341478006133548,0.116951544424762,0.095703125,,
1.0240049999998881,1200,,,,-0.0625,-0.01953125,-0.87890625,0.015915961191922772,0.6312487537387264,22.522218346143482,0.24072395427471385,1617,0,5.421637459322165,2.695240715741107,49.712669575624425,0.2342086738494349,0.11643138414822146,0.095703125,,
1.0312900000000373,1200,,,,-0.03125,0.09375,-1.05078125,0.015915961191922772,0.6312487537387264,22.522123194049538,0.24036990102327602,1617,0,5.413640522987716,2.6949274361882614,49.78031741754746,0.2342359001070442,0.116603374579136,0.095703125,,
1.0391549999993295,1200,,,,-0.0625,0.11328125,-0.9140625,0.015915961191922772,0.6312487537387264,22.522150100617676,0.24008742482024634,1617,0,5.40728501907235,2.6947791935665766,49.83608565225735,0.23424878566887705,0.11674042546531431,0.095703125,,
1.047074999999255,1200,,,,-0.03125,0.060546875,-1.01171875,0.015915961191922772,0.6312487537387264,22.52231889726251,0.2404670203235911,1617,0,5.415874916002425,2.695651691978242,49.7731526999143,0.23417296664001702,0.11655526826765505,0.09765625,,
1.0555149999996647,1200,,,,-0.0625,-0.02734375,-0.95703125,0.015915961191922772,0.6312487537387264,22.522337799819265,0.24026848902433443,1619,0,5.411408072458228,2.6981527964411574,49.8604570254757,0.2339558955190894,0.1166514787438624,0.09765625,,
1.063910000000149,1200,,,,-0.03125,-0.052734375,-0.93359375,0.015915961191922772,0.6312487537387264,22.52232104008407,0.2402047704952602,1619,0,5.409968956453964,2.6990161119339193,49.88967836338612,0.23388106167562642,0.11668250942284274,0.09765625,,
1.071984999999404,1200,,,,-0.03125,0.103515625,-0.9765625,0.015915961191922772,0.6505757528085367,22.522272140396563,0.23853624554551847,1620,0,5.372378237524624,2.6993539477365873,50.245046576994945,0.24101165145609954,0.12109641653010192,0.099609375,,
1.0809549999991432,1200,,,,-0.03125,0.013671875,-0.98046875,0.015915961191922772,0.6505757528085367,22.522257195457367,0.23820378770662,1619,0,5.364886971660622,2.6984484021220245,50.298327185199945,0.24109253017286988,0.121265509645427,0.099609375,,
1.0888150000004098,1200,,,,-0.0625,0.15625,-1.03515625,0.01494154462470218,0.6505757528085367,22.522407787498977,0.23686245118007185,1619,0,5.334712715024146,2.532953914341206,47.480605791716776,0.2568446860106985,0.12195141286171246,0.099609375,,
1.097179999999702,1200,,,,-0.03125,-0.048828125,-0.939453125,0.01494154462470218,0.6505757528085367,22.522485454459073,0.23696581947411474,1619,0,5.3370592223097235,2.532840081525089,47.4575974524965,0.2568562293189896,0.12189779534186741,0.099609375,,
1.1052300000004471,1200,,,,-0.03125,0.083984375,-0.994140625,0.01494154462470218,0.6505757528085367,22.5224953108943,0.2377829506678453,1618,0,5.355465391427156,2.5310852258366543,47.26172313405905,0.2570343132533152,0.12147884548931188,0.099609375,,
1.112429999999702,1200,,,,0,0.07421875,-0.8984375,0.01494154462470218,0.6505757528085367,22.522444742216308,0.2381183266918073,1617,0,5.36300685502524,2.530520919589721,47.184741470516194,0.25709163191348605,0.12130802186070949,0.099609375,,
1.1237749999994413,1200,,,,-0.0625,0.04296875,-0.953125,0.01494154462470218,0.6505757528085367,22.522522138868634,0.23783717052313838,1617,0,5.356692938553259,2.5302577809483298,47.23544563731713,0.25711836861329745,0.12145100722989079,0.099609375,,
1.1316849999995902,1200,,,,-0.0625,0.04296875,-0.955078125,0.01494154462470218,0.6505757528085367,22.522554100387335,0.2382397075490977,1617,0,5.36576670213501,2.5301402305193688,47.153377531539704,0.257130314344273,0.12124562787078984,0.099609375,,
1.1411849999995902,1200,,,,-0.03125,0.095703125,-0.96875,0.01494154462470218,0.6505757528085367,22.52263527709711,0.23645730980533294,1617,0,5.325641747349072,2.5301074756462807,47.5080299365928,0.25713364316365894,0.1221591281712428,0.099609375,,
1.1500799999991431,1200,,,,-0.0625,0.05078125,-0.974609375,0.01494154462470218,0.6505757528085367,22.522780479272623,0.23600929620723546,1617,0,5.315585569543193,2.5300961630173187,47.59769417529569,0.25713479286600677,0.12239023232664195,0.1015625,,
1.1596199999991805,1200,,,,-0.125,0.0390625,-0.9453125,0.01494154462470218,0.6505757528085367,22.52299869163771,0.2355669263339775,1618,0,5.305673573613292,2.5323225186761,47.728577409475406,0.25690872628209227,0.12261888029524572,0.1015625,,
1.1675399999991058,1200,,,,-0.03125,0.09375,-0.94140625,0.01494154462470218,0.6505757528085367,22.522910188256816,0.2354025703066234,1619,0,5.301950949100889,2.533084739949653,47.77646500821017,0.2568314208159761,0.12270497389623382,0.1015625,,
1.1760349999992177,1200,,,,-0.03125,0.033203125,-0.970703125,0.01494154462470218,0.6505757528085367,22.523064628631165,0.23395485515670061,1619,0,5.269380322876411,2.533357506594797,48.07695310199029,0.25680376777259745,0.12346342699617574,0.1015625,,
1.1840849999999628,1200,,,,-0.0625,0.052734375,-0.962890625,0.01494154462470218,0.6505757528085367,22.522912612074663,0.2336662868746658,1619,0,5.262845359666067,2.5329968909872287,48.12979895628075,0.2568403281991304,0.1236167336008931,0.1015625,,
1.1917749999994411,1200,,,,0,-0.05859375,-0.97265625,0.01494154462470218,0.6505757528085367,22.52290062186521,0.23339614813631576,1619,0,5.256758250000371,2.5328570657288303,48.18287136808415,0.25685450695629103,0.12375987668987645,0.1015625,,
1.1990499999998137,1200,,,,0,0.07421875,-0.97265625,0.01494154462470218,0.6505757528085367,22.522862145416177,0.23335666781130193,1619,0,5.25586005982763,2.5328056759951183,48.1901277272246,0.25685971844363104,0.1237810263977753,0.1015625,,
1.2081899999994785,1200,,,,-0.125,0.02734375,-0.98828125,0.01494154462470218,0.6505757528085367,22.522778074252482,0.23414298243977794,1618,0,5.273550431134715,2.532166704223787,48.01635515371261,0.2569245349144439,0.12336579716154372,0.1015625,,
1.2165849999999627,1200,,,,-0.03125,0.111328125,-1.01953125,0.01494154462470218,0.6505757528085367,22.522625649011466,0.2333367152751057,1618,0,5.255355488311181,2.531324767837296,48.166575476528664,0.25700998981824574,0.12379291072802395,0.1015625,,
1.2358899999996646,1200,,,,-0.041015625,0.033203125,-0.96484375,0.014738292475963357,0.6590773453155347,22.522753304591397,0.2323872675974331,1617,0,5.234001099225052,2.496333265194813,47.69454988391999,0.264018171974366,0.12592227873492765,0.1015625,,
1.2441049999995157,1200,,,,-0.0625,-0.02734375,-0.96484375,0.014738292475963357,0.6590773453155347,22.522608107187683,0.23284923605996555,1617,0,5.244372091836639,2.4961546454205723,47.59682573450639,0.26403706458038306,0.125673261502831,0.1015625,,
1.2529599999999628,1200,,,,-0.0625,0.09765625,-0.9921875,0.014738292475963357,0.6590773453155347,22.52268334136406,0.23400167020873355,1617,0,5.2703455194616105,2.49608750157383,47.36098406369412,0.26404416708147216,0.1250539158925699,0.1015625,,
1.260574999999255,1200,,,,-0.0625,0.064453125,-0.966796875,0.014738292475963357,0.6590773453155347,22.522651371291868,0.2349952066223244,1617,0,5.292715112679311,2.4957685536862892,47.154787298250525,0.2640779107269651,0.1245253771049643,0.1015625,,
1.2686949999993666,1200,,,,-0.03125,0.0546875,-0.986328125,0.014738292475963357,0.6590773453155347,22.522784521500476,0.23465467898703252,1617,0,5.285076771786799,2.495480544567017,47.21748902283846,0.26410838856284863,0.12470534937805859,0.1015625,,
1.278789999999106,1200,,,,0,0.02734375,-0.9609375,0.014738292475963357,0.6590773453155347,22.522979197762854,0.23432773676140764,1617,0,5.277758740536035,2.4953673538555288,47.280815143931484,0.2641203686091393,0.12487826323955757,0.1015625,,
1.2956899999994784,1200,,,,-0.0625,0.078125,-0.982421875,0.014738292475963357,0.6590773453155347,22.523036712726025,0.2360115260460444,1617,0,5.315696265761552,2.4955630374674036,46.94705853570581,0.26409965824160975,0.1239870211472875,0.1015625,,
1.3115099999997766,1200,,,,-0.03125,0.0546875,-1,0.014738292475963357,0.6590773453155347,22.522953450331993,0.23542942669106945,1617,0,5.302566018201306,2.4953640219712785,47.05955594717397,0.26412072127050995,0.12429403859437506,0.1015625,,
1.3195299999993295,1200,,,,-0.0625,-0.0625,-0.953125,0.014738292475963357,0.6590773453155347,22.5230043467507,0.23528568093133614,1616,0,5.299340414344682,2.4946423814507996,47.07458261594406,0.2641971250934323,0.12436969392105686,0.1015625,,
1.351,1200,,,,-0.03125,0.015625,-0.9765625,0.014738292475963357,0.6590773453155347,22.52332230384407,0.2354946506478219,1616,0,5.304121917372054,2.493888569406423,47.01793450935662,0.26427698230013685,0.12425757846118231,0.099609375,,
1.3591299999998883,1200,,,,-0.046875,0.029296875,-0.953125,0.014738292475963357,0.6590773453155347,22.523327725141677,0.23533952941190953,1615,0,5.3006293476250566,2.4931286152274783,47.034577438328576,0.2643575390736106,0.12433945142963711,0.099609375,,
1.3670599999995903,1200,,,,0.0625,0.16015625,-1.0078125,0.014738292475963357,0.6590773453155347,22.523361205377796,0.23519681228948766,1616,0,5.29742275754957,2.4934180627822515,47.068511933067484,0.2643268512220975,0.12441471550977448,0.1015625,,
1.3749950000001117,1200,,,,-0.08203125,0.015625,-0.984375,0.014738292475963357,0.6536533879574582,22.523196485003943,0.23442503939855497,1616,0,5.280001223378444,2.494098913260423,47.23671089728568,0.2620799778557967,0.12379796145941302,0.1015625,,
1.3845599999995901,1200,,,,0,0.1796875,-1.0234375,0.014414715154778386,0.6536533879574582,22.523473847028637,0.23468818918519094,1616,0,5.285993291319157,2.439626586163365,46.15266141502308,0.2679317366291759,0.12365762722985493,0.1015625,,
1.3920549999987706,1200,,,,-0.03125,0.00390625,-0.951171875,0.014414715154778386,0.6536533879574582,22.523622030334245,0.2341827489548189,1616,0,5.274643723482993,2.4394980956376022,46.24953311589232,0.26794584883109546,0.12392370408779625,0.1015625,,
1.3997099999999627,1200,,,,-0.0625,-0.00390625,-1,0.014414715154778386,0.6536533879574582,22.523640394600662,0.23483778809794015,1616,0,5.289401890181435,2.439000361000361,46.11108045179565,0.26800052940105384,0.12357793972335819,0.1015625,,
1.4102199999997391,1200,,,,-0.01953125,0.029296875,-0.986328125,0.014414715154778386,0.6536533879574582,22.523662265505138,0.23535330422630826,1616,0,5.3010183374640505,2.4387797265939737,46.00587229359896,0.2680247751896632,0.12330713578896219,0.1015625,,
1.4180199999995529,1200,,,,-0.0625,0.10546875,-1.0078125,0.014414715154778386,0.6536533879574582,22.52367881702873,0.2347865919435442,1616,0,5.288257787481175,2.4387145544549633,46.11565193035977,0.26803193787620033,0.12360467553318666,0.1015625,,
1.4263349999999628,1200,,,,-0.0625,0.05078125,-0.94140625,0.014414715154778386,0.6536533879574582,22.523497651057035,0.2346725630391404,1616,0,5.285646922379613,2.439581461220025,46.154832077238304,0.2679366925630632,0.12366573052578805,0.1015625,,
1.438769999999553,1200,,,,-0.03125,0.072265625,-1.001953125,0.014414715154778386,0.6536533879574582,22.52352589771527,0.23381737765024108,1616,0,5.266391760841077,2.4399459387011273,46.330505771402244,0.26789666836037435,0.12411788139609758,0.1015625,,
1.4563549999995158,1200,,,,-0.03125,0.048828125,-0.99609375,0.014414715154778386,0.6536533879574582,22.523593342686574,0.2322910342427494,1618,0,5.23202879243577,2.4416756269710556,46.6678553164906,0.26770688978385204,0.12493306399660505,0.103515625,,
1.4643699999991804,1200,,,,-0.0625,-0.0234375,-0.916015625,0.014414715154778386,0.6536533879574582,22.52361314877707,0.231665900975465,1618,0,5.21795313333427,2.4420851973865907,46.80159317234225,0.26766199175072536,0.12527007645616278,0.103515625,,
1.4729099999992177,1200,,,,-0.125,0.0546875,-1.0390625,0.014414715154778386,0.6536533879574582,22.523632095091994,0.23297294208750507,1617,0,5.247396835690138,2.441469830237911,46.52725735610977,0.2677294553722839,0.12456717271917356,0.103515625,,
1.4816899999994784,1200,,,,-0.03125,0.08984375,-0.9609375,0.014414715154778386,0.6536533879574582,22.523506272279874,0.23199535419070408,1617,0,5.225348815254114,2.440385336062326,46.70282161715643,0.2678484329086152,0.12509277582565947,0.103515625,,
1.4894349999995902,1200,,,,0,0.041015625,-0.982421875,0.014414715154778386,0.6536533879574582,22.523533347690186,0.23285091550516396,1616,0,5.24462536042075,2.4399951958519597,46.52372720968216,0.2678912602240701,0.12463299912522614,0.103515625,,
1.498214999999851,1200,,,,0,0.0859375,-1.0078125,0.014414715154778386,0.6536533879574582,22.52365665006133,0.23250663871732596,1617,0,5.236899699328906,2.44031129684186,46.598396703197864,0.26785655944935666,0.12481686216774823,0.103515625,,
1.5068449999997393,1200,,,,-0.0625,-0.02734375,-0.939453125,0.014414715154778386,0.6536533879574582,22.52360867301309,0.23218952988902036,1617,0,5.229746109191171,2.4413186721834994,46.68139946398033,0.26774603225921134,0.12498759486788007,0.103515625,,
1.5152749999994413,1200,,,,-0.03125,0.115234375,-0.98046875,0.014414715154778386,0.6536533879574582,22.52374215285806,0.23311338517579325,1618,0,5.250585780079452,2.441749947767557,46.50433399319891,0.26769874145183475,0.12449151682035126,0.103515625,,
1.5232049999991433,1200,,,,0,0.0546875,-0.96875,0.014414715154778386,0.6431188973459653,22.52368890739531,0.23222186189282323,1617,0,5.230492974770068,2.4415198497835213,46.67858004131723,0.26340924379664077,0.12295569470184342,0.103515625,,
1.5322299999995157,1200,,,,-0.0625,0.109375,-0.994140625,0.013919194241788878,0.6431188973459653,22.523705895848273,0.23223548738290678,1617,0,5.230803816391575,2.356740392980178,45.055033140316766,0.27288491310352586,0.12294838803371819,0.103515625,,
1.5405849999999628,1200,,,,-0.03125,-0.05859375,-0.94140625,0.013919194241788878,0.6431188973459653,22.52372025749615,0.23245882296079884,1617,0,5.235837499755856,2.3564509854098636,45.00619023259876,0.2729184274690551,0.12283018664654002,0.10546875,,
1.5496200000001117,1200,,,,-0.03125,0.0703125,-0.974609375,0.013919194241788878,0.6431188973459653,22.523588937813365,0.23317598013053817,1617,0,5.2519599266319785,2.3564432090015672,44.867882503298674,0.2729193281167412,0.1224531234682116,0.10546875,,
1.5571749999998137,1200,,,,-0.1875,-0.015625,-0.9609375,0.013919194241788878,0.6431188973459653,22.523739877228273,0.23463144204258266,1617,0,5.284777567586094,2.3567636846434015,44.59532410783924,0.27288221620882397,0.12169270875097966,0.10546875,,
1.564484999999404,1200,,,,-0.03125,0.02734375,-0.962890625,0.013919194241788878,0.6431188973459653,22.523656909403055,0.2345284747660777,1617,0,5.282438901116726,2.356888238622316,44.617425449522216,0.2728677952595202,0.12174658512567134,0.10546875,,
1.5736749999998136,1200,,,,0,0.09765625,-0.9453125,0.013919194241788878,0.6431188973459653,22.52355472646825,0.23405651828217494,1617,0,5.271784798615184,2.3569362499205844,44.708506510730764,0.2728622368838507,0.121992630942542,0.10546875,,
1.5814699999997393,1200,,,,-0.0625,-0.046875,-0.98046875,0.013919194241788878,0.6431188973459653,22.523742893052724,0.2334354846796152,1617,0,5.257840839038801,2.3563247670168592,44.81544495454193,0.2729330465596909,0.12231615924371257,0.10546875,,
1.593214999999851,1200,,,,-0.03125,0.087890625,-1,0.013919194241788878,0.6431188973459653,22.523754154809687,0.2331083005331126,1616,0,5.2504740526533205,2.3558846694865188,44.86994213971928,0.27298403256986997,0.12248777746477309,0.10546875,,
1.6096299999998882,1200,,,,-0.03125,0.046875,-0.974609375,0.013919194241788878,0.6431188973459653,22.523904764694954,0.23559446158589983,1616,0,5.306507215850392,2.355152574785839,44.38234942470374,0.27306888913744626,0.12119438854713827,0.107421875,,
1.6170049999998883,1200,,,,-0.0625,0.0390625,-0.935546875,0.013919194241788878,0.6431188973459653,22.523908923613178,0.23545822261993085,1616,0,5.303439561607159,2.3549753494421783,44.40467968166163,0.273089439130775,0.12126449069046691,0.107421875,,
1.6256899999994785,1200,,,,0.0625,0.1484375,-0.95703125,0.013919194241788878,0.6431188973459653,22.52377909280166,0.2356358635109567,1616,0,5.3074101360623525,2.354892293825984,44.36989479718471,0.27309907082887963,0.12117377041886288,0.107421875,,
1.634019999999553,1200,,,,-0.09375,0.056640625,-0.984375,0.013919194241788878,0.6431188973459653,22.523719183992934,0.2374526821585556,1616,0,5.348317532425236,2.3556116402866674,44.04397506328494,0.273015673019726,0.12024695494366767,0.107421875,,
1.6422949999999255,1200,,,,-0.03125,0.064453125,-0.98828125,0.013919194241788878,0.6431188973459653,22.523928865897958,0.23784648381875254,1616,0,5.357237282537532,2.3562200407101215,43.98199886330337,0.2729451775446834,0.12004674488514401,0.107421875,,
1.6504349999995902,1200,,,,-0.125,-0.05859375,-0.96875,0.013919194241788878,0.6431188973459653,22.52393236700779,0.23790222967523675,1617,0,5.358493731165386,2.356460322966538,43.97617019240304,0.27291734602021456,0.12001859657043908,0.107421875,,
1.6594850000003354,1200,,,,0,0.05859375,-0.9765625,0.013919194241788878,0.6431188973459653,22.523936145972367,0.2379623692903778,1617,0,5.359849211040766,2.3573660299333032,43.98194682561889,0.27281249037263894,0.1199882444493407,0.107421875,,
1.6674500000001862,1200,,,,-0.0625,0.06640625,-1.005859375,0.013919194241788878,0.6431188973459653,22.52374583213822,0.23738167169481963,1618,0,5.346724438462197,2.3584134979533937,44.1095015293459,0.27269132317299616,0.12028278336538631,0.107421875,,
1.6754799999995158,1200,,,,-0.0625,0.03125,-0.96484375,0.013919194241788878,0.6348496386167205,22.523758373823657,0.23820966643010524,1618,0,5.365376968980823,2.3588354769876387,43.96402136559866,0.269136887591439,0.11832339876340749,0.107421875,,
1.6845599999995902,1200,,,,-0.0625,0.080078125,-0.990234375,0.013359292339416408,0.6348496386167205,22.523771821846566,0.23644308128360683,1618,0,5.32559001168628,2.2637526002656574,42.50707612298659,0.28044126312310774,0.1192073811960045,0.10546875,,
1.692649999999441,1200,,,,-0.03125,-0.00390625,-0.9765625,0.013359292339416408,0.6348496386167205,22.52397775561553,0.2383639424948705,1618,0,5.3689041384952825,2.26299918854485,42.150113508621715,0.28053462936720736,0.11824566470926912,0.10546875,,
1.701414999999106,1200,,,,0.0625,0.1484375,-1.0078125,0.013359292339416408,0.6348496386167205,22.523758565363938,0.23780027704887916,1617,0,5.35615602702561,2.2626813413211493,42.24450015840307,0.2805740371050394,0.11852709954927627,0.10546875,,
1.7102949999999255,1200,,,,-0.0625,0.037109375,-0.9375,0.013359292339416408,0.6348496386167205,22.523626689164924,0.2372748342965383,1617,0,5.344289790428696,2.262278148217813,42.33075370032176,0.28062404223673604,0.11879027214311962,0.107421875,,
1.7185300000002608,1200,,,,-0.0625,0.115234375,-1.029296875,0.013359292339416408,0.6348496386167205,22.523545908817557,0.23816750716969828,1617,0,5.364376781725334,2.261583711722692,42.159300208500696,0.2807102099851716,0.11834546014356118,0.107421875,,
1.7254199999999256,1200,,,,-0.0625,0.01171875,-0.94140625,0.013359292339416408,0.6348496386167205,22.523567453973293,0.2385149123769236,1616,0,5.372206717700168,2.261319203674473,42.09292982386463,0.2807430448497221,0.11817297285397432,0.107421875,,
1.7334649999989196,1200,,,,-0.0625,0.0546875,-1.03125,0.013359292339416408,0.6348496386167205,22.52384856135685,0.23825091126160028,1616,0,5.366327444861554,2.2612169346591564,42.13714049120038,0.2807557421342302,0.11830244150021282,0.107421875,,
1.7436149999992923,1200,,,,-0.0625,0.060546875,-0.953125,0.013359292339416408,0.6348496386167205,22.523856037306324,0.23732383539225646,1616,0,5.345447902596568,2.2601347874319533,42.28148564190637,0.28089016732407346,0.1187645357666549,0.107421875,,
1.7507299999995156,1200,,,,-0.03125,0.05859375,-0.982421875,0.013359292339416408,0.6348496386167205,22.524028883767464,0.23702556064283206,1615,0,5.338770574110326,2.2596619560376627,42.325511551209935,0.2809489432348257,0.11891307742185839,0.107421875,,
1.7598349999999627,1200,,,,-0.0625,0.12109375,-0.99609375,0.013359292339416408,0.6348496386167205,22.523953458156427,0.23641279697721748,1615,0,5.324950836027431,2.2595158092802627,42.432613536877795,0.28096711517099016,0.11922169014622057,0.107421875,,
1.7671199999991805,1200,,,,-0.0625,0.0078125,-0.978515625,0.013359292339416408,0.6348496386167205,22.52378493546766,0.23652239393182936,1615,0,5.327379533342485,2.259661196443663,42.41599800241592,0.2809490376769181,0.11916733820884833,0.107421875,,
1.7757299999995158,1200,,,,0,0.0859375,-1.015625,0.013359292339416408,0.6348496386167205,22.523519454606276,0.23721285291507202,1615,0,5.342868307515282,2.2597324203754616,42.294368685766045,0.28094018251560876,0.1188218765796156,0.107421875,,
1.7836550000002607,1200,,,,-0.03125,0.029296875,-0.978515625,0.013359292339416408,0.6348496386167205,22.523667499339098,0.2367856439118838,1615,0,5.333281112088178,2.259757891919798,42.37087534722164,0.2809370158133968,0.1190354727744987,0.107421875,,
1.7917749999994412,1200,,,,-0.0625,0.064453125,-0.955078125,0.013359292339416408,0.6348496386167205,22.523491381593566,0.23595360563608345,1615,0,5.314499003000252,2.260040543575208,42.525937859793046,0.28090188046469194,0.11945615913340503,0.10546875,,
1.8004399999994785,1200,,,,-0.0625,0.009765625,-0.953125,0.013359292339416408,0.6348496386167205,22.523371910257193,0.2369620515464406,1616,0,5.337184415598017,2.260308527880543,42.35020474980686,0.2808685764735,0.11894841721439511,0.10546875,,
1.8082049999991432,1200,,,,0,0.08203125,-0.9453125,0.013359292339416408,0.6348496386167205,22.523337757154266,0.23832150221033563,1616,0,5.367795689075776,2.2603978229125534,42.11035504784176,0.2808574810069088,0.11827008243043403,0.10546875,,
1.8165499999998138,1200,,,,-0.0625,0.060546875,-0.966796875,0.013359292339416408,0.6348496386167205,22.523270800303624,0.23851726820890104,1616,0,5.372189022417729,2.2604340412007757,42.07659171648949,0.2808529809078079,0.1181733621001685,0.10546875,,
1.8246699999999254,1200,,,,-0.03125,0.05078125,-0.982421875,0.013359292339416408,0.6314863137805692,22.523306222073316,0.238539841004922,1616,0,5.372705885118539,2.260242658545416,42.068981754722415,0.27938872465444203,0.11753599159962885,0.10546875,,
1.8321900000004099,1200,,,,0,-0.03125,-0.9609375,0.012907376012759344,0.6314863137805692,22.523537533374423,0.23759965787862328,1616,0,5.351584812146093,2.183709375010634,40.804910165198756,0.2891805663368066,0.11799987030894693,0.10546875,,
1.8395700000002981,1200,,,,-0.0625,0.0234375,-0.9765625,0.012907376012759344,0.6314863137805692,22.5235595940214,0.23642786257592638,1616,0,5.325197052415979,2.183680821109587,41.00657308294116,0.28918434767389406,0.118584590873322,0.103515625,,
1.8566049999995158,1200,,,,-0.0625,-0.001953125,-0.970703125,0.012907376012759344,0.6314863137805692,22.52344367600238,0.23456929791208983,1615,0,5.283308369642378,2.1830987706314113,41.320676702790735,0.2892614490355497,0.11952478818178729,0.103515625,,
1.8639799999995157,1200,,,,-0.0625,0.109375,-0.96484375,0.012907376012759344,0.6314863137805692,22.52338123436643,0.23616737410486546,1615,0,5.319287802083123,2.1830447442386043,41.04016976452538,0.28926860773108753,0.11871632768831732,0.10546875,,
1.8712749999994411,1200,,,,-0.0625,-0.03125,-0.99609375,0.012907376012759344,0.6314863137805692,22.523320164425314,0.23701047613810836,1616,0,5.3382628363815,2.1841508999355588,40.9150123716289,0.2891221086414865,0.11829434651977856,0.10546875,,
1.880554999999702,1200,,,,-0.03125,0.001953125,-0.94921875,0.012907376012759344,0.6314863137805692,22.523576935431837,0.23866681401515563,1617,0,5.375630347404759,2.185316186859501,40.65227788429547,0.28896793863412173,0.11747204941006359,0.103515625,,
1.8887349999994039,1200,,,,-0.09375,0.08203125,-0.986328125,0.012907376012759344,0.6314863137805692,22.52359798854425,0.24013320558782328,1617,0,5.408663786360579,2.1857131349788643,40.41133302629637,0.28891545906671584,0.11675458832790349,0.103515625,,
1.9000299999993295,1200,,,,-0.0625,-0.0703125,-0.96875,0.012907376012759344,0.6314863137805692,22.523619867684594,0.24113254911045948,1617,0,5.4311778738897765,2.1861923204831806,40.25263711198328,0.2888521324789035,0.11627060067695823,0.103515625,,
1.9079000000003725,1200,,,,-0.041015625,0.060546875,-0.974609375,0.012907376012759344,0.6314863137805692,22.523645120964567,0.23911547802109287,1618,0,5.385752169876898,2.186727298870505,40.60207803658532,0.28878146539202504,0.11725127593366462,0.103515625,,
1.9166349999997765,1200,,,,-0.0625,0.01171875,-0.9140625,0.012907376012759344,0.6314863137805692,22.523596388710782,0.23889259131183196,1618,0,5.3807203069609395,2.1868687265585236,40.64267610656907,0.28876278951336026,0.11736092525820879,0.103515625,,
1.9258349999999627,1200,,,,-0.03125,0.046875,-1.01171875,0.012907376012759344,0.6314863137805692,22.523692948930616,0.23853621855347792,1618,0,5.3727165438975435,2.1863596339837548,40.693746191897525,0.2888300277616913,0.11753575842332982,0.103515625,,
1.9353149999994785,1200,,,,-0.0625,0.0703125,-0.984375,0.012907376012759344,0.6314863137805692,22.52378078382417,0.24041806563456983,1617,0,5.415123806824101,2.1859032748169063,40.36663523855625,0.28889032788217184,0.11661530489566546,0.103515625,,
1.943769999999553,1200,,,,-0.03125,0.060546875,-1.00390625,0.012907376012759344,0.6314863137805692,22.52364548049586,0.24069847261992552,1617,0,5.421407064988042,2.185733060657833,40.31671177716027,0.28891282524248996,0.11648015104026542,0.103515625,,
1.9521399999996647,1200,,,,-0.0625,-0.05078125,-0.94921875,0.012907376012759344,0.6314863137805692,22.523517964549885,0.24156115782948542,1616,0,5.440807077909885,2.1846843716139484,40.153681987437906,0.2890515087605332,0.11606482360759572,0.103515625,,
1.9603099999995903,1200,,,,-0.03125,0.0703125,-0.994140625,0.012907376012759344,0.6314863137805692,22.523639960980177,0.2407951480283381,1616,0,5.4235832185412125,2.183865008474149,40.266091999996,0.2891599578408851,0.11643341465136046,0.103515625,,
1.9686349999997765,1200,,,,-0.03125,-0.0078125,-0.9609375,0.012907376012759344,0.629747248621373,22.523657572782845,0.24017595714599851,1615,0,5.409641015971838,2.183542828767918,40.363913655657726,0.2884061811495189,0.1164120219367716,0.103515625,,
1.9758799999998882,1200,,,,-0.0625,0.08984375,-0.990234375,0.012907376012759344,0.629747248621373,22.52367432348146,0.2421878620854057,1616,0,5.45496053071192,2.1840794696445824,40.03841012868962,0.28833531809346313,0.11544487720412258,0.103515625,,
1.9839749999996275,1200,,,,-0.0625,0.08984375,-0.9296875,0.012644941608557683,0.629747248621373,22.523590778818715,0.24754514595643992,1616,0,5.575605566805803,2.1402107856086614,38.385261653915066,0.2942454326723137,0.11294687923596208,0.103515625,,
1.9912399999992922,1200,,,,-0.03125,0.08984375,-1.009765625,0.012644941608557683,0.629747248621373,22.52352302975506,0.2499538711115177,1616,0,5.629841772356698,2.140402828067215,38.01888071840472,0.29421903221368617,0.11185878290816612,0.103515625,,
1.9996599999992177,1200,,,,-0.1875,0.02734375,-1.01171875,0.012644941608557683,0.629747248621373,22.52361293701473,0.24962486759848143,1616,0,5.622453897241745,2.1404948183198353,38.07047345234642,0.29420638780881897,0.1120057647658638,0.10546875,,
2.0087349999994037,1200,,,,-0.03125,0.044921875,-0.939453125,0.012644941608557683,0.629747248621373,22.523634129352587,0.2470247621575357,1625,0,5.563895363726676,2.1524206495501286,38.68549835754721,0.2925762902121361,0.11318459594458849,0.10546875,,
2.0176549999993294,1200,,,,-0.03125,0.05859375,-1.017578125,0.012644941608557683,0.629747248621373,22.52380090215745,0.24574701285859438,1629,0,5.535156789926907,2.1567212846501294,38.96405045969094,0.29199287506615984,0.11377225117948087,0.10546875,,
2.0257050000000745,1200,,,,-0.0625,-0.0078125,-0.92578125,0.012644941608557683,0.629747248621373,22.523942130627347,0.24519971446962416,1630,0,5.522864179160163,2.158178745029398,39.07716494591729,0.29179568655829513,0.1140254817414568,0.10546875,,
2.033730000000447,1200,,,,-0.03125,0.119140625,-1.015625,0.012644941608557683,0.629747248621373,22.523749643549284,0.24298849694326888,1630,0,5.473012071412529,2.157955148022589,39.429022261696616,0.2918259210338235,0.11506410736982745,0.10546875,,
2.042014999999665,1200,,,,-0.0625,0,-0.966796875,0.012644941608557683,0.629747248621373,22.523859988168454,0.24183483009405707,1630,0,5.447053853301048,2.1578664616713947,39.615295162974654,0.29183791481405974,0.1156124513510603,0.10546875,,
2.061289999999106,1200,,,,-0.0625,0.025390625,-0.94921875,0.012644941608557683,0.629747248621373,22.524192987523094,0.240720689383184,1626,0,5.422039263756438,2.153687421073042,39.72098533976583,0.2924042005629633,0.11614582963847415,0.10546875,,
2.067734999999404,1200,,,,0.0625,0.12890625,-0.97265625,0.012644941608557683,0.629747248621373,22.524404310508878,0.23948980086443764,1626,0,5.394365102913852,2.15253816391907,39.9034570862907,0.29256031747878913,0.11674168073666444,0.103515625,,
2.0757999999998136,1200,,,,-0.125,-0.02734375,-1.0078125,0.012644941608557683,0.629747248621373,22.52420572555059,0.24269624214522093,1625,0,5.466540086896997,2.1519906066987193,39.366593356864335,0.29263475716905774,0.11520033487559037,0.10546875,,
2.084644999999553,1200,,,,-0.0625,0.091796875,-0.974609375,0.012644941608557683,0.629747248621373,22.523981347532697,0.24666251189914382,1623,0,5.555821817151878,2.1488562860303637,38.67755944577697,0.2930615940746419,0.1133490722609612,0.103515625,,
2.0938300000000747,1200,,,,-0.0625,0.005859375,-0.99609375,0.012644941608557683,0.629747248621373,22.523833042773852,0.2506076021656293,1622,0,5.644643790428525,2.1476758185147706,38.04803098747397,0.29322267503895255,0.11156545426112077,0.10546875,,
2.101639999999665,1200,,,,-0.03125,0.06640625,-0.919921875,0.012644941608557683,0.629747248621373,22.523841254035897,0.24907770933494902,1622,0,5.610186784979287,2.147285805772694,38.27476496008719,0.2932759332401773,0.1122506741321801,0.10546875,,
2.1109550000000743,1200,,,,-0.09375,0.05078125,-0.98828125,0.012644941608557683,0.629747248621373,22.52384891471744,0.2463924456288685,1630,0,5.549706219072366,2.1577473322316703,38.8803883855376,0.2918540272136734,0.11347397929950882,0.10546875,,
2.1199550000000746,1200,,,,0,0.076171875,-0.935546875,0.012644941608557683,0.6312725655224236,22.523858105058025,0.2444916980545657,1633,0,5.506896314845729,2.1624349790622883,39.26776273656547,0.2919267268772015,0.11463309447476099,0.103515625,,
2.1280299999993293,1200,,,,-0.0625,-0.01171875,-1.0625,0.012644941608557683,0.6312725655224236,22.523938774170375,0.24217614290781533,1634,0,5.454760615420367,2.1638983632188227,39.669905166902794,0.291729304967632,0.11572873862472423,0.103515625,,
2.1360099999997764,1200,,,,-0.0625,0.029296875,-0.96875,0.012403830695093307,0.6312725655224236,22.523941860195553,0.24103381318765574,1632,0,5.429031594579994,2.119566031649758,39.04132799237714,0.29783104470261507,0.11627719502547133,0.103515625,,
2.1436999999992548,1200,,,,-0.0625,0.09765625,-0.978515625,0.012403830695093307,0.6312725655224236,22.523771936628098,0.2412260258343469,1631,0,5.433319991071987,2.1184748939931586,38.990431218375306,0.29798444499501453,0.11618542006723853,0.103515625,,
2.1515899999989196,1200,,,,0.0625,-0.04296875,-0.9765625,0.012403830695093307,0.6312725655224236,22.523849495625633,0.24057638745398915,1631,0,5.4187063432149705,2.1179602858239397,39.0860871889827,0.2980568473109224,0.11649875921268019,0.103515625,,
2.1599199999999255,1200,,,,-0.0625,0.162109375,-1.01171875,0.012403830695093307,0.6312725655224236,22.523856889522527,0.23890173579486182,1628,0,5.380988507701989,2.1150376930316006,39.305746332746786,0.2984687070127746,0.11731535286107042,0.10546875,,
2.1691549999993294,1200,,,,-0.0625,-0.064453125,-0.970703125,0.012403830695093307,0.6312725655224236,22.523864705335612,0.23831419960385855,1626,0,5.367756789237656,2.112383321004377,39.35318614359918,0.29884375588719936,0.1176045395328127,0.10546875,,
2.177714999999851,1200,,,,-0.0625,0.123046875,-0.970703125,0.012403830695093307,0.6312725655224236,22.523872102837636,0.23929926854090436,1626,0,5.389946118917927,2.111424917529009,39.173395632253445,0.2989794049893088,0.11712038517541923,0.10546875,,
2.1854500000001864,1200,,,,-0.0625,0.05859375,-0.95703125,0.012403830695093307,0.6312725655224236,22.523813213669715,0.24225110090576948,1625,0,5.456418547607406,2.1110021603597784,38.68842065433993,0.2990392797205076,0.1156935744599782,0.10546875,,
2.1942499999990686,1200,,,,-0.0625,0.068359375,-0.953125,0.012403830695093307,0.6312725655224236,22.523627363701518,0.24431442267709033,1625,0,5.50284701595665,2.1107381942067858,38.35720288218555,0.29907667718101605,0.11471744783962146,0.10546875,,
2.2008649999992924,1200,,,,-0.0625,0.03125,-0.984375,0.012403830695093307,0.6312725655224236,22.523971921811192,0.24203628925038648,1625,0,5.451618583135077,2.1106334254586043,38.715720721695035,0.29909152290870167,0.11579543871159746,0.10546875,,
2.2121200000001116,1200,,,,-0.03125,0.015625,-0.98828125,0.012403830695093307,0.6312725655224236,22.52377454211958,0.2405902248582755,1625,0,5.4189999817456505,2.1105916672114833,38.94799177562624,0.2990974404615469,0.11649244651207187,0.10546875,,
2.2210849999999627,1200,,,,-0.0625,0.1328125,-0.98046875,0.012403830695093307,0.6312725655224236,22.52378976228025,0.238286838790674,1631,0,5.367122660039507,2.1180250682276407,39.462952542471804,0.2980477308753816,0.11761843458926591,0.10546875,,
2.228589999999851,1200,,,,-0.03125,-0.009765625,-0.98046875,0.012403830695093307,0.6312725655224236,22.52379995549437,0.2373737405334553,1632,0,5.346558646462973,2.119923237539917,39.650238175959345,0.29778086033671164,0.11807082036592702,0.10546875,,
2.2365599999995904,1200,,,,0,0.2265625,-0.98828125,0.012403830695093307,0.6312725655224236,22.52374475247113,0.23671083973841747,1633,0,5.331614534411216,2.1206828648977747,39.77562239750266,0.2976741954072673,0.11840176393999884,0.10546875,,
2.2450099999997764,1200,,,,-0.0625,-0.0234375,-0.96484375,0.012403830695093307,0.6312725655224236,22.52365884073309,0.23714307648348934,1629,0,5.341329751155988,2.1159069415667817,39.61386096989894,0.2983460912770485,0.11818640580761776,0.107421875,,
2.2541249999990685,1200,,,,-0.03125,0.07421875,-1.013671875,0.012403830695093307,0.6312725655224236,22.52367772707298,0.23796027621451868,1627,0,5.359740573301088,2.113917762205196,39.440673168687056,0.29862683251400135,0.11778043300584977,0.10546875,,
2.262464999999851,1200,,,,-0.0625,0.025390625,-0.93359375,0.012403830695093307,0.6312725655224236,22.523842634159603,0.23693849140946047,1626,0,5.336765294481864,2.1124494086743435,39.58295506940477,0.298834406604121,0.11828748889803155,0.107421875,,
2.270824999999255,1200,,,,-0.0625,0.23828125,-0.98046875,0.012403830695093307,0.627619908639239,22.523948034337895,0.23719723780353594,1625,0,5.342618258175332,2.1105386174078857,39.50382594111636,0.29737428325763926,0.11747421925174015,0.107421875,,
2.278870000000112,1200,,,,-0.0625,-0.015625,-0.962890625,0.012403830695093307,0.627619908639239,22.523885090616844,0.23589880273847438,1624,0,5.313357525895487,2.109778883088779,39.707075475467974,0.29748136815190074,0.11812115137752997,0.107421875,,
2.2877249999996274,1200,,,,-0.03125,0.09765625,-1.009765625,0.012023001168279002,0.627619908639239,22.523891443175266,0.2357095997026402,1624,0,5.309097435816565,2.0446958760900342,38.513059909128415,0.3069502491683037,0.11821593335340776,0.107421875,,
2.2961100000003354,1200,,,,-0.125,0.10546875,-1,0.012023001168279002,0.627619908639239,22.524091921519847,0.23661012452443017,1622,0,5.329428194350522,2.041606601588147,38.30817354387772,0.3074147135648069,0.11776496197182083,0.107421875,,
2.303664999999106,1200,,,,-0.03125,0.021484375,-1.021484375,0.012023001168279002,0.627619908639239,22.52408747372122,0.23619910064440833,1621,0,5.320169204128935,2.0403860625256027,38.35190168279004,0.3075986060512328,0.11796991497040148,0.107421875,,
2.3107949999989943,1200,,,,-0.03125,0.021484375,-0.921875,0.012023001168279002,0.627619908639239,22.523889964409722,0.23853449127254747,1620,0,5.372724634139311,2.0399012066935525,37.967723000945064,0.30767171791448633,0.11681594561002125,0.107421875,,
2.3194249999998138,1200,,,,0,-0.0390625,-0.9765625,0.012023001168279002,0.627619908639239,22.524030530640317,0.23844727491710063,1619,0,5.3707937001807595,2.0385651310088644,37.95649665225932,0.3078733659731718,0.11685794384880502,0.107421875,,
2.3276650000000374,1200,,,,-0.03125,0.115234375,-1.005859375,0.012023001168279002,0.627619908639239,22.524224106512037,0.238473344818142,1619,0,5.3714270621133515,2.038061080352945,37.942637157416485,0.3079495088197012,0.11684416475950549,0.107421875,,
2.3358250000001863,1200,,,,-0.0625,0.0078125,-0.927734375,0.012023001168279002,0.627619908639239,22.52427913390241,0.23978811867478558,1619,0,5.401054518024188,2.0378597971127372,37.730776282891995,0.30797992557115944,0.11620321671347149,0.107421875,,
2.3448300000000746,1200,,,,-0.0625,0.1640625,-1.02734375,0.012023001168279002,0.627619908639239,22.524263946393383,0.23938703698843397,1619,0,5.3920168064725225,2.0377768779390957,37.792480088210574,0.30799245758151006,0.1163979882046826,0.107421875,,
2.353094999999739,1200,,,,-0.03125,-0.009765625,-0.958984375,0.012023001168279002,0.627619908639239,22.524186434977967,0.23884106482608433,1618,0,5.379700672471382,2.03774881252997,37.87847942837028,0.3079966994852602,0.1166644664545837,0.107421875,,
2.3644199999999254,1200,,,,-0.0625,0.01171875,-1.0078125,0.012023001168279002,0.627619908639239,22.524176191228516,0.23908749735455506,1618,0,5.38524891553388,2.0377370088694997,37.83923530426975,0.30799848356654785,0.11654427093032864,0.107421875,,
2.3739699999997392,1200,,,,0,0.046875,-0.970703125,0.012023001168279002,0.627619908639239,22.52400982694349,0.23883054274923068,1618,0,5.3794214918579195,2.037618965375555,37.87803146601572,0.30801632655767996,0.11667052109398375,0.107421875,,
2.3808799999998884,1200,,,,-0.0625,0.169921875,-1.0078125,0.012023001168279002,0.627619908639239,22.524009399784045,0.2379734905493386,1618,0,5.360117138032723,2.03750668098983,38.012353620645655,0.308033300943258,0.11709070762389885,0.109375,,
2.3895,1200,,,,-0.125,-0.10546875,-0.9609375,0.012023001168279002,0.627619908639239,22.524139639199642,0.2374910850540762,1618,0,5.349282362823051,2.0374558329571153,38.088395690555025,0.30804098841658145,0.11732787055720431,0.109375,,
2.3975750000001863,1200,,,,0,0.009765625,-0.953125,0.012023001168279002,0.627619908639239,22.52413262019148,0.23658371810851989,1618,0,5.328843042454299,2.0369951981415855,38.22584343192456,0.308110647100119,0.11777789355758109,0.109375,,
2.405984999999404,1200,,,,-0.09375,0.0546875,-0.966796875,0.012023001168279002,0.627619908639239,22.52422469595425,0.2357393662291075,1617,0,5.309846454626266,2.035948667945623,38.342891557095385,0.30826902393002853,0.11819925754960726,0.111328125,,
2.413864999999292,1200,,,,0,-0.02734375,-0.953125,0.012023001168279002,0.627619908639239,22.524084633812716,0.23537078002773268,1617,0,5.301511369671166,2.035540814698118,38.395481453515686,0.308330790572882,0.1183850915098892,0.111328125,,
2.4217449999991802,1200,,,,-0.0625,0.095703125,-0.98046875,0.012023001168279002,0.626114183881785,22.52398255273831,0.23586595539197233,1617,0,5.312640664033737,2.0353775942827603,38.31197558799988,0.30761573952690535,0.11785366703239329,0.111328125,,
2.4293349999999627,1200,,,,-0.09375,0.001953125,-0.9453125,0.012023001168279002,0.626114183881785,22.524084071362502,0.2350403259514181,1616,0,5.294068061890187,2.0351236908570147,38.44158531899185,0.30765411787728775,0.11826712021118933,0.111328125,,
2.4380649999994786,1200,,,,0.0625,0.0703125,-1.04296875,0.011866468497791022,0.626114183881785,22.523984135406472,0.23522938722496653,1616,0,5.298302986036532,2.0085332314555284,37.908991553501906,0.31172707231139873,0.11817258951250695,0.111328125,,
2.445649999999441,1200,,,,-0.0625,0.0234375,-1.02734375,0.011866468497791022,0.626114183881785,22.523852014523758,0.23401084913963105,1616,0,5.270825735814094,2.0084944426965796,38.10587834557504,0.3117330924954773,0.11878863298922551,0.111328125,,
2.454079999999143,1200,,,,-0.125,0.10546875,-0.98046875,0.011866468497791022,0.626114183881785,22.523663259684657,0.23467954322769954,1616,0,5.285843005597314,2.008479580912297,37.9973370148426,0.31173539917064513,0.1184511502174349,0.111328125,,
2.462019999999553,1200,,,,-0.03125,0.013671875,-1.001953125,0.011866468497791022,0.626114183881785,22.523679772569515,0.2339326692944371,1616,0,5.269024531530307,2.0084736119864974,38.118509412275735,0.3117363256082421,0.11882924061846031,0.111328125,,
2.470719999998808,1200,,,,-0.03125,0.08984375,-0.982421875,0.011866468497791022,0.626114183881785,22.52369734516251,0.23385252122021355,1616,0,5.267223411367284,2.008471116951043,38.13149661767769,0.3117367128645876,0.11886987412201984,0.11328125,,
2.4789949999991805,1200,,,,0,0.03125,-0.96484375,0.011866468497791022,0.626114183881785,22.523580413444794,0.23453515280513815,1617,0,5.282571373986092,2.0093918888776705,38.03813988719352,0.3115938644658787,0.11852451004544313,0.111328125,,
2.4879249999988824,1200,,,,-0.03125,-0.01953125,-0.939453125,0.011866468497791022,0.626114183881785,22.52353076832303,0.23418638253166346,1617,0,5.274704192474189,2.009771304956153,38.10206661112186,0.31153504000070537,0.11870128845805389,0.111328125,,
2.496019999999553,1200,,,,-0.03125,0.080078125,-1.005859375,0.011866468497791022,0.626114183881785,22.523356472536726,0.2349052780504906,1617,0,5.290855314811557,2.0099015802116895,37.988216661019685,0.3115148473169719,0.11833893513001595,0.111328125,,
2.5052599999997764,1200,,,,-0.0625,-0.001953125,-0.96875,0.011866468497791022,0.626114183881785,22.523281943062788,0.23548719188947057,1617,0,5.303944416906674,2.009955709526634,37.89548968725553,0.3115064580349591,0.11804689767977292,0.111328125,,
2.516789999999106,1200,,,,-0.0625,0.041015625,-1.017578125,0.011866468497791022,0.626114183881785,22.523466376973236,0.23650593285972463,1617,0,5.326933426720697,2.009974911063828,37.73230769097831,0.3115034821755057,0.1175374523625736,0.111328125,,
2.525364999999292,1200,,,,-0.03125,0.001953125,-0.912109375,0.011866468497791022,0.626114183881785,22.523504426973606,0.23714649833700627,1617,0,5.341370205134849,2.0099828108882214,37.63047183952825,0.311502257875082,0.11721976942917739,0.111328125,,
2.533964999999851,1200,,,,-0.03125,0.025390625,-0.9921875,0.011866468497791022,0.626114183881785,22.52352964150452,0.23735010417877636,1618,0,5.345962106884856,2.010734116156181,37.612202929134774,0.3113858659138364,0.11711908378015568,0.11328125,,
2.5430299999993293,1200,,,,0,0.0390625,-0.8984375,0.011866468497791022,0.626114183881785,22.523358786835583,0.23763906245858304,1618,0,5.352429865521897,2.0110143851542093,37.57198946423041,0.31134246900664164,0.11697755965285025,0.111328125,,
2.551589999999851,1200,,,,0,0.0703125,-1.0078125,0.011866468497791022,0.626114183881785,22.523320553589816,0.2373533336796286,1618,0,5.345985218929441,2.011133884849163,37.6195182457295,0.31132396932824996,0.11711857744477029,0.111328125,,
2.560219999999739,1200,,,,-0.03125,-0.0078125,-0.96875,0.011866468497791022,0.626114183881785,22.52342997995377,0.23685272631449547,1619,0,5.334735796705693,2.011564089114134,37.706911190546975,0.31125738785559515,0.11736554681272558,0.111328125,,
2.5678099999995903,1200,,,,-0.03125,0.072265625,-1.04296875,0.011866468497791022,0.6250864043507728,22.52366904653681,0.2366234882914122,1619,0,5.329629138912846,2.0117170190024867,37.7459100167867,0.31072282952635305,0.11728515963463075,0.111328125,,
2.5771450000004843,1200,,,,-0.0625,0.015625,-0.93359375,0.011866468497791022,0.6250864043507728,22.523544048020593,0.23593756809127506,1619,0,5.3141502074866915,2.0117747053498936,37.85694093696601,0.31071391974881,0.11762678508223899,0.111328125,,
2.5859199999989944,1200,,,,0,0.044921875,-0.984375,0.012509180207591623,0.6250864043507728,22.5237831136162,0.23592624715681224,1619,0,5.31395162176945,2.120217415413106,39.89907259838982,0.2948218422349767,0.11763118086924365,0.111328125,,
2.5940400000000374,1200,,,,-0.0625,0.033203125,-0.958984375,0.012509180207591623,0.6250864043507728,22.52385988653214,0.23532638172451595,1618,0,5.300458449567575,2.11977540598824,39.992303046186066,0.2948833176311701,0.11793063001970498,0.111328125,,
2.601859999999404,1200,,,,-0.125,-0.02734375,-1.0234375,0.012509180207591623,0.6250864043507728,22.52393193723898,0.23645936742171367,1618,0,5.325994697729263,2.119603352092999,39.79732373741737,0.2949072541018263,0.11736519464003188,0.111328125,,
2.6092249999996273,1200,,,,-0.03125,0.048828125,-0.98046875,0.012509180207591623,0.6250864043507728,22.52384803844942,0.2362862369889708,1618,0,5.322075295516624,2.119056948651525,39.81636543993735,0.2949832965784852,0.11745162735246391,0.11328125,,
2.616984999999404,1200,,,,-0.03125,0.01953125,-0.935546875,0.012509180207591623,0.6250864043507728,22.523855408442266,0.23767842786298995,1617,0,5.353434542891861,2.118548187061983,39.57362642782158,0.2950541357370053,0.11676362143640007,0.11328125,,
2.6248749999990686,1200,,,,0,0.15234375,-1.05859375,0.012509180207591623,0.6250864043507728,22.523796980177607,0.23699568119599393,1617,0,5.338042608437463,2.1183439533195667,39.68390866665717,0.2950825824914913,0.1171003025271367,0.11328125,,
2.6331049999995155,1200,,,,-0.0625,0.046875,-0.970703125,0.012509180207591623,0.6250864043507728,22.523807066374104,0.23757903436765734,1617,0,5.351184333112577,2.1182630673373417,39.58493924849025,0.29509385023480905,0.11681272134147996,0.11328125,,
2.642124999999069,1200,,,,-0.0625,0.103515625,-1.00390625,0.012509180207591623,0.6250864043507728,22.523744770644186,0.23741853081298422,1618,0,5.347554391852979,2.1190486297247073,39.62649978751196,0.2949844546191372,0.11689201428284571,0.11328125,,
2.649344999999739,1200,,,,0,-0.05078125,-0.90625,0.012509180207591623,0.6250864043507728,22.523821207428366,0.23822318986414173,1618,0,5.36569653596319,2.119313331515721,39.49745046726325,0.2949476111225679,0.1164967866075125,0.11328125,,
2.6572799999993295,1200,,,,0,0.037109375,-0.958984375,0.012509180207591623,0.6250864043507728,22.523731967546382,0.23794127587197764,1618,0,5.3593255217564355,2.119420698597058,39.54640728564013,0.294932669462248,0.11663527468395135,0.11328125,,
2.668139999999665,1200,,,,-0.03125,0.046875,-0.96484375,0.012509180207591623,0.6250864043507728,22.52374528895948,0.2370228470112419,1619,0,5.338642233745223,2.1204393524909064,39.71870111632022,0.2947909845270868,0.11708715006217138,0.11328125,,
2.6854999999990685,1200,,,,-0.0625,-0.017578125,-0.931640625,0.012509180207591623,0.6250864043507728,22.523775306440136,0.23669664194885617,1619,0,5.331301979044949,2.120564698371044,39.77573783488668,0.2947735595291886,0.11724835824489367,0.11328125,,
2.6989500000001865,1200,,,,-0.0625,0.08203125,-0.98046875,0.012509180207591623,0.6250864043507728,22.523794022867563,0.23598393149985328,1618,0,5.3152534658091835,2.1192698998046113,39.871473927574556,0.2949536556945405,0.11760236992867674,0.11328125,,0.21633499999996275,5156,
2.7068849999997764,1200,,,,-0.01953125,0.03515625,-1,0.012509180207591623,0.6250864043507728,22.523670205686667,0.23510643388100186,1618,0,5.295459779970764,2.119029814954101,40.01597411746937,0.29498707377286826,0.11804195109083122,0.11328125,,
2.71425,1500,,,,-0.0625,0.16015625,-0.9921875,0.012509180207591623,0.6250864043507728,22.523946671328076,0.2341305418349046,1618,0,5.273543838418538,2.1195986122840864,40.1930594914657,0.2949079135682098,0.11853251314551078,0.11328125,,
2.7232599999997764,1500,,,,-0.03125,0.0625,-0.95703125,0.012509180207591623,0.6246391987050969,22.523846814338434,0.23404546055264705,1619,0,5.271604101079111,2.120523509345909,40.2253938020845,0.2945683912260758,0.11849129538715392,0.11328125,,
2.731984999999404,1500,,,,-0.03125,0.099609375,-1.001953125,0.01308411119628301,0.6246391987050969,22.523927393061427,0.23443016530308658,1619,0,5.280288022030111,2.2183633771050424,42.01216615172725,0.281576591622356,0.11829642551675469,0.11328125,,
2.7398899999996646,1500,,,,-0.34375,0.15234375,-0.9375,0.01308411119628301,0.6246391987050969,22.50176153832897,0.9063955136567925,1847,0,20.395495707716346,2.5308505909142975,12.408870209302076,0.2468099859183861,0.030626330816209267,0.12109375,,
2.747709999999963,1500,,,,0.4375,-0.4609375,-0.703125,0.01308411119628301,0.6246391987050969,22.484763794863873,1.402202764029787,1932,0,31.528197941715003,2.6472826378264043,8.396555498415534,0.23595485792856913,0.019812080597179833,0.130859375,,
2.7560649999994786,1500,,,,-0.1875,-0.23828125,-1.28515625,0.01308411119628301,0.6246391987050969,22.470316558684992,1.7979858153752026,2023,0,40.401310439506155,2.772403274698631,6.862161757970243,0.22530603841282693,0.015460864806362757,0.13671875,,
2.7638099999995904,1500,,,,0.0625,-0.046875,-1.171875,0.01308411119628301,0.6246391987050969,22.459499875855286,2.1031159856172064,2087,0,47.23493321787891,2.8597987140518857,6.054414644476352,0.2184206866154161,0.013224094037009552,0.138671875,,
2.7720400000000374,1500,,,,-0.03125,0.095703125,-1.056640625,0.01308411119628301,0.6246391987050969,22.45043620078148,2.3146602188705754,2271,0,51.96513157024074,3.112318261119515,5.989243492846017,0.20069901157229703,0.012020352490800074,0.142578125,,
2.779985000000335,1500,,,,0.125,0.12890625,-1.05078125,0.01308411119628301,0.6246391987050969,22.444594586842822,2.4844921221649416,2499,0,55.763418436196886,3.4239756027178263,6.140182396879871,0.18243097240800468,0.011201594454253078,0.142578125,,
2.788249999999069,1500,,,,0.03125,0.091796875,-1.033203125,0.01308411119628301,0.6246391987050969,22.440162392575257,2.601343209835995,2821,0,58.37456406754271,3.864604179299424,6.6203563847223865,0.16163083454987404,0.010700537274802665,0.14453125,,
2.7963449999997394,1500,,,,-0.15625,-0.162109375,-1.05078125,0.01308411119628301,0.6246391987050969,22.436998513160393,2.696897579992234,5927,0,60.51028699243162,8.12135743191486,13.42144920405128,0.0769131520120546,0.010322859628532655,0.1484375,,
2.8050349999992177,1500,,,,-0.125,-0.01953125,-0.83203125,0.01308411119628301,0.6246391987050969,22.43448636516824,2.767114793508203,5561,0,62.07879910581511,7.6191128218100435,12.273292865770559,0.08198319322914342,0.01006203740572335,0.150390625,,
2.8124399999994782,1500,,,,-0.0625,0.08203125,-0.9765625,0.01308411119628301,0.6246391987050969,22.432812637432264,2.800802853158977,4741,0,62.82988563930103,6.496225011298029,10.339386973568743,0.09615418148520782,0.009941752915023225,0.150390625,,
2.8212649999996646,1500,,,,0.0625,0.2109375,-1.052734375,0.01308411119628301,0.6246391987050969,22.43198977587336,2.8143407374094536,4513,0,63.13126264739276,6.183279586784168,9.794322697646107,0.10102069459064564,0.009894292819611357,0.150390625,,
2.8305099999997765,1500,,,,-0.125,0.005859375,-0.9375,0.01308411119628301,0.6246391987050969,22.431300708729534,2.8253216374340906,3816,0,63.375639248164205,5.228388488409187,8.249839450038584,0.11947069352054834,0.009856140405292887,0.154296875,,
2.8397799999993296,1500,,,,-0.1875,0.10546875,-1.021484375,0.01308411119628301,0.6246391987050969,22.431198953256384,2.8211876268623453,3700,0,63.2826209426145,5.07027856572057,8.012118477707117,0.12319622888734229,0.009870627818521105,0.154296875,,
2.848359999999404,1500,,,,0.09375,0.177734375,-0.935546875,0.01308411119628301,0.6246391987050969,22.431316642666772,2.811872813471078,3664,0,63.074009437876036,5.020491694159097,7.959683772923882,0.12441793289526004,0.009903274015271338,0.15625,,
2.8562599999997764,1500,,,,-0.0625,-0.12890625,-0.83984375,0.01308411119628301,0.6246391987050969,22.43187261937169,2.7939627700847876,3656,0,62.673816961808825,5.009196100499188,7.992486086417255,0.12469849176853925,0.009966509604572666,0.15625,,
2.8646899999994786,1500,,,,-0.03125,0.259765625,-1.10546875,0.01308411119628301,0.6246391987050969,22.432173293175264,2.7730413998097485,3697,0,62.20534522968159,5.065804554128001,8.143680475405235,0.12330503319479502,0.010041567913476464,0.158203125,,
2.8736549999993293,1500,,,,-0.125,-0.3046875,-0.8359375,0.01308411119628301,0.638562259967423,22.43304107132888,2.7470254037852615,3735,0,61.62413370709857,5.1169195034029045,8.303434378037316,0.124794275059977,0.010362210737152579,0.16015625,,
2.8821899999994787,1500,,,,0,0.076171875,-1.05078125,0.013607690063756223,0.638562259967423,22.434012050244554,2.720642214424221,3757,0,61.034920222797,5.353408881205741,8.771059029264043,0.11928142873772056,0.010462244525534995,0.162109375,,
2.8903199999993667,1500,,,,-0.15625,0.119140625,-0.8828125,0.013607690063756223,0.638562259967423,22.43479856926252,2.6924006028572833,3781,0,60.403465192864125,5.387907782380912,8.919865383844606,0.11851766692362407,0.010571616345660593,0.162109375,,
2.8980849999999627,1500,,,,0.03125,-0.041015625,-1.021484375,0.013607690063756223,0.638562259967423,22.435633520007258,2.6633789908585084,3799,0,59.75459496378826,5.4141244019134165,9.060599281435039,0.11794377309500821,0.010686412657543685,0.1640625,,
2.906339999999851,1500,,,,-0.25,-0.1953125,-0.921875,0.013607690063756223,0.638562259967423,22.436305893827836,2.6334367237681615,3813,0,59.08459188650227,5.433231801338223,9.195683050117557,0.1175289925620591,0.010807593648003195,0.1640625,,
2.916429999999702,1500,,,,0.09375,0.28515625,-0.95703125,0.013607690063756223,0.638562259967423,22.43740772692383,2.6005089593594826,3822,0,58.3486798186671,5.445878950041513,9.333337047155005,0.11725605101129827,0.010943902449068472,0.166015625,,
2.926504999998957,1500,,,,-0.03125,0.177734375,-0.921875,0.013607690063756223,0.638562259967423,22.438043119318557,2.574184294720188,3841,0,57.75965820200421,5.473100892652363,9.475646260771072,0.11667284643422025,0.011055506210479366,0.16796875,,
2.935759999998845,1500,,,,-0.0625,0.1640625,-0.927734375,0.013607690063756223,0.638562259967423,22.43901188424362,2.5476450093574057,3859,0,57.16663664180477,5.499123380986637,9.619462861604216,0.11612073702060745,0.01117019117231843,0.16796875,,
2.9442000000001864,1500,,,,0.125,0.19140625,-1.029296875,0.013607690063756223,0.638562259967423,22.440280986624686,2.5132648702190017,3867,0,56.39836988152722,5.509861372768332,9.769540120295279,0.11589443304752127,0.01132235313376634,0.169921875,,
2.952110000000335,1500,,,,-0.3125,-0.15234375,-0.9140625,0.013607690063756223,0.638562259967423,22.44125635319182,2.4862171319257818,3878,0,55.7938360072438,5.525650606734145,9.903693673288107,0.11556327126242893,0.011445032384661945,0.171875,,
2.961609999999404,1500,,,,0.09375,-0.044921875,-1.0625,0.013607690063756223,0.638562259967423,22.442283876821552,2.457247191358511,3884,0,55.146239023990155,5.534739375616479,10.036476600351138,0.11537350119513037,0.011579434450455098,0.173828125,,
2.9695449999999255,1500,,,,-0.25,-0.07421875,-0.908203125,0.013607690063756223,0.638562259967423,22.443350135365307,2.4310147560160402,3888,0,54.560115353507655,5.5406743389067445,10.15517343210774,0.11524991741229473,0.011703828993579466,0.17578125,,
2.9813099999995902,1500,,,,0.125,0.138671875,-0.984375,0.013607690063756223,0.638562259967423,22.44426189617387,2.400464496728046,3892,0,53.876653837031476,5.546588093350823,10.294975092789524,0.11512703831981376,0.01185229992009108,0.177734375,,
2.9892199999997393,1500,,,,0,-0.03515625,-1.06640625,0.013607690063756223,0.638562259967423,22.445393486372556,2.3678932923912037,3889,0,53.14829668146279,5.541845236902529,10.427136113348725,0.11522556705757646,0.012014726714471406,0.1796875,,
2.9969399999994786,1500,,,,-0.25,-0.095703125,-0.892578125,0.013607690063756223,0.638562259967423,22.445998573932247,2.351331470918846,3895,0,52.777982843086434,5.550300167909544,10.516317352277508,0.11505004065535612,0.012099027389241542,0.1796875,,
3.005320000000298,1500,,,,0.3125,0.23828125,-1.05078125,0.013607690063756223,0.638562259967423,22.44636108605026,2.3363989469078508,3891,0,52.44365440336119,5.545164562937381,10.573566289426969,0.11515659322996977,0.012176158721816622,0.18359375,,
3.0131599999992176,1500,,,,-0.125,-0.0390625,-0.94921875,0.013607690063756223,0.638562259967423,22.44693051070544,2.317065181705697,3895,0,52.011001122522856,5.549686439127958,10.67021652987318,0.11506276381044737,0.01227744604383129,0.18359375,,
3.0211699999999255,1500,,,,0.15625,0.080078125,-1.068359375,0.013607690063756223,2.5672605741529915,22.44796949998318,2.2951724033235856,3905,0,51.52196010701095,5.564580929036692,10.800406113197315,0.46135739724023034,0.04982847253522186,0.18359375,,
3.0292050000000743,1500,,,,-0.3125,-0.03515625,-0.859375,0.013607690063756223,2.5672605741529915,22.448557762672635,2.2736998758832514,3904,0,51.04128299874677,5.563043315687118,10.899105564849748,0.4614849154443258,0.050297728100134664,0.185546875,,
3.0383949999995528,1500,,,,0.15625,0.095703125,-1.0390625,0.059404915575697645,2.5672605741529915,22.44929871184758,2.2498142754527253,3908,0,50.50675271581716,24.30945316518102,48.13109506754737,0.10560749995932187,0.050830046203881256,0.185546875,,
3.0470099999997764,1500,,,,-0.1875,-0.00390625,-0.951171875,0.059404915575697645,2.5672605741529915,22.44973777944862,2.2282822383075676,3909,0,50.02435194860773,24.319805626550785,48.61593339886865,0.10556254493046699,0.05132021653754663,0.1875,,
3.0547449999991803,1500,,,,0.25,0.26171875,-0.984375,0.059404915575697645,2.5672605741529915,22.450363392644146,2.2100462507243814,3907,0,49.6163414433131,24.30197520224239,48.97978064345496,0.10563999645247377,0.05174223853417525,0.1875,,
3.0625099999997767,1500,,,,-0.21875,-0.09375,-0.935546875,0.059404915575697645,2.5672605741529915,22.45103993912739,2.1930071996716975,3902,0,49.2352922266232,24.273230478438396,49.30047000982972,0.10576509692162551,0.052142689888713324,0.189453125,,
3.070125,1500,,,,0.375,0.1484375,-1.0859375,0.059404915575697645,2.5672605741529915,22.451426810668906,2.177332944743407,3902,0,48.8842312513648,24.272800312898543,49.65364022620457,0.10576697130362629,0.052517151409255634,0.19140625,,
3.0775649999994785,1500,,,,-0.28125,0.046875,-0.96484375,0.059404915575697645,2.5672605741529915,22.451972679552703,2.164398855574594,3903,0,48.59502397301593,24.282620447782314,49.9693558362397,0.1057241980812435,0.05282970074422747,0.19140625,,
3.0858349999999626,1500,,,,0,0.099609375,-1.009765625,0.059404915575697645,2.5672605741529915,22.45251917141319,2.1524344754248728,3902,0,48.32757632468765,24.276128429598845,50.23245582708362,0.10575247126402743,0.053122063413751884,0.193359375,,
3.0944849999994037,1500,,,,-0.375,-0.09765625,-0.93359375,0.059404915575697645,2.5672605741529915,22.452890344288193,2.138361206537765,3905,0,48.01238968687223,24.290062715011278,50.59123878945934,0.10569180509222903,0.05347079349509952,0.1953125,,
3.103570000000298,1500,,,,0.09375,0.185546875,-0.98828125,0.059404915575697645,2.5672605741529915,22.453295300703935,2.1244828914437375,3905,0,47.70164172287958,24.29204428394038,50.92496485773772,0.10568318352071436,0.05381912406846225,0.197265625,,
3.112584999999963,1500,,,,-0.09375,0.052734375,-1.080078125,0.059404915575697645,2.5672605741529915,22.454080431019975,2.1143688023177236,3904,0,47.47620714808154,24.28338153192864,51.14852889614183,0.1057208844977981,0.054074677156612995,0.197265625,,
3.1206349999997767,1500,,,,-0.21875,0.0546875,-0.923828125,0.059404915575697645,2.5672605741529915,22.45456507912691,2.1025793360128944,3902,0,47.21250453452898,24.276778011355084,51.420229133576676,0.10574964161027446,0.05437670802393927,0.19921875,,
3.1316699999999256,1500,,,,0.3125,0.3828125,-1.1171875,0.059404915575697645,2.5672605741529915,22.454934536202042,2.0902844718941354,3902,0,46.93720097842247,24.274013962719835,51.71593843842298,0.10576168317674219,0.05469564696312395,0.201171875,,
3.1416299999998882,1500,,,,-0.08203125,0.015625,-0.984375,0.059404915575697645,2.5672605741529915,22.455551291796475,2.078169555909174,3903,0,46.66644305576836,24.27758639109885,52.02364868924361,0.10574612042547415,0.05501299019265315,0.201171875,,
3.149195000000298,1500,,,,-0.15625,0.078125,-0.94140625,0.059404915575697645,2.5672605741529915,22.45593419596495,2.0645661225058185,3902,0,46.36176099020917,24.276199128872687,52.362547518415916,0.10575216328241609,0.055374526750507906,0.203125,,
3.156374999999069,1500,,,,0.0625,0.14453125,-0.953125,0.059404915575697645,2.5672605741529915,22.45622165075596,2.057035186505774,3901,0,46.19323809157778,24.26667417088906,52.53295757872731,0.10579367226320385,0.055576544971006676,0.203125,,
3.1654049999993292,1500,,,,-0.09375,0.013671875,-0.900390625,0.059404915575697645,2.5672605741529915,22.45654004410864,2.050310001462389,3899,0,46.04286865067658,24.253374498114745,52.675637311226374,0.10585168568409103,0.05575805003877112,0.203125,,
3.173,1500,,,,0.0625,0.19140625,-1.12109375,0.059404915575697645,3.702132496943638,22.456772157794568,2.04215036118526,3901,0,45.860105373095266,24.264848649422568,52.91058197973095,0.1525718355153119,0.08072664610830935,0.205078125,,
3.1804749999996274,1500,,,,-0.0625,0.060546875,-0.89453125,0.059404915575697645,3.702132496943638,22.45712450783375,2.032005883970586,3902,0,45.63300913697823,24.274777983880007,53.195654731016184,0.15250942766199915,0.08112838857132595,0.20703125,,
3.1887149999989197,1500,,,,-0.0625,-0.046875,-0.953125,0.0774478402641041,3.702132496943638,22.45742550127851,2.0241949562144383,3903,0,45.45820742924947,31.652538708273482,69.62997552760315,0.11696162924132078,0.08144035381741759,0.20703125,,
3.1979799999995158,1500,,,,-0.03125,0.115234375,-0.93359375,0.0774478402641041,3.702132496943638,22.457639997661843,2.023286766392833,3901,0,45.43824581168358,31.640111800615458,69.63321588545965,0.11700756685921776,0.08147613163340264,0.208984375,,
3.2057549999998884,1500,,,,0.09375,0.171875,-1.037109375,0.0774478402641041,3.702132496943638,22.457695805403652,2.0220816610257546,3907,0,45.41129483700174,31.687272212921457,69.77839395828511,0.11683342359251674,0.08152448658933835,0.2109375,,
3.214454999999143,1500,,,,-0.25,-0.107421875,-0.912109375,0.0774478402641041,3.702132496943638,22.45771098729838,2.020821119295093,3907,0,45.38301665415803,31.689453618464594,69.82667957036563,0.11682538113520849,0.08157528454214041,0.212890625,,
3.2231699999999255,1500,,,,0.0625,0.0859375,-0.912109375,0.0774478402641041,3.702132496943638,22.45813224591861,2.0114532926031714,3913,0,45.173484051770444,31.732619287970728,70.24611883290649,0.11666646435162226,0.08195366318659107,0.21484375,,
3.239254999998957,1500,,,,0.125,0.064453125,-1.0390625,0.0774478402641041,3.702132496943638,22.459091606077312,1.9951460682549422,3907,0,44.80916831444272,31.690019722043164,70.72217788034453,0.11682329419216117,0.08261997792425843,0.216796875,,
3.2465849999999628,1500,,,,-0.0625,0.0859375,-1.013671875,0.0774478402641041,3.702132496943638,22.45940290444556,1.9902361209519106,3907,0,44.699514915439806,31.690491317218463,70.8967231012884,0.11682155571163866,0.08282265487549782,0.21875,,
3.2541249999990685,1500,,,,0.0625,-0.0078125,-0.91796875,0.0774478402641041,3.702132496943638,22.45943050156436,1.985428721048153,3907,0,44.5915983761908,31.690692932627876,71.06875305359938,0.11682081249577293,0.08302309474782925,0.21875,,
3.2617099999999626,1500,,,,-0.4375,0.0546875,-0.9375,0.0774478402641041,3.702132496943638,22.459701838708895,1.9790728382890623,3910,0,44.44938586505968,31.711066475400777,71.34196762958628,0.11674575813511326,0.0832887209776676,0.21875,,
3.268774999999441,1500,,,,0.1875,0.033203125,-1.041015625,0.0774478402641041,3.702132496943638,22.459801824850064,1.9744625462082133,3908,0,44.34603749842533,31.69310434922168,71.4677254993686,0.1168119240119359,0.08348282520338136,0.220703125,,
3.276229999999516,1500,,,,-0.15625,0.017578125,-0.962890625,0.0774478402641041,3.702132496943638,22.460360297314235,1.9704204973378374,3905,0,44.256354307420935,31.671600617981195,71.56396208774585,0.11689123456683759,0.08365199878930972,0.22265625,,
3.2861199999991806,1500,,,,0.1875,0.10546875,-1,0.0774478402641041,3.702132496943638,22.46053014681562,1.9658743763849156,3907,0,44.154580695645755,31.689757653379434,71.77003417111936,0.11682426030004171,0.08384481153749737,0.220703125,,
3.304375,1500,,,,-0.09375,-0.08203125,-0.95703125,0.0774478402641041,3.702132496943638,22.4605449144448,1.9549953256351267,3906,0,43.9102603189574,31.675021004791517,72.13580783786983,0.11687861221571445,0.08431133111149684,0.22265625,,
3.321969999999739,1500,,,,-0.21875,-0.14453125,-0.91796875,0.0774478402641041,4.1684206041139245,22.46085332341813,1.942427416925696,3902,0,43.62857730295402,31.650366785588368,72.54503525478327,0.13170212630875314,0.09554335396198416,0.224609375,,
3.3364849999994037,1500,,,,0.375,0.15234375,-1.1171875,0.0774478402641041,4.1684206041139245,22.461100814339186,1.9359502217840254,3901,0,43.4835731030333,31.63759154357971,72.7575709305562,0.13175530755468748,0.0958619613488742,0.2265625,,
3.3573150000004097,1500,,,,-0.0625,0.111328125,-0.98828125,0.08095061506796297,4.1684206041139245,22.461142043741674,1.930704727965402,3901,0,43.36583313935452,33.069266492954576,76.2564998732705,0.12605119635786322,0.09612223039088992,0.228515625,,
3.364294999998994,1500,,,,-0.1875,0.03515625,-0.82421875,0.08095061506796297,4.1684206041139245,22.46115034662352,1.9293400212254888,3901,0,43.33519628650352,33.06960377745383,76.31118954399003,0.12604991073270333,0.09619018629926347,0.23046875,,
3.3724249999998137,1500,,,,-0.03125,-0.01171875,-1.048828125,0.08095061506796297,4.1684206041139245,22.461290476615176,1.9265766409607508,3901,0,43.273397558080966,33.07341173658994,76.42896930429198,0.12603539777852119,0.09632755548068825,0.23046875,,
3.3809999999990685,1500,,,,-0.25,0.0390625,-0.890625,0.08095061506796297,4.1684206041139245,22.461541484876697,1.924767080986228,3902,0,43.23323563829719,33.07497633834076,76.50358769132247,0.12602943571215378,0.09641703986692643,0.232421875,,
3.3903549999995155,1500,,,,0.375,0.26171875,-1.08984375,0.08095061506796297,4.1684206041139245,22.461679281221695,1.9218718379832649,3900,0,43.16846884439216,33.05998481212813,76.58364008994222,0.12608658557473776,0.09656169689825417,0.234375,,
3.3987949999999256,1500,,,,-0.21875,-0.060546875,-0.92578125,0.08095061506796297,4.1684206041139245,22.461695271771283,1.916868241487189,3899,0,43.056110316421325,33.05500863060944,76.7719340824953,0.12610556695646732,0.09681368273817607,0.232421875,,
3.4076849999995904,1500,,,,0.125,0.1171875,-1.07421875,0.08095061506796297,4.1684206041139245,22.462117035070563,1.9134935493034757,3900,0,42.981116050307236,33.06068891716311,76.91910298110275,0.12608390026470176,0.09698260508719683,0.234375,,
3.4154049999993292,1500,,,,-0.15625,0.14453125,-0.951171875,0.08095061506796297,4.1684206041139245,22.462015976734648,1.9165390623667953,3899,0,43.049331038919,33.05539110271925,76.78491234355147,0.12610410783404757,0.09682892866199104,0.234375,,
3.422969999999739,1500,,,,0.25,0.171875,-1.00390625,0.08095061506796297,4.1684206041139245,22.462112686941342,1.9167488116114766,3901,0,43.05422779897789,33.06776386111769,76.80491684931049,0.12605692424867315,0.09681791585199173,0.236328125,,
3.431544999998994,1500,,,,-0.21875,-0.00390625,-0.93359375,0.08095061506796297,4.1684206041139245,22.462195161439897,1.914559047832701,3901,0,43.00519898051867,33.072374122750595,76.90319986132923,0.1260393520175636,0.09692829478599126,0.236328125,,
3.442054999999702,1500,,,,-0.0625,0.060546875,-0.90234375,0.08095061506796297,4.1684206041139245,22.46206274650962,1.9112694474264342,3900,0,42.93105425357933,33.06061060265672,77.00861573857188,0.12608419893427356,0.09709569626435126,0.23828125,,
3.451429999999702,1500,,,,0.125,0.12109375,-1.046875,0.08095061506796297,4.1684206041139245,22.462182094652384,1.9081135860493321,3900,0,42.86039482712026,33.062797278703975,77.14067360336873,0.12607586009665428,0.09725576772979988,0.23828125,,
3.459644999999553,1500,,,,-0.34375,0.01953125,-0.88671875,0.08095061506796297,4.1684206041139245,22.462060657459663,1.9064064989337715,3897,0,42.821818416825685,33.032444231774136,77.13928425513785,0.12619170942561653,0.09734338144024392,0.240234375,,
3.466609999999404,1500,,,,0.375,0.2421875,-1.1328125,0.08095061506796297,4.3610736785039315,22.462089401585434,1.9040047211661513,3898,0,42.76792426787483,33.043960014299365,77.26341780660223,0.1319779371666329,0.10197066500559056,0.2421875,,
3.4749249999998137,1500,,,,-0.28125,0.01171875,-0.869140625,0.08095061506796297,4.3610736785039315,22.462385467868025,1.9047392285366826,3899,0,42.78498676716053,33.04876749673572,77.24384180972142,0.13195873882239878,0.10192999947007715,0.2421875,,
3.4837299999995155,1500,,,,0.0625,0.06640625,-1.025390625,0.08095061506796297,4.3610736785039315,22.462366445591883,1.9028487261553029,3899,0,42.74248537742813,33.05062237154705,77.32498959688652,0.13195133300298562,0.10203135451751173,0.2421875,,
3.4917799999993293,1500,,,,-0.3125,0.03515625,-0.828125,0.08106544559861117,4.3610736785039315,22.462250013243946,1.9009569818659733,3900,0,42.69977099109513,33.10553552723296,77.53094398126161,0.13173246132558306,0.10213342079547491,0.244140625,,
3.4998499999996273,1500,,,,0.0625,0.150390625,-1.00390625,0.08106544559861117,4.3610736785039315,22.462237825358983,1.8983102442337136,3900,0,42.64029617229297,33.10869239347231,77.64648786606189,0.13171990082470783,0.10227587681104551,0.244140625,,
3.508859999999404,1500,,,,-0.03125,-0.0078125,-1.072265625,0.08106544559861117,4.3610736785039315,22.462261274905387,1.8987107576634201,3901,0,42.64933712410931,33.11514673477393,77.64516160804342,0.13169422782368062,0.1022541960221617,0.248046875,,
3.516804999999702,1500,,,,-0.0625,0.0703125,-0.8984375,0.08106544559861117,4.3610736785039315,22.462019652618373,1.896603120530203,3901,0,42.60153656656675,33.117349287882504,77.73745258257343,0.13168546916584384,0.10236892915093719,0.24609375,,
3.5247949999989943,1500,,,,-0.0625,0.046875,-0.931640625,0.08106544559861117,4.3610736785039315,22.46221555371988,1.8980105733571124,3901,0,42.63352262198692,33.113343035867196,77.66973264083511,0.13170140126837002,0.10229212624937642,0.24609375,,
3.532644999999553,1500,,,,-0.21875,0.015625,-0.98828125,0.08106544559861117,4.3610736785039315,22.46243294355886,1.8976417308361446,3904,0,42.62565012980587,33.140953288205615,77.74885119003004,0.1315916787479971,0.10231101848824266,0.24609375,,
3.5407949999999255,1500,,,,0.1875,0.24609375,-1.0625,0.08106544559861117,4.3610736785039315,22.46221515123689,1.8970755061781301,3901,0,42.61251817791479,33.11905275828411,77.72141655652976,0.1316786959558525,0.10234254780005442,0.248046875,,
3.5493300000000745,1500,,,,-0.09375,-0.056640625,-0.8828125,0.08106544559861117,4.3610736785039315,22.462095749596653,1.8946121245471217,3896,0,42.55695894992419,33.075522385050455,77.72059658672904,0.13185199700655548,0.10247615868501102,0.248046875,,
3.5569249999998136,1500,,,,0.15625,0.01171875,-1.0625,0.08106544559861117,4.3610736785039315,22.46199382987206,1.8932485241777144,3902,0,42.5261366684942,33.12587371597081,77.89532817005772,0.13165158195967366,0.10255043180856031,0.248046875,,
3.5647749999994414,1500,,,,-0.4375,-0.125,-0.7734375,0.08106544559861117,4.3610736785039315,22.46181613814493,1.894089914930301,3903,0,42.54469941827899,33.13103525764598,77.87347357168424,0.13163107173047006,0.10250568785615231,0.25,,
3.573769999999553,1500,,,,0.15625,0.130859375,-1.017578125,0.08106544559861117,4.3610736785039315,22.461789478330854,1.890767544765855,3902,0,42.470022542991146,33.12574174618715,77.99793775163398,0.13165210644697187,0.10268592803522403,0.248046875,,
3.582844999999739,1500,,,,-0.25,-0.12109375,-0.904296875,0.08106544559861117,4.3610736785039315,22.461693403552008,1.8888856687822833,3900,0,42.427570766550936,33.10858051901388,78.03553189784797,0.13172034590849996,0.10278867254738318,0.25,,
3.594084999999963,1500,,,,0,0.09375,-1.05078125,0.08106544559861117,4.3610736785039315,22.461823127040653,1.8862876334283858,3898,0,42.3694591887925,33.09435576938664,78.10898794323225,0.13177696247944692,0.10292965173502888,0.251953125,,
3.609799999999814,1500,,,,0.125,0.056640625,-0.97265625,0.08106544559861117,4.3610736785039315,22.461888832849816,1.8792431471398265,3899,0,42.21135066094961,33.09956003682206,78.4138851719876,0.13175624309363612,0.1033151891663687,0.25390625,,
3.6184949999991805,1500,,,,0,0.01953125,-1.052734375,0.08106544559861117,4.442933756003005,22.46159376599885,1.8802396330521693,3898,0,42.23317882034857,33.091659847628414,78.35465094492096,0.13426143555387168,0.10520007918187618,0.255859375,,
3.626660000000149,1500,,,,-0.25,-0.08203125,-0.828125,0.08106544559861117,4.442933756003005,22.461515033701314,1.879028364012144,3898,0,42.20582384700995,33.088617799362886,78.39822750363639,0.1342737790663638,0.10526826279017801,0.255859375,,
3.6344949999991805,1500,,,,0.25,0.3046875,-1.18359375,0.0811185601415076,4.442933756003005,22.46157113928423,1.8795851306046818,3898,0,42.218435123417905,33.109114102140026,78.42335701300051,0.13419065645479877,0.10523681758963585,0.2578125,,
3.642570000000298,1500,,,,-0.21875,-0.0859375,-0.890625,0.0811185601415076,4.442933756003005,22.46159217013308,1.8779975193700778,3898,0,42.182814376612285,33.11228293693166,78.49709277646097,0.13417781445227975,0.1053256834960337,0.2578125,,
3.6506699999999257,1500,,,,0.25,0.171875,-1.0703125,0.0811185601415076,4.442933756003005,22.461579519935356,1.8798869073061086,3899,0,42.2252292569415,33.122057025034124,78.44139062806654,0.1341382195147171,0.10521988475107263,0.259765625,,
3.658155000000261,1500,,,,-0.125,-0.06640625,-0.896484375,0.0811185601415076,4.442933756003005,22.461111219770213,1.8832135122678515,3901,0,42.29906814962231,33.13562930027392,78.33654676047466,0.13408327681787163,0.10503620884240866,0.259765625,,
3.6656899999994783,1500,,,,0.15625,0.1171875,-1.078125,0.0811185601415076,4.442933756003005,22.46089260696936,1.889191023671951,3900,0,42.4329166967462,33.12707089561646,78.06927610553974,0.1341179173372348,0.10470488719300539,0.259765625,,
3.6733999999994413,1500,,,,-0.375,0.05078125,-0.85546875,0.0811185601415076,4.442933756003005,22.460783200864565,1.8963970695289307,3901,0,42.5945634414442,33.13764887468423,77.79783661884309,0.1340751051109489,0.10430753122075817,0.26171875,,
3.6810849999999626,1500,,,,0.15625,0.05078125,-1.033203125,0.0811185601415076,4.442933756003005,22.461035756521,1.8943233389318006,3903,0,42.54846425015942,33.15630159278046,77.92596554799562,0.13399967857001344,0.10442054335689352,0.259765625,,
3.689589999999851,1500,,,,-0.4375,-0.13671875,-0.8203125,0.0811185601415076,4.442933756003005,22.461050634944687,1.891967059191873,3909,0,42.49556791615605,33.208226869304504,78.14515371302835,0.1337901530692613,0.10455052076887016,0.26171875,,
3.6978250000001864,1500,,,,0.09375,0.060546875,-1.046875,0.0811185601415076,4.442933756003005,22.46099818642319,1.8913498098540633,3908,0,42.481604649023964,33.19887188056014,78.14881795272039,0.13382785330740712,0.10458488545123927,0.259765625,,
3.706419999998994,1500,,,,-0.21875,-0.056640625,-0.95703125,0.0811185601415076,4.442933756003005,22.460944263244738,1.8896577345945582,3906,0,42.44349705333769,33.1822399212236,78.17979720079215,0.13389493194403893,0.10467878625598831,0.259765625,,
3.7147149999998508,1500,,,,0.375,0.05078125,-1.13671875,0.0811185601415076,4.442933756003005,22.46089786170336,1.8877766541407475,3910,0,42.40115861436344,33.210727954972086,78.32504827762399,0.13378007739025904,0.10478331020176314,0.26171875,,
3.7239699999997393,1500,,,,-0.21875,0.0859375,-0.955078125,0.0811185601415076,4.442933756003005,22.460922131413643,1.8891334609412271,3905,0,42.431679562048856,33.16800047080334,78.16801223317353,0.13395241476536907,0.10470793996042503,0.26171875,,
3.7340649999994784,1500,,,,0,0.08203125,-1.033203125,0.0811185601415076,4.442933756003005,22.461017701690015,1.8884933210932835,3904,0,42.417481914599605,33.160688903574645,78.17693886293877,0.13398194979972408,0.10474298698230361,0.259765625,,
3.7408200000002982,1500,,,,0.0625,0.091796875,-0.990234375,0.0811185601415076,4.442933756003005,22.460891429094143,1.884628834668873,3901,0,42.33044363963778,33.13509862888887,78.27722976628932,0.134085424213267,0.10495835559452274,0.26171875,,
3.7497900000000373,1500,,,,-0.1875,0.09765625,-0.83984375,0.0811185601415076,4.442933756003005,22.461109659345997,1.8849705582610097,3899,0,42.33853041373918,33.12009345902258,78.22683767095245,0.1341461720662102,0.1049383082640308,0.26171875,,
3.7576299999998883,1500,,,,-0.03125,0.0703125,-1.052734375,0.0811185601415076,4.442933756003005,22.461122262504,1.8857652380884384,3903,0,42.35640357108438,33.15156001759741,78.26811821254137,0.1340188441703685,0.10489402738234559,0.263671875,,
3.767074999999255,1500,,,,-0.28125,-0.017578125,-0.888671875,0.0811185601415076,4.476935846885455,22.461057675399903,1.88653593601106,3902,0,42.37359246545896,33.146932484738635,78.2254478700585,0.1350633531156075,0.10565391288300258,0.263671875,,
3.776109999999404,1500,,,,0.1875,0.197265625,-1.01171875,0.0811185601415076,4.476935846885455,22.461143768255212,1.8851208120619847,3899,0,42.34196958025425,33.12249917321227,78.22616543718507,0.13516298463692514,0.1057328199719181,0.265625,,
3.7848849999997767,1500,,,,-0.15625,0.04296875,-0.97265625,0.08114203016773677,4.476935846885455,22.46108190489128,1.8867019816157842,3901,0,42.37736773919281,33.14354901880242,78.2104948631567,0.13507714108545463,0.10564450048993841,0.267578125,,
3.793214999999851,1500,,,,0.0625,0.1015625,-1.03515625,0.08114203016773677,4.476935846885455,22.46116764387527,1.8850274650391934,3901,0,42.33991790555456,33.146427215642376,78.28647020426534,0.1350654119600773,0.10573794349039416,0.265625,,
3.7999499999992548,1500,,,,-0.15625,0.220703125,-0.958984375,0.08114203016773677,4.476935846885455,22.46111738168633,1.8845134459622546,3900,0,42.328277717124394,33.13715397378957,78.28609090887616,0.13510320923838445,0.10576702120517081,0.267578125,,
3.8070999999996276,1500,,,,0.1875,0.09375,-1.0078125,0.08114203016773677,4.476935846885455,22.461244632702243,1.8845841803586267,3903,0,42.33010630595576,33.16753647958181,78.35448425253591,0.1349794504527489,0.10576245224915866,0.265625,,
3.8157799999993296,1500,,,,-0.1875,0.064453125,-0.994140625,0.08114203016773677,4.476935846885455,22.461248994632037,1.8848702987225556,3904,0,42.33654110219379,33.17036583329491,78.34925803982624,0.13496793702503304,0.10574637725077332,0.267578125,,
3.8249099999992175,1500,,,,-0.0625,0.080078125,-0.90234375,0.08114203016773677,4.476935846885455,22.46140122235236,1.8838593330846725,3902,0,42.314120326887966,33.15989865346898,78.36603572826243,0.13501054070372157,0.10580240856479872,0.267578125,,
3.8336549999993292,1500,,,,-0.125,-0.0078125,-0.97265625,0.08114203016773677,4.476935846885455,22.461489595504748,1.8834444443327667,3903,0,42.30496779009166,33.163933917765256,78.39252846691129,0.13499411312260667,0.10582529855829387,0.267578125,,
3.8422549999998883,1500,,,,0,0.076171875,-0.962890625,0.08114203016773677,4.476935846885455,22.4614166345498,1.8832564632987352,3902,0,42.30060805186164,33.1579799065007,78.38653256673796,0.13501835333484055,0.10583620550788811,0.267578125,,
3.851109999999404,1500,,,,0.0625,0.115234375,-1.05078125,0.08114203016773677,4.476935846885455,22.46126393576604,1.8834155683115539,3899,0,42.303894180576606,33.13212834775556,78.31933440058536,0.1351237022836395,0.10582798424597502,0.267578125,,
3.85905999999959,1500,,,,-0.28125,-0.0390625,-0.951171875,0.08114203016773677,4.476935846885455,22.461395538578614,1.8832325289122636,3899,0,42.300030723016036,33.13324951664265,78.32913818337816,0.1351191299433735,0.10583765000552334,0.26953125,,
3.867799999999814,1500,,,,0.3125,0.140625,-1.09765625,0.08114203016773677,4.476935846885455,22.461613999451828,1.8824295365457966,3902,0,42.28240563105868,33.15446608666209,78.41196732266428,0.13503266302594777,0.10588176760682952,0.26953125,,
3.8762999999998136,1500,,,,-0.25,0.01171875,-0.845703125,0.08114203016773677,4.476935846885455,22.46153523007233,1.8869016609358864,3901,0,42.382708132793404,33.14695074643164,78.20866623854165,0.1350632787049774,0.10563118885320708,0.26953125,,
3.884469999999739,1500,,,,0.09375,0.125,-1.044921875,0.08114203016773677,4.476935846885455,22.461160626063542,1.8959791274108218,3901,0,42.58589172443826,33.14380293022378,77.82812943001952,0.13507610627273386,0.10512720681897401,0.271484375,,
3.8919249999998136,1500,,,,-0.375,-0.1796875,-0.96875,0.08114203016773677,4.476935846885455,22.460874085732154,1.9025355223121554,3905,0,42.732610810285976,33.180863686862956,77.6476397245453,0.1349252354952404,0.1047662607548386,0.2734375,,
3.901864999999292,1500,,,,0.15625,0.171875,-0.984375,0.08114203016773677,4.476935846885455,22.460928381534977,1.8986104791369178,3912,0,42.64455399632612,33.23746813693623,77.94070994340726,0.13469545358992951,0.10498259278948371,0.2734375,,
3.917995000000112,1500,,,,-0.15625,-0.04296875,-0.8984375,0.08114203016773677,4.4913145667181995,22.460996344585805,1.8901960424600708,3909,0,42.45568640024621,33.21410425044231,78.23240434112896,0.13522311283340988,0.10578829239449426,0.275390625,,
3.9270299999993297,1500,,,,0.125,0.099609375,-1.06640625,0.08114203016773677,4.4913145667181995,22.461344652046467,1.8880519439074657,3909,0,42.40818543307189,33.2143897636237,78.32070489326233,0.13522195044622118,0.1059067847598983,0.2734375,,
3.9346699999999255,1500,,,,-0.3125,-0.08984375,-0.84765625,0.08101661174404204,4.4913145667181995,22.461541751880386,1.8840945264176032,3908,0,42.3196678696183,33.158261364001454,78.35189412676391,0.13545084639432373,0.10612830376068612,0.275390625,,
3.9429949999991805,1500,,,,0.1875,0.107421875,-1.044921875,0.08101661174404204,4.4913145667181995,22.461464763249406,1.8815931052246477,3907,0,42.263337231776454,33.14651672682098,78.42853616845754,0.1354988400058335,0.10626975674181553,0.2734375,,
3.9509549999991433,1500,,,,-0.375,-0.23046875,-0.87109375,0.08101661174404204,4.4913145667181995,22.461329603572906,1.8828620530167204,3904,0,42.29158517086852,33.12027452948341,78.31410053718551,0.13560619984354497,0.1061987756801305,0.275390625,,
3.959290000000037,1500,,,,0.15625,0.076171875,-1.052734375,0.08101661174404204,4.4913145667181995,22.46146123981753,1.8830224758007,3905,0,42.295436353902666,33.13413882850467,78.33974935559999,0.13554945821783085,0.1061891058207224,0.275390625,,
3.976649999999441,1500,,,,0,0.0390625,-1.048828125,0.08101661174404204,4.4913145667181995,22.461347926212117,1.8799886616844048,3905,0,42.2270794274273,33.126734117825364,78.44902978610668,0.1355797571454966,0.10636100406700172,0.275390625,,
3.9848549999995155,1500,,,,-0.125,0.08203125,-0.98046875,0.08101661174404204,4.4913145667181995,22.46128182846736,1.8794374555651383,3901,0,42.21457436842617,33.09767482244645,78.40343132110652,0.13569879427518708,0.10639251097311593,0.275390625,,
3.9928499999996276,1500,,,,0.03125,0.091796875,-1.01953125,0.08101661174404204,4.4913145667181995,22.461514187569623,1.8804071628429235,3901,0,42.23679216660387,33.095943513600375,78.3580897504071,0.13570589292529306,0.1063365453749925,0.275390625,,
4.001054999999702,1500,,,,0.03125,0.04296875,-1.029296875,0.08101661174404204,4.4913145667181995,22.461440202014668,1.877501397487827,3901,0,42.171385368871796,33.09647643772197,78.48088496080486,0.13570370776990595,0.1065014707824467,0.275390625,,
4.010609999999404,1500,,,,-0.25,0.05859375,-0.8203125,0.08101661174404204,4.4913145667181995,22.461499950742855,1.8762312085794672,3901,0,42.14296719908991,33.093052569012485,78.52568238177386,0.1357177479276649,0.10657328767337462,0.27734375,,
4.019620000000112,1500,,,,-0.03125,0.0546875,-1.01171875,0.08101661174404204,4.4913145667181995,22.461327227903265,1.8757748157814795,3900,0,42.13239194312778,33.09153537161047,78.5417913520764,0.1357239703834153,0.10660003763329602,0.27734375,,
4.027189999999479,1500,,,,-0.28125,-0.041015625,-0.912109375,0.08101661174404204,4.4913145667181995,22.461327612070782,1.8758660133375458,3900,0,42.134441081923754,33.091063817147635,78.53685243577172,0.13572590447789779,0.10659485331692306,0.27734375,,
4.035455000000074,1500,,,,0.1875,0.185546875,-1.013671875,0.08101661174404204,4.4913145667181995,22.46127053779233,1.8763070463238465,3900,0,42.144240179445966,33.086396312016966,78.50751649843109,0.1357450513607901,0.10657006859287606,0.279296875,,
4.04311999999918,1500,,,,-0.5,-0.0546875,-0.8515625,0.08101661174404204,4.4913145667181995,22.46105594529024,1.8783800160243649,3900,0,42.19039862643844,33.08408069158871,78.41613677206811,0.1357545524261785,0.10645347550482104,0.279296875,,
4.05331500000041,1500,,,,0.125,0.125,-1.103515625,0.08101661174404204,4.4913145667181995,22.46100967151304,1.8792905316354882,3900,0,42.21076280664758,33.087905817510205,78.38736762250443,0.13573885852701456,0.1064021180401621,0.279296875,,
4.061319999999367,1500,,,,-0.125,0.1328125,-0.912109375,0.08101661174404204,4.4913145667181995,22.460943046265545,1.8788814051605247,3900,0,42.20144823199792,33.08992067530741,78.40944342336104,0.1357305933365304,0.10642560279039906,0.279296875,,
4.070125,1500,,,,0.1875,0.10546875,-1.0078125,0.08101661174404204,4.4972308400180685,22.46099598163096,1.8789176505384393,3900,0,42.202361798559366,33.08677652091761,78.40029588592141,0.13592230228819355,0.10656348716890028,0.279296875,,
4.078384999999776,1500,,,,-0.21875,-0.00390625,-0.9140625,0.08101661174404204,4.4972308400180685,22.460946857756916,1.8787373939558327,3900,0,42.19822076532268,33.08678448214583,78.408008399576,0.1359222695830369,0.10657394455156191,0.279296875,,
4.087660000000149,1500,,,,-0.0625,0.0625,-0.98828125,0.08081474749607621,4.4972308400180685,22.460889552999205,1.8807622172125293,3901,0,42.24359243626452,33.01510186728963,78.1541056601697,0.136217384943882,0.10645947895656162,0.28125,,
4.096230000000447,1500,,,,0.09375,0.1953125,-1.001953125,0.08081474749607621,4.4972308400180685,22.4608458162475,1.8797433596304773,3901,0,42.22062577477522,33.01100398285816,78.18691309540145,0.13623429455079206,0.10651738948656099,0.279296875,,
4.104099999999628,1500,,,,-0.3125,-0.015625,-0.8203125,0.08081474749607621,4.4972308400180685,22.460804358408378,1.8779273571600121,3900,0,42.17975896847393,33.00939662941569,78.25885551903612,0.1362409283182852,0.10662059125040038,0.28125,,
4.112064999999478,1500,,,,0.0625,0.12890625,-1.0546875,0.08081474749607621,4.4972308400180685,22.460473004167703,1.878643917910962,3900,0,42.19523100268301,33.00876480740355,78.2286623938726,0.13624353611103263,0.10658149589777359,0.28125,,
4.120035000000149,1500,,,,-0.25,0.01953125,-0.865234375,0.08081474749607621,4.4972308400180685,22.460384645825098,1.8771003490910825,3900,0,42.16039585939828,33.00851370381128,78.29270345063213,0.13624457254792427,0.10666955915252768,0.28125,,
4.129129999998957,1500,,,,0.375,0.1640625,-1.11328125,0.08081474749607621,4.4972308400180685,22.460363478517973,1.8769991217541555,3899,0,42.158082523457345,33.00068703680917,78.27843455272692,0.13627688523580828,0.10667541241980696,0.283203125,,
4.1370349999992175,1500,,,,-0.25,-0.013671875,-0.9375,0.08081474749607621,4.4972308400180685,22.46054055501816,1.8782346714452292,3900,0,42.186166009836775,33.00772571426451,78.24300911006684,0.1362478250985514,0.10660439820412751,0.28125,,
4.145915000000037,1500,,,,0.125,0.146484375,-1.021484375,0.08081474749607621,4.4972308400180685,22.46051086576767,1.8783102117416337,3902,0,42.18780692010534,33.01970625337331,78.26836392777076,0.13619839030393038,0.10660025178684589,0.283203125,,
4.153604999999516,1500,,,,-0.0625,0.056640625,-1.017578125,0.08081474749607621,4.4972308400180685,22.460615407849808,1.878899065663306,3901,0,42.201229304031855,33.017703784718854,78.23872510169836,0.13620665050909633,0.1065663468620429,0.28515625,,
4.161509999999777,1500,,,,-0.0625,0.0234375,-0.9375,0.08081474749607621,4.4972308400180685,22.460585183409567,1.8805351940384898,3899,0,42.23792091610114,32.99746608878676,78.1228464211838,0.13629018749249727,0.1064737738619071,0.28515625,,
4.169164999999106,1500,,,,-0.0625,0.080078125,-0.951171875,0.08081474749607621,4.4972308400180685,22.46055696919694,1.8835279750591236,3903,0,42.3050873868916,33.0329108852224,78.08259697735024,0.1361439461282823,0.1063047287644075,0.28515625,,
4.176819999999367,1500,,,,0.125,-0.01953125,-1.0625,0.08081474749607621,4.4972308400180685,22.460708746450063,1.8819193797189897,3904,0,42.26924307216819,33.03949209255004,78.16438074403231,0.1361168273235088,0.10639487516584441,0.283203125,,
4.185039999999106,1500,,,,-0.1875,0.052734375,-0.943359375,0.08081474749607621,4.4972308400180685,22.46067365588356,1.8836338512916497,3903,0,42.30768522103685,33.02784656983065,78.06583224129704,0.13616482172125846,0.10629820129657883,0.28515625,,
4.193474999999627,1500,,,,-0.125,0.01171875,-0.912109375,0.08081474749607621,4.4972308400180685,22.460248093054574,1.8831170644494284,3902,0,42.2952764557988,33.02331927089426,78.07803149225349,0.1361834891013451,0.10632938750779783,0.28515625,,
4.203955000000074,1500,,,,0.15625,0.033203125,-1.0625,0.08081474749607621,4.4972308400180685,22.46037949496916,1.8806856432921635,3901,0,42.24091325908219,33.01632498897617,78.16195825708705,0.1362123386391323,0.10646623126812065,0.283203125,,
4.211969999998808,1500,,,,-0.4375,-0.08984375,-0.7578125,0.08081474749607621,4.497710524450994,22.460417956263893,1.8796106882590002,3901,0,42.21684165335798,33.0136332662577,78.20014945062039,0.1362379744203428,0.10653829960520604,0.28515625,,
4.220089999999851,1500,,,,0.15625,0.185546875,-1.009765625,0.08081474749607621,4.497710524450994,22.460397868320253,1.8799241536506104,3901,0,42.223844453257925,33.017672383423594,78.19674596417761,0.13622130815947686,0.10652063029054566,0.28515625,,
4.227790000000037,1500,,,,-0.25,-0.078125,-0.888671875,0.08081474749607621,4.497710524450994,22.460377741395625,1.8818890474941257,3901,0,42.26793887411328,33.011927302601315,78.10157812738593,0.13624501481610188,0.10640950669126636,0.287109375,,
4.236219999999739,1500,,,,0.3125,0.1171875,-1.18359375,0.08070265752018889,4.497710524450994,22.460613551105915,1.8820902155778494,3899,0,42.2729010004117,32.94972477481368,77.94526515815127,0.1365022183095436,0.10639701600813227,0.287109375,,
