Time (s),ESC signal (µs),Servo 1 (µs),Servo 2 (µs),Servo 3 (µs),AccX (g),AccY (g),AccZ (g),Torque (N·m),Thrust (N),Voltage (V),Current (A),Motor Electrical Speed (RPM),Motor Optical Speed (RPM),Electrical Power (W),Mechanical Power (W),Motor Efficiency (%),Propeller Mech. Efficiency (N/W),Overall Efficiency (N/W),Vibration (g),App message,90% settling time (s),Max acceleration (RPM/s),
0,1000,,,,-0.0625,0.05078125,-0.958984375,-0.0023983327906595365,0.004535264970617081,22.450727116008196,0.06851638345782834,0,0,1.5382426279874821,0,0,0,0,0.06640625,,
0,1200,,,,-0.0625,0.046875,-0.955078125,-0.0023983327906595365,0.004535264970617081,22.45092296261288,0.06807631784103257,0,0,1.528376167427371,0,0,0,0,0.06640625,,
0.008539999999979045,1200,,,,-0.0625,0.046875,-0.95703125,-0.0023983327906595365,0.004535264970617081,22.450926925076992,0.06799524412981205,0,0,1.5265562572111806,0,0,0,0,0.06640625,,
0.01674500000005355,1200,,,,-0.0625,0.052734375,-0.953125,-0.0023983327906595365,0.004535264970617081,22.451135441078733,0.06700174439260158,0,0,1.5042652381468355,0,0,0,0,0.06640625,,
0.024415000000037254,1200,,,,-0.0625,0.05078125,-0.9609375,-0.0023983327906595365,0.004535264970617081,22.45125757706854,0.06711716065377797,0,0,1.506864661679459,0,0,0,0,0.06640625,,
0.032520000000076835,1200,,,,-0.0625,0.048828125,-0.955078125,-0.0023983327906595365,0.004535264970617081,22.451294109124255,0.06777691790648034,0,0,1.5216795177283604,0,0,0,0,0.06640625,,
0.03942000000004191,1200,,,,0,-0.017578125,-0.9765625,-0.0023983327906595365,0.004535264970617081,22.449951536762818,0.11658137802398974,0,0,2.6172462867275956,0,0,0,0,0.06640625,,
0.04693000000005122,1200,,,,-0.25,0.0390625,-1,-0.0023983327906595365,0.004535264970617081,22.448668437949372,0.1516696212283444,0,0,3.404781039064471,0,0,0,0,0.068359375,,
0.05508000000007451,1200,,,,0.125,0.064453125,-1.083984375,-0.0023983327906595365,0.004535264970617081,22.447540600336506,0.18887309143902006,0,0,4.239736388388472,0,0,0,0,0.068359375,,
0.06256500000006053,1200,,,,-0.3125,0.171875,-0.9296875,-0.0023983327906595365,0.004535264970617081,22.44672530055644,0.22097405341174373,1,0,4.960143875483898,0.0002487384822002648,0.005014743290606636,0,0.000914341415182162,0.072265625,,
0.0700350000000326,1200,,,,-0.0625,0.00390625,-0.8984375,-0.0023983327906595365,0.004535264970617081,22.446086081146266,0.24394274560567578,2,0,5.475559866736163,0.0003895033462892337,0.007113488953987209,0,0.0008282742004463614,0.07421875,,
0.07752500000008149,1200,,,,0.03125,0.048828125,-0.970703125,-0.0023983327906595365,0.004535264970617081,22.44518350562434,0.2573499613144155,2,0,5.7762671068673805,0.0004555087889020795,0.007885867818690846,0,0.0007851549948625338,0.078125,,
0.08502000000001862,1200,,,,0.0625,0.14453125,-1.0625,-0.0023983327906595365,0.004535264970617081,22.444841559794725,0.2691233280863089,2,0,6.040430458941857,0.0004792971475889319,0.007934817739345247,0,0.0007508181745397586,0.078125,,
0.09298999999999069,1200,,,,-0.09375,0.041015625,-1,-0.0023983327906595365,0.004535264970617081,22.44422678820347,0.2812393455532476,2,0,6.312199653363011,0.0004901680466115864,0.007765407837669312,0,0.0007184920027364446,0.080078125,,
0.10076500000007217,1200,,,,-0.25,0.7421875,-0.6328125,-0.0023983327906595365,0.004535264970617081,22.4430518492437,0.317926505626165,2,0,7.13524105001689,0.0004945663002321593,0.006931318742637135,0,0.0006356148220957925,0.0859375,,
0.11069000000006053,1200,,,,-0.0625,0.03515625,-1.263671875,-0.0023983327906595365,0.004535264970617081,22.44221299383829,0.3374651964536085,2,0,7.573465816819364,0.0004964462797528887,0.006555073882427343,0,0.0005988361313449172,0.08984375,,
0.1184650000000256,1200,,,,-0.03125,0.080078125,-0.958984375,-0.0023983327906595365,0.0040985340879956065,22.442020313286175,0.3472084303563649,2,0,7.792058647001749,0.0004971038888033485,0.006379622014198077,0,0.0005259886088732986,0.08984375,,
0.12894000000000233,1200,,,,-0.0625,0.0859375,-0.92578125,-0.0028731169964841576,0.0040985340879956065,22.441824212622258,0.350823099576775,2,0,7.873110330429259,0.0005957826180755878,0.007567309399601726,0,0.0005205736889212558,0.08984375,,
0.14856500000006054,1200,,,,-0.0625,0.091796875,-0.994140625,-0.0028731169964841576,0.0040985340879956065,22.441884970611547,0.34242824617910844,357,0,7.6847353114398045,0.10747179297279134,1.3985100152090408,0.03813590500935658,0.0005333344509464581,0.091796875,,
0.15677000000001862,1200,,,,0,0.025390625,-1.01171875,-0.0028731169964841576,0.0040985340879956065,22.441991360387515,0.3352606165404263,476,0,7.523915859878439,0.14323017130797772,1.9036652452715204,0.028615019102245006,0.0005447341735772449,0.091796875,,
0.16618000000005123,1200,,,,-0.125,0.046875,-0.89453125,-0.0028731169964841576,0.0040985340879956065,22.44195685922759,0.3308821639525418,523,0,7.425643248910814,0.15735484630030808,2.1190736078438555,0.026046443337205193,0.0005519433065407196,0.091796875,,
0.1743200000000652,1200,,,,0,0.076171875,-1.001953125,-0.0028731169964841576,0.0040985340879956065,22.442265500083884,0.3238653781148076,540,0,7.268272801937568,0.16253353971310272,2.2362058241646445,0.02521654358374379,0.0005638938162726947,0.091796875,,
0.1819200000000419,1200,,,,-0.0625,0.05078125,-0.935546875,-0.0028731169964841576,0.0040985340879956065,22.442285239105093,0.3155314363276642,547,0,7.0812464959699675,0.16447200468498396,2.3226419921773265,0.024919341719252457,0.0005787870949455209,0.091796875,,
0.1890000000000582,1200,,,,-0.0625,0.0546875,-0.953125,-0.0028731169964841576,0.0040985340879956065,22.442614164147482,0.3075440346043305,549,0,6.902092107110211,0.16517688864959204,2.393142341282791,0.02481299969689028,0.0005938104018886519,0.091796875,,
0.1978300000000163,1200,,,,-0.0625,0.078125,-0.984375,-0.0028731169964841576,0.0040985340879956065,22.442889158091653,0.299060060981906,616,0,6.711771800229047,0.18548400928425002,2.7635625108398374,0.02209642817087643,0.0006106486051649937,0.09375,,
0.2051050000000396,1200,,,,-0.09375,0.0546875,-0.89453125,-0.0028731169964841576,0.0040985340879956065,22.4433180817805,0.2928651838325908,705,0,6.572866475833956,0.21201294481288174,3.2255781490826934,0.019331527570700405,0.0006235535292044087,0.09375,,
0.21422000000003028,1200,,,,0.0625,0.02734375,-1.11328125,-0.0028731169964841576,0.0040985340879956065,22.443430339485865,0.2834613015678301,744,0,6.361843975677591,0.22381035724788698,3.51801078592232,0.018312530923026805,0.0006442368130474432,0.095703125,,
0.2222850000000326,1200,,,,-0.0625,0.060546875,-0.955078125,-0.0028731169964841576,0.0040985340879956065,22.443655589312748,0.27710600667364993,757,0,6.2192717755131985,0.22774400534083603,3.66190791400241,0.017996232576404557,0.0006590054649376384,0.095703125,,
0.23167500000004657,1200,,,,-0.0625,0.072265625,-0.98046875,-0.0028731169964841576,0.0040985340879956065,22.443909283266315,0.2699404690616114,763,0,6.058519399501163,0.22942583237709166,3.7868300363283773,0.017864309548451914,0.0006764910397634553,0.095703125,,
0.24103500000003258,1200,,,,-0.0625,0.05859375,-1.0546875,-0.0028731169964841576,0.0040985340879956065,22.44411426927766,0.26170501094264,764,0,5.873737170439171,0.22995625480720133,3.9149905440867356,0.017823103317767448,0.0006977728095534048,0.095703125,,
0.24934000000002562,1200,,,,0,0.015625,-0.94921875,-0.0028731169964841576,0.0040985340879956065,22.444399529610305,0.2563133491546203,789,0,5.752799213198801,0.23749194450105016,4.128284956585413,0.017257570974065117,0.0007124417063943811,0.095703125,,
0.2583200000000652,1200,,,,-0.0625,0.0234375,-0.9453125,-0.0028731169964841576,0.0040985340879956065,22.444377464344583,0.2492355543556631,811,0,5.593936859493675,0.24390398676270875,4.360149084428266,0.01680388312792534,0.0007326743563506326,0.095703125,,
0.2659200000000419,1200,,,,-0.0625,0.068359375,-0.98828125,-0.0028731169964841576,0.0837698260045886,22.444424007555234,0.24144635317336552,818,0,5.419124325700945,0.24604733904660664,4.540352356924036,0.34046223108603013,0.01545818493355073,0.09375,,
0.2730500000000466,1200,,,,0,-0.04296875,-0.94140625,-0.0028731169964841576,0.0837698260045886,22.444579117572406,0.2362626940605206,820,0,5.302816729372159,0.2468444549883859,4.654968624903084,0.3393628024114619,0.015797231976845398,0.09375,,
0.284,1200,,,,-0.03125,-0.025390625,-1.01171875,-0.0025568709412696483,0.0837698260045886,22.44179082700386,0.31344606322924456,822,0,7.034290986538533,0.22000534660003174,3.127612250062646,0.3807626828128027,0.011908780311320396,0.095703125,,
0.291679999999993,1200,,,,-0.03125,0.14453125,-0.9296875,-0.0025568709412696483,0.0837698260045886,22.43957379752654,0.3861971689985482,822,0,8.666099874138752,0.22015423636528136,2.5404073292792577,0.38050517395267,0.009666381327380416,0.095703125,,
0.2998400000000256,1200,,,,-0.125,0.115234375,-1.005859375,-0.0025568709412696483,0.0837698260045886,22.438317366512187,0.41926807001501004,879,0,9.407670016641848,0.23537055383073285,2.5019006131631993,0.3559061430633835,0.008904417975588285,0.09765625,,
0.30702000000007684,1200,,,,-0.0625,-0.08203125,-1.0078125,-0.0025568709412696483,0.0837698260045886,22.43756839465848,0.44452842985345087,900,0,9.974137048206948,0.24101577845750496,2.416407327196616,0.3475698833525067,0.008398704128458704,0.09765625,,
0.31626500000001395,1200,,,,0,0.046875,-1,-0.0025568709412696483,0.0837698260045886,22.436907095850206,0.4643275446169838,910,0,10.418073980615507,0.24357717553117653,2.3380250129188065,0.3439149247950226,0.008040816964868532,0.09765625,,
0.3242050000000163,1200,,,,0,-0.037109375,-0.984375,-0.0025568709412696483,0.0837698260045886,22.43656370525679,0.4797673848613553,914,0,10.764331494146251,0.24465777054478566,2.2728561516136225,0.3423959346071707,0.007782167062594036,0.09765625,,
0.33291000000003257,1200,,,,0,0.0546875,-1.046875,-0.0025568709412696483,0.0837698260045886,22.43640581055102,0.4886851558240265,1112,0,10.964338469660218,0.2976501228342586,2.714711185338688,0.2814372297478755,0.007640207955672916,0.09765625,,
0.3415450000000419,1200,,,,-0.0625,0.015625,-0.962890625,-0.0025568709412696483,0.0837698260045886,22.43616344386772,0.4935708131366273,1195,0,11.073835434656063,0.31992131389787365,2.8889838194331983,0.2618450924196001,0.00756466235198215,0.09765625,,
0.35034000000002563,1200,,,,-0.03125,0.01953125,-0.96875,-0.0025568709412696483,0.0837698260045886,22.436003749054088,0.4937773779467891,1225,0,11.078391102812258,0.3279942521017871,2.9606668428462104,0.2554002866446335,0.00756155160322184,0.09765625,,
0.3585250000000233,1200,,,,0,0.09375,-0.99609375,-0.0025568709412696483,0.0837698260045886,22.436003604202835,0.49276614210325576,1276,0,11.055702940257772,0.3415498736229654,3.089354656765062,0.24526381788992124,0.007577069179342064,0.09765625,,
0.36663500000006755,1200,,,,-0.125,0.0234375,-0.9609375,-0.0025568709412696483,0.0837698260045886,22.43612994111699,0.48958115471928476,1375,0,10.984306404003975,0.3680511510144301,3.3506999666384845,0.22760376043846217,0.007626319125079487,0.09765625,,
0.37574000000004887,1200,,,,-0.03125,0.05859375,-1.005859375,-0.0025568709412696483,0.0837698260045886,22.43648634318003,0.4825441496427555,1418,0,10.826595223441103,0.37959212366891354,3.50610802228057,0.22068378341183395,0.0077374118340745885,0.09765625,,
0.3825550000000512,1200,,,,0,0.09765625,-0.99609375,-0.0025568709412696483,0.0837698260045886,22.436527639224106,0.4763878742861559,1444,0,10.688489708412556,0.3865622399280233,3.6166217161978738,0.21670462697077264,0.007837386599030558,0.09765625,,
0.3904949999999953,1200,,,,-0.03125,0.060546875,-0.96484375,-0.0025568709412696483,0.0837698260045886,22.436860346522018,0.47045557562666435,1486,0,10.555546049578096,0.3978510549571858,3.769118651830313,0.2105557468324506,0.00793609592636251,0.09765625,,
0.3976600000000326,1200,,,,0,0.03125,-0.9765625,-0.0025568709412696483,0.0837698260045886,22.4370103161065,0.4637537704544854,1505,0,10.405248131820576,0.40285513039569726,3.8716532781540773,0.20794032316854744,0.00805072833855925,0.095703125,,
0.4053650000000489,1200,,,,-0.0625,-0.0390625,-0.9453125,-0.0025568709412696483,0.0837698260045886,22.43731460882217,0.45699189246562005,1512,0,10.253670864932147,0.4047678028734441,3.9475404292306844,0.20695773085187888,0.008169740096796343,0.095703125,,
0.41416500000003725,1200,,,,-0.03125,0.0390625,-0.9765625,-0.0025568709412696483,0.12041293902517476,22.437847991450386,0.44968990900222233,1526,0,10.090073821481022,0.40872245026298665,4.050737957861584,0.2946080866066857,0.01193380159110675,0.095703125,,
0.4215100000000093,1200,,,,0,0.12890625,-0.98046875,-0.0025568709412696483,0.12041293902517476,22.438050195395064,0.4422842922915427,1543,0,9.923997151072417,0.41326484493363314,4.164298302816164,0.29136990600909224,0.012133512050853681,0.095703125,,
0.42996000000002094,1200,,,,-0.0625,0.0234375,-0.962890625,0.008010049994012785,0.12041293902517476,22.438334892437616,0.43442085079237763,1550,0,9.747680534337043,1.300249653702865,13.339067167031416,0.09260755323584322,0.0123529837278735,0.095703125,,
0.4411500000000233,1200,,,,0,0.0078125,-0.98828125,0.008010049994012785,0.12041293902517476,22.43865267260058,0.42528421572711567,1553,0,9.542804803840085,1.3026875269226619,13.650992068898363,0.09243424577007057,0.012618191559018355,0.095703125,,
0.45888000000006285,1200,,,,-0.0625,0.08203125,-1.00390625,0.008010049994012785,0.12041293902517476,22.439217151888297,0.4073558707660254,1575,0,9.14074684221539,1.3211498061801932,14.453412056864204,0.09114253240767725,0.013173205767942587,0.095703125,,
0.4786100000000442,1200,,,,-0.03125,0.05859375,-0.990234375,0.008010049994012785,0.12041293902517476,22.439914210468626,0.3877377229740936,1586,0,8.70080123970111,1.330426617092007,15.290851732382633,0.09050701292219222,0.013839293153340804,0.095703125,,
0.486265000000014,1200,,,,0,0.01953125,-0.951171875,0.008010049994012785,0.12041293902517476,22.440017877584538,0.3803535066873198,1589,0,8.535139489865427,1.332734391484121,15.614676163952584,0.09035029019629637,0.014107905227343074,0.095703125,,
0.49376500000001394,1200,,,,-0.0625,0.1171875,-1.0078125,0.008010049994012785,0.12041293902517476,22.44033510735379,0.37329534840203016,1592,0,8.376872712157942,1.3351589848294825,15.938632837188427,0.09018621781626486,0.014374450127481469,0.095703125,,
0.5021800000000513,1200,,,,-0.0625,0.0078125,-0.978515625,0.008010049994012785,0.12041293902517476,22.44052359912112,0.36605301013381414,1595,0,8.214421212437179,1.3377803262215873,16.28575272225022,0.09000950056222444,0.014658724688096295,0.095703125,,
0.5102700000000187,1200,,,,-0.0625,0.1640625,-0.984375,0.008010049994012785,0.12041293902517476,22.44078584725287,0.3610632083286282,1596,0,8.102542135424795,1.3387376030962954,16.52243926314502,0.08994513842494455,0.014861130866413177,0.095703125,,
0.5194750000000349,1200,,,,-0.0625,0.0078125,-1.0234375,0.008010049994012785,0.12041293902517476,22.440960905953183,0.35476911685665985,1596,0,7.96135988201984,1.3391493766470226,16.820611007315414,0.08991748129448116,0.015124669756120276,0.095703125,,
0.5276400000000722,1200,,,,-0.03125,0.078125,-0.990234375,0.008010049994012785,0.12041293902517476,22.441242191997848,0.3489559739207445,1599,0,7.831005525099912,1.3408691351228041,17.12256658260622,0.08980215583390745,0.015376433925276597,0.095703125,,
0.5356450000000186,1200,,,,-0.0625,0.00390625,-0.95703125,0.008010049994012785,0.12041293902517476,22.441181965003697,0.34330237251463064,1599,0,7.70411101061831,1.3415391959875422,17.413290049150966,0.08975730219834213,0.015629699372090272,0.095703125,,
0.5436050000000395,1200,,,,-0.0625,0.0703125,-0.98046875,0.008010049994012785,0.12041293902517476,22.441222956512938,0.33808657413659066,1600,0,7.587076188802872,1.3418102995141612,17.68547285045623,0.08973916735381561,0.01587079607858454,0.095703125,,
0.5524150000000373,1200,,,,0,0.03125,-0.955078125,0.008010049994012785,0.12041293902517476,22.441513062452,0.33153528250853553,1600,0,7.440153373079014,1.3424256359521887,18.042983371949532,0.08969803302345707,0.016184201183388158,0.095703125,,
0.5604400000000606,1200,,,,-0.125,0.0234375,-0.98046875,0.008010049994012785,0.12041293902517476,22.441636525668788,0.32774660914739145,1601,0,7.355170275006192,1.3426442252749138,18.254427498944388,0.08968342972653054,0.016371196657996252,0.095703125,,
0.5681350000000093,1200,,,,0,0.052734375,-0.966796875,0.008010049994012785,0.40177586059875864,22.441752237485215,0.3228701018433763,1601,0,7.2457708304606685,1.3427288856973167,18.531208302263533,0.29922336882631756,0.0554497057662552,0.09375,,
0.5766650000000373,1200,,,,-0.0625,0.02734375,-0.994140625,0.014596453947983505,0.40177586059875864,22.44166470844526,0.32063024702554876,1602,0,7.195476499133343,2.4482160571806393,34.024377085735935,0.16410964196576786,0.05583728341648401,0.09375,,
0.5853050000000513,1200,,,,-0.0625,0.078125,-0.96875,0.014596453947983505,0.40177586059875864,22.441791210302988,0.3197346344075454,1603,0,7.1754179080766916,2.4494842417063003,34.13716487438518,0.1640246766065673,0.05599337428786098,0.09375,,
0.5959700000000303,1200,,,,-0.03125,-0.00390625,-0.94921875,0.014596453947983505,0.40177586059875864,22.441972706985325,0.3179360077854477,1603,0,7.135111209288892,2.449891618857062,34.33571737000615,0.16399740196923385,0.056309684434309025,0.09375,,
0.6150500000000466,1200,,,,0.0625,0.04296875,-0.96484375,0.014596453947983505,0.40177586059875864,22.442479532426084,0.3060767282869375,1609,0,6.869120709931535,2.459774003159501,35.80915384996951,0.1633385262559448,0.05849014416326411,0.095703125,,
0.6226550000000279,1200,,,,-0.03125,0.08203125,-1.02734375,0.014596453947983505,0.40177586059875864,22.442631882857853,0.3020445905336369,1610,0,6.778675557554945,2.461237399316509,36.308529275655026,0.16324140885813482,0.059270554725247594,0.095703125,,
0.6312750000000232,1200,,,,-0.0625,0.015625,-0.96875,0.014596453947983505,0.40177586059875864,22.442848130889264,0.29948152205920514,1611,0,6.721218317582304,2.4628886262754026,36.64348500379215,0.16313196476381456,0.05977723704461988,0.095703125,,
0.6395250000000233,1200,,,,-0.0625,0.08203125,-1.0625,0.014596453947983505,0.40177586059875864,22.442904427424896,0.2952502032751099,1612,0,6.626272094281065,2.4634676598033614,37.17727893983566,0.16309362089650045,0.060633770373770074,0.095703125,,
0.6483650000000489,1200,,,,-0.0625,0.0625,-0.98046875,0.014596453947983505,0.40177586059875864,22.442892521549446,0.29145134511111287,1612,0,6.541011213589722,2.463699271664948,37.66541886591361,0.1630782884987589,0.06142412044242057,0.095703125,,
0.6567550000000628,1200,,,,-0.03125,0.03515625,-0.9765625,0.014596453947983505,0.40177586059875864,22.442952585966836,0.28878131765715787,1611,0,6.4811054198926215,2.4623767259563563,37.99315959895546,0.16316587805739347,0.061991872461382554,0.095703125,,
0.6645350000000326,1200,,,,-0.03125,0.021484375,-0.958984375,0.014596453947983505,0.40177586059875864,22.443004278874323,0.2853625103714489,1610,0,6.404392041296746,2.461245690203475,38.430590668605106,0.16324085896745363,0.06273442631369706,0.095703125,,
0.672554999999993,1200,,,,-0.125,-0.03515625,-1.02734375,0.014596453947983505,0.40177586059875864,22.44318355128264,0.2819234305561309,1610,0,6.327259299378531,2.4608033487950243,38.89208948709794,0.16327020230832148,0.06349919318751823,0.095703125,,
0.6812900000000373,1200,,,,-0.03125,0.119140625,-0.982421875,0.014596453947983505,0.40177586059875864,22.443321645530073,0.27918054133917897,1609,0,6.265738686448398,2.460032346424423,39.26164925685466,0.1633213730635399,0.06412266465368614,0.095703125,,
0.6895100000000093,1200,,,,0,0.001953125,-0.9921875,0.014596453947983505,0.40177586059875864,22.443576359868082,0.276167259676601,1608,0,6.198180980647312,2.458454354885522,39.664126661702795,0.16342620305328684,0.0648215761774673,0.095703125,,
0.6978300000000163,1200,,,,-0.0625,0.08203125,-0.98828125,0.014596453947983505,0.40177586059875864,22.443746418792507,0.2730481272963222,1608,0,6.128222929164832,2.4578805414412614,40.10755760440697,0.16346435631211098,0.06556156087055298,0.095703125,,
0.7052050000000745,1200,,,,-0.0625,0.005859375,-1.00390625,0.014596453947983505,0.40177586059875864,22.443757323692097,0.27074706697425266,1608,0,6.076581467271538,2.45770056075767,40.445447394967765,0.16347632702451656,0.06611873184992631,0.095703125,,
0.7122700000000186,1200,,,,0,0.046875,-0.96484375,0.014596453947983505,0.40177586059875864,22.443853584410245,0.26910380849625565,1607,0,6.039726476897136,2.45596489143717,40.663511846630904,0.16359185833623593,0.06652219469467895,0.095703125,,
0.7199150000000373,1200,,,,-0.125,0.0234375,-1.0390625,0.014596453947983505,0.5560656095137507,22.444033922284046,0.26694523356132305,1606,0,5.991327877442372,2.455199910443607,40.979227988632516,0.22648486062109724,0.09281174739365602,0.095703125,,
0.7283550000000396,1200,,,,-0.03125,0.09375,-0.98046875,0.01556635831800504,0.5560656095137507,22.444032059169082,0.2647991402306284,1606,0,5.943160392576633,2.617940536834312,44.04963628617996,0.2124057447791236,0.09356395802615564,0.095703125,,
0.7366450000000186,1200,,,,0,0.01953125,-1.0625,0.01556635831800504,0.5560656095137507,22.444225801368702,0.2629036822448383,1606,0,5.9006696083144385,2.6182800570463005,44.37259210983392,0.21237820149042888,0.09423771307754922,0.095703125,,
0.7472050000000163,1200,,,,-0.03125,0.001953125,-0.935546875,0.01556635831800504,0.5560656095137507,22.444214719192495,0.26076872361086256,1606,0,5.852749224771961,2.6184150075028048,44.73820604546447,0.212367255733106,0.09500930044297543,0.095703125,,
0.7632000000000116,1200,,,,-0.03125,-0.009765625,-0.974609375,0.01556635831800504,0.5560656095137507,22.444355198290495,0.25835731243215,1606,0,5.798663288302887,2.617491931647619,45.13957444171049,0.2124421484515244,0.09589548174584496,0.095703125,,
0.7716700000000419,1200,,,,-0.0625,0.15625,-1.05859375,0.01556635831800504,0.5560656095137507,22.44433584612472,0.25789253674071727,1605,0,5.788226706817717,2.6163832716996356,45.201810575558554,0.2125321681760041,0.09606838807104491,0.095703125,,
0.7813050000000512,1200,,,,-0.0625,0.0546875,-0.935546875,0.01556635831800504,0.5560656095137507,22.44424332604568,0.25672444235965886,1605,0,5.761985852063572,2.6159803534745003,45.40067297349619,0.2125649027811673,0.09650589636810787,0.095703125,,
0.789655000000028,1200,,,,-0.03125,0.064453125,-1.001953125,0.01556635831800504,0.5560656095137507,22.444448018984154,0.25788617093396216,1604,0,5.788112758342176,2.6153375651774273,45.18463399677288,0.2126171462214388,0.09607027933454054,0.095703125,,
0.7983100000000559,1200,,,,-0.0625,0.078125,-0.984375,0.01556635831800504,0.5560656095137507,22.444625904645424,0.2568324922217332,1604,0,5.764509208074558,2.614875881714963,45.36163942720763,0.21265468598419893,0.09646365188121296,0.095703125,,
0.8066600000000326,1200,,,,-0.041015625,0.033203125,-0.96484375,0.01556635831800504,0.5560656095137507,22.444592146447334,0.25674748332545255,1604,0,5.7625925478665705,2.614689438975094,45.37349148419499,0.21266984951441015,0.09649573605887123,0.095703125,,
0.8152900000000373,1200,,,,-0.0625,-0.1171875,-0.94140625,0.01556635831800504,0.5560656095137507,22.444430010211242,0.2555388011990951,1604,0,5.735422738406375,2.614783510337492,45.59007469193154,0.2126621983484893,0.09695285506857987,0.095703125,,
0.8224799999999813,1200,,,,-0.03125,0.0390625,-0.97265625,0.01556635831800504,0.5560656095137507,22.444409292685247,0.25484569126441275,1604,0,5.719861001215781,2.615133269850864,45.72022413298166,0.21263375596359652,0.09721662980893359,0.095703125,,
0.8316700000000419,1200,,,,0,0.03125,-0.96484375,0.01556635831800504,0.5560656095137507,22.444388975390176,0.25308762687061814,1604,0,5.6803971423425645,2.6152752004359527,46.04035835701142,0.2126222163621853,0.0978920303597703,0.09375,,
0.8409150000000373,1200,,,,-0.0625,0.04296875,-0.9609375,0.01556635831800504,0.5560656095137507,22.444486499602757,0.25321897998792636,1605,0,5.683369977782194,2.6158618561082276,46.026598063021204,0.21257453187571707,0.09784082537078517,0.09375,,
0.8493600000000442,1200,,,,-0.03125,0.064453125,-1.00390625,0.01556635831800504,0.5560656095137507,22.44424059272287,0.25243854019548545,1605,0,5.665791331023218,2.617051286274028,46.1903930690896,0.2124779183465822,0.09814438566930556,0.09375,,
0.8566350000000094,1200,,,,-0.0625,0.05078125,-0.94140625,0.01556635831800504,0.5560656095137507,22.44423015849771,0.25176060173377934,1606,0,5.650572890154821,2.6174282728168055,46.32146728656906,0.21244731528605673,0.09840871365142499,0.09375,,
0.8658649999999907,1200,,,,-0.0625,0.0546875,-1.0625,0.01556635831800504,0.6226777195668302,22.44421726217182,0.2503134518528493,1606,0,5.618089497029535,2.617615737067566,46.592631506699625,0.23787972800942767,0.11083442510057197,0.09375,,
0.873335000000021,1200,,,,-0.03125,0.052734375,-0.96484375,0.01556635831800504,0.6226777195668302,22.444142483462976,0.2504996112962649,1606,0,5.6222489679854615,2.6186198032242216,46.576019990137745,0.2377885169890441,0.11075242720706927,0.09375,,
0.8814350000000559,1200,,,,-0.0625,0.00390625,-0.98828125,0.014914267945374485,0.6226777195668302,22.444136376821003,0.24888710107817882,1607,0,5.58605603903028,2.509283091670652,44.92047831489809,0.2481496494491813,0.11147000946931511,0.09375,,
0.8899350000000559,1200,,,,-0.03125,0.06640625,-1.013671875,0.014914267945374485,0.6226777195668302,22.444274585760848,0.24870170895106206,1607,0,5.581929445645613,2.5094624518152555,44.95690023049024,0.24813191331729523,0.11155241671006294,0.09375,,
0.9004899999999907,1200,,,,-0.0625,0.05078125,-0.970703125,0.014914267945374485,0.6226777195668302,22.444360184223875,0.2478970066787515,1607,0,5.56388970648885,2.509829666848382,45.10926346942697,0.24809560895370747,0.11191410189900715,0.09375,,
0.9170900000000838,1200,,,,-0.0625,0.072265625,-0.962890625,0.014914267945374485,0.6226777195668302,22.444318411437948,0.24726223804829697,1607,0,5.549632401880745,2.5102620151210937,45.232942172356815,0.24805287886921737,0.11220161525577939,0.09375,,
0.9248150000000606,1200,,,,0,-0.009765625,-0.9296875,0.014914267945374485,0.6226777195668302,22.44412409181782,0.24703623522226384,1608,0,5.544511918503986,2.511599347418054,45.29883575569499,0.24792080003004788,0.1123052360098164,0.09375,,
0.9451600000000326,1200,,,,-0.01953125,0.05078125,-0.990234375,0.014914267945374485,0.6226777195668302,22.444408898736356,0.24523615473986451,1609,0,5.504180533735301,2.5124779157365356,45.646720712329056,0.2478341065872778,0.1131281424637906,0.09375,,
0.9535800000000163,1200,,,,-0.0625,0.0625,-0.9921875,0.014914267945374485,0.6226777195668302,22.444599771927717,0.2438670818124997,1608,0,5.473499048829509,2.512065198405952,45.895051337282126,0.24787482425295113,0.11376227784308976,0.09375,,
0.96175,1200,,,,-0.03125,0.056640625,-0.998046875,0.014914267945374485,0.6226777195668302,22.44475788588578,0.24131722329123687,1608,0,5.416306650466049,2.511923166187551,46.3770485737068,0.24788883989309815,0.11496352768602042,0.09375,,
0.9706300000000628,1200,,,,-0.03125,-0.009765625,-0.9609375,0.014914267945374485,0.6226777195668302,22.444561267069417,0.2400615464849499,1608,0,5.388076087948891,2.5118580466814078,46.6188302778332,0.24789526637044376,0.11556587349601968,0.09375,,
0.9872200000000885,1200,,,,0.0625,0.078125,-0.9765625,0.014914267945374485,0.6226777195668302,22.444598237393308,0.23820061917906735,1606,0,5.34631719737249,2.5086289291970654,46.92256064473616,0.24821435817776763,0.11646853274490566,0.09375,,
0.9950650000000605,1200,,,,-0.0625,0.0390625,-0.95703125,0.014914267945374485,0.6226777195668302,22.444763534564707,0.2372900208061657,1606,0,5.325918406106329,2.508285557121173,47.09583147660217,0.24824833751444716,0.11691461867927061,0.09375,,
1.010155000000028,1200,,,,0.0625,0.07421875,-0.98046875,0.014914267945374485,0.6226777195668302,22.444998450363812,0.23849295752264585,1606,0,5.352974062018468,2.5083801109685435,46.859560347331445,0.24823897974792977,0.11632369452058104,0.09375,,
1.028210000000021,1200,,,,-0.0625,0.08984375,-0.96484375,0.014619976990396792,0.6515946834959774,22.444761289471586,0.23814785760358145,1606,0,5.345171815511456,2.458772916534945,45.99988553033399,0.2650080774495617,0.12190341227293722,0.09375,,
1.036475000000035,1200,,,,0,0.05078125,-0.966796875,0.014619976990396792,0.6515946834959774,22.444855343117577,0.23861731633153585,1606,0,5.355731147424249,2.4584254928516547,45.90270544170228,0.2650455282824777,0.12166306813390942,0.09375,,
1.0437000000000116,1200,,,,-0.0625,0.001953125,-0.96875,0.014619976990396792,0.6515946834959774,22.444817861297757,0.23720739289387024,1606,0,5.324076728856213,2.4582977841867417,46.173222314075566,0.26505929740791717,0.12238641865628434,0.09375,,
1.0538400000000838,1200,,,,0,0.1171875,-0.96484375,0.014619976990396792,0.6515946834959774,22.44489742982136,0.23719037952032637,1606,0,5.323713739674126,2.458243313375543,46.17534739059836,0.26506517070567703,0.12239476338482892,0.09375,,
1.070695000000007,1200,,,,-0.0625,0.0546875,-0.98046875,0.014619976990396792,0.6515946834959774,22.44486578400872,0.2371169529441726,1606,0,5.322058183945065,2.458205767460785,46.189005878898506,0.2650692192334432,0.12243283725488545,0.09375,,
1.0784000000000233,1200,,,,-0.09375,0.033203125,-0.97265625,0.014619976990396792,0.6515946834959774,22.44482310290498,0.2387080534237497,1606,0,5.357760032334854,2.4582028633258077,45.88116766130247,0.2650695323877408,0.12161699657384982,0.091796875,,
1.0858099999999977,1200,,,,0.0625,0.1015625,-0.9609375,0.014619976990396792,0.6515946834959774,22.444787553267222,0.23801719291814352,1606,0,5.3422453290727505,2.4588255399173145,46.02606934833693,0.2650024057899973,0.12197019106366538,0.091796875,,
1.094015000000014,1200,,,,-0.09375,0.076171875,-0.974609375,0.014619976990396792,0.6515946834959774,22.4451387643403,0.2399670881069023,1606,0,5.386094591434096,2.4591158509903064,45.6567520165951,0.26497112091468755,0.12097720759161126,0.09375,,
1.1015900000000256,1200,,,,0.0625,0.0625,-0.99609375,0.014619976990396792,0.6515946834959774,22.445213244876967,0.23981356192106443,1606,0,5.382666536331798,2.4592309278760225,45.68796731651055,0.26495872189552516,0.12105425426187164,0.091796875,,
1.1100250000000234,1200,,,,-0.0625,0.083984375,-1.015625,0.014619976990396792,0.6515946834959774,22.445252633528696,0.24026050059338236,1607,0,5.3927076336765385,2.459615826235778,45.61003476019907,0.26491725925067927,0.12082885403000151,0.09375,,
1.118280000000028,1200,,,,-0.0625,0.01953125,-0.97265625,0.014619976990396792,0.6515946834959774,22.44519173635846,0.2405147352896382,1607,0,5.39839934899543,2.4600965478113896,45.570851446349195,0.26486549240340374,0.12070146007579644,0.091796875,,
1.1258400000000257,1200,,,,-0.0625,0.05859375,-1.03515625,0.014619976990396792,0.6515946834959774,22.445198759838448,0.23990075352017418,1607,0,5.384620095395323,2.4602895900745465,45.6910524138643,0.26484471020187267,0.12101033535368463,0.091796875,,
1.1342550000000047,1200,,,,0.0625,0.0625,-0.90625,0.014619976990396792,0.6515946834959774,22.445140160117216,0.2391130811550314,1607,0,5.366926620642163,2.460364477475678,45.843080246573045,0.26483664898483267,0.12140927751645182,0.091796875,,
1.1425350000000325,1200,,,,-0.0625,0.03515625,-0.982421875,0.014619976990396792,0.6515946834959774,22.445005470187077,0.2368603672529291,1608,0,5.316332238662514,2.461339223212218,46.29769383697215,0.264731767710426,0.12256470330377733,0.09375,,
1.1500100000000093,1200,,,,-0.0625,0.0234375,-0.953125,0.014619976990396792,0.6515946834959774,22.444961468163953,0.23638326482410663,1608,0,5.3056132706958685,2.461652740383097,46.39713855473364,0.2646980513565745,0.12281232163958987,0.091796875,,
1.1581950000000651,1200,,,,-0.03125,0.03125,-0.978515625,0.014619976990396792,0.6515946834959774,22.445012762714676,0.23586901405117613,1608,0,5.294083030707576,2.461797056251866,46.500915115470654,0.2646825341842121,0.12307980054647709,0.091796875,,
1.1667050000000745,1200,,,,-0.0625,0.08203125,-0.97265625,0.014619976990396792,0.6658473275133677,22.44502834428716,0.23570502172440885,1608,0,5.290405893495177,2.4614094785694176,46.52590988521024,0.2705146515891217,0.1258594030246452,0.091796875,,
1.1742950000000418,1200,,,,-0.03125,0,-0.98828125,0.014617583599230904,0.6658473275133677,22.444972475177874,0.23552920239150424,1608,0,5.286446464777911,2.46084204620459,46.550023018306916,0.27057702811129974,0.1259536688680608,0.091796875,,
1.181530000000028,1200,,,,-0.03125,0.083984375,-0.9375,0.014617583599230904,0.6658473275133677,22.444930472269608,0.24045990205351644,1608,0,5.397105782959937,2.4607894251730613,45.59461170730453,0.27058281407664136,0.1233711834249424,0.091796875,,
1.190420000000042,1200,,,,-0.125,-0.14453125,-1.00390625,0.014617583599230904,0.6658473275133677,22.444815886835908,0.24302173596626261,1608,0,5.4545781202620125,2.4616739294628145,45.13041843361787,0.27048559094041696,0.12207127899405416,0.091796875,,
1.20025,1200,,,,-0.03125,0.048828125,-0.93359375,0.014617583599230904,0.6658473275133677,22.444764910088075,0.24493934386030922,1608,0,5.497605990175865,2.4620497487075688,44.784034234305125,0.27044430270464614,0.12111586910797652,0.091796875,,
1.2122300000000397,1200,,,,-0.03125,0.087890625,-1.0078125,0.014617583599230904,0.6658473275133677,22.444852865867883,0.24416327011645197,1608,0,5.480208673012921,2.462153260100898,44.92809319881701,0.27043293295482407,0.12150036015823767,0.091796875,,
1.2290250000000815,1200,,,,-0.0625,0.078125,-1.05078125,0.014617583599230904,0.6658473275133677,22.445104847754116,0.24037217172719003,1619,0,5.395178596899138,2.4784906642235525,45.93899200386169,0.2686503270416637,0.12341525225801818,0.09375,,
1.2381600000000326,1200,,,,-0.03125,0.052734375,-0.96875,0.014617583599230904,0.6658473275133677,22.44505215996822,0.23937424422809364,1620,0,5.372767397452534,2.4803452276717115,46.16513323930146,0.26844945618251514,0.1239300491268383,0.091796875,,
1.248920000000042,1200,,,,-0.0625,0.03125,-0.955078125,0.014617583599230904,0.6658473275133677,22.444987748161733,0.238420485768468,1619,0,5.351344881984033,2.4789153428006045,46.323221497948694,0.26860430286462034,0.12442616616899903,0.091796875,,
1.2562850000000325,1200,,,,-0.03125,0.06640625,-0.97265625,0.014617583599230904,0.6658473275133677,22.445008439241104,0.2372846309417823,1619,0,5.325855543990514,2.4784542792722206,46.53626555960217,0.2686542709631459,0.12502166497262276,0.091796875,,
1.2646200000000536,1200,,,,-0.0625,0.05859375,-0.9921875,0.014617583599230904,0.6658473275133677,22.444908127615562,0.23735729036831585,1619,0,5.32746257573662,2.4783252940755407,46.51980673431322,0.268668253156711,0.12498395212495735,0.091796875,,
1.272070000000007,1200,,,,-0.03125,0.0625,-0.962890625,0.014617583599230904,0.6658473275133677,22.44478361458572,0.23636241944693323,1616,0,5.305103359106364,2.473445042593148,46.62388034999182,0.26919835130652287,0.12551071721730386,0.091796875,,
1.2800950000000302,1200,,,,-0.0625,0.015625,-1.00390625,0.014617583599230904,0.6658473275133677,22.444749088731232,0.23676480118686186,1615,0,5.314126555682449,2.4719122833186566,46.51587156266378,0.26936527319627895,0.12529760451439953,0.091796875,,
1.290405000000028,1200,,,,-0.041015625,0.03125,-0.9921875,0.014617583599230904,0.6658473275133677,22.444704073753293,0.23585400189461245,1614,0,5.293673277135025,2.471140004043331,46.681007207545875,0.2694494550789896,0.12578171954611622,0.091796875,,
1.2986050000000395,1200,,,,0,0.10546875,-0.96484375,0.014617583599230904,0.6658473275133677,22.444735655335123,0.23524871094555286,1613,0,5.280095130431276,2.4683999632128124,46.749157017767494,0.26974855673175274,0.1261051763396887,0.091796875,,
1.306115000000049,1200,,,,-0.03125,-0.01171875,-0.96875,0.014617583599230904,0.6658473275133677,22.444604170507642,0.23448949693845947,1612,0,5.263023940925186,2.4673640647350297,46.88111041161808,0.26986180800394893,0.12651421216912012,0.091796875,,
1.3158200000000653,1200,,,,-0.0625,0.03125,-1.015625,0.014617583599230904,0.6700118617179641,22.44464481953115,0.23437701332622446,1612,0,5.260508817969627,2.4669160796766376,46.89500892479791,0.2715989681358715,0.12736636034697596,0.08984375,,
1.3240400000000372,1200,,,,-0.03125,0.087890625,-0.966796875,0.014617583599230904,0.6700118617179641,22.444682631128007,0.2333185820538698,1610,0,5.236761526143906,2.463910051894029,47.05026264024536,0.27193032521739996,0.12794393221326003,0.08984375,,
1.3332700000000768,1200,,,,-0.0625,0.068359375,-0.9921875,0.014396586148612276,0.6700118617179641,22.444647618412656,0.23444361386409368,1608,0,5.262004299566787,2.424280418521966,46.07142602908085,0.27637556142389524,0.12733016234386682,0.091796875,,
1.341115000000049,1200,,,,-0.03125,-0.00390625,-0.974609375,0.014396586148612276,0.6700118617179641,22.444613438899154,0.2351415243320222,1607,0,5.277660617065738,2.423360501678188,45.917323555100495,0.27648047463593545,0.12695243410526003,0.091796875,,
1.3499700000000303,1200,,,,-0.0625,0.05859375,-0.94921875,0.014396586148612276,0.6700118617179641,22.44478012266691,0.23661148094420023,1607,0,5.310692664291166,2.422151190787865,45.60895054376409,0.27661851343805915,0.12616280098885982,0.08984375,,
1.3605800000000745,1200,,,,0.0625,0.0703125,-1,0.014396586148612276,0.6700118617179641,22.444736886359035,0.23611125193987534,1606,0,5.299454925699331,2.4216452667474875,45.69611970853625,0.27667630388238373,0.12643033502724763,0.08984375,,
1.3760800000000164,1200,,,,-0.0625,-0.046875,-0.9453125,0.014396586148612276,0.6700118617179641,22.44449240126059,0.2363424307808437,1606,0,5.304585891756103,2.421818468372164,45.65518435917741,0.2766565167736603,0.12630804277469324,0.08984375,,
1.3847999999999883,1200,,,,-0.0625,0.0390625,-0.958984375,0.014396586148612276,0.6700118617179641,22.444575458966305,0.23612919759609294,1607,0,5.299819593510673,2.4219942137872903,45.699559599215114,0.2766364419468457,0.1264216356606469,0.08984375,,
1.3921500000000233,1200,,,,-0.0625,0.08203125,-0.94921875,0.014396586148612276,0.6700118617179641,22.444550832900315,0.23569387573517223,1607,0,5.2900431749413634,2.4220491675692806,45.78505481850112,0.2766301653530735,0.126655272851415,0.08984375,,
1.4011300000000628,1200,,,,-0.0625,-0.0546875,-0.9609375,0.014396586148612276,0.6700118617179641,22.444521861626836,0.23575265896217543,1607,0,5.291355708013202,2.4221901238882264,45.776361627324995,0.27661406720725373,0.12662385571684429,0.08984375,,
1.4084050000000279,1200,,,,-0.03125,0.064453125,-0.974609375,0.014396586148612276,0.6700118617179641,22.44439283617366,0.23491766743216586,1607,0,5.27258441200513,2.422354331406605,45.94244761432657,0.27659531598290316,0.12707465814912633,0.08984375,,
1.417295000000042,1200,,,,0,0.01953125,-0.90625,0.014396586148612276,0.6700118617179641,22.44458165728307,0.23649104915178878,1607,0,5.307942663903868,2.4224175415742404,45.63759812342451,0.2765880985499089,0.12622816487342878,0.08984375,,
1.4259950000000536,1200,,,,-0.03125,0.056640625,-1.060546875,0.014396586148612276,0.6700118617179641,22.4446894214789,0.23561062566432814,1607,0,5.288207317436171,2.4224410412410675,45.80835991913259,0.27658541541828524,0.12669924257863616,0.08984375,,
1.4350100000000676,1200,,,,-0.03125,0.015625,-0.96875,0.014396586148612276,0.6700118617179641,22.444863619305558,0.23613028826529883,1606,0,5.29991211650194,2.4213108164183548,45.685867297295374,0.27671452057074497,0.12641942866029765,0.091796875,,
1.4434300000000513,1200,,,,-0.03125,0.06640625,-0.966796875,0.014396586148612276,0.6700118617179641,22.444819088841452,0.23482227538023104,1606,0,5.270543488939394,2.4208937632186376,45.93252609145629,0.27676219084771686,0.1271238655224136,0.08984375,,
1.4507550000000629,1200,,,,-0.03125,0.0078125,-0.970703125,0.014396586148612276,0.6700118617179641,22.444844085678785,0.23555124646125278,1606,0,5.2869110010101155,2.4207409546681316,45.78743531346803,0.2767796613784388,0.1267303084144885,0.08984375,,
1.4582750000000233,1200,,,,-0.0625,0.13671875,-1,0.014396586148612276,0.6700118617179641,22.444981268687336,0.234851301253526,1606,0,5.271233057562237,2.420478555380715,45.918640457534664,0.2768096665134794,0.12710723551802533,0.08984375,,
1.4667450000000535,1200,,,,-0.03125,0.068359375,-0.98046875,0.014396586148612276,0.6741263310199329,22.444730906216737,0.23538586194088132,1605,0,5.283172330390965,2.420355245298528,45.812536369023135,0.2785237135455237,0.12759877756439686,0.08984375,,
1.4741550000000279,1200,,,,-0.125,0.015625,-1.03515625,0.014396586148612276,0.6741263310199329,22.444888092654097,0.23524579926392572,1605,0,5.280065638745782,2.4203086586286737,45.83860929432669,0.27852907463541743,0.12767385429323255,0.08984375,,
1.4829100000000326,1200,,,,-0.03125,0.080078125,-0.947265625,0.013966994583366232,0.6741263310199329,22.445041172663263,0.23510940201146044,1605,0,5.2770402082274686,2.347358234545897,44.482477713285476,0.28718510924275026,0.12774705221478094,0.08984375,,
1.4899400000000023,1200,,,,-0.125,0.03125,-1.05859375,0.013966994583366232,0.6741263310199329,22.44505534242715,0.23655860530742348,1604,0,5.309570987852501,2.3467208264613433,44.19793674159903,0.28726311345540767,0.12696436916696893,0.08984375,,
1.4974950000000535,1200,,,,-0.03125,0.05859375,-0.96484375,0.013966994583366232,0.6741263310199329,22.445009664344685,0.23736870787633826,1604,0,5.327742942297423,2.346482397659216,44.04271045117971,0.28729230259405397,0.12653131698002623,0.091796875,,
1.5062700000000768,1200,,,,-0.0625,0.10546875,-1,0.013966994583366232,0.6741263310199329,22.444953941758826,0.23853530313091656,1604,0,5.353913892256902,2.346364521610292,43.825219621176984,0.2873067355098282,0.1259128078236163,0.091796875,,
1.5174150000000373,1200,,,,-0.0625,0.0234375,-0.96484375,0.013966994583366232,0.6741263310199329,22.445119585199574,0.23844168803358937,1604,0,5.351852202010764,2.346547052089438,43.84551298348276,0.28728438682687824,0.12596131312569778,0.08984375,,
1.5341300000000047,1200,,,,-0.041015625,0.04296875,-0.97265625,0.013966994583366232,0.6741263310199329,22.445143306778753,0.2372982182228243,1604,0,5.326192514454549,2.3466305635195943,44.05831289708669,0.28727416300623154,0.12656814960977233,0.08984375,,
1.5415550000000513,1200,,,,-0.01953125,0.046875,-0.96484375,0.013966994583366232,0.6741263310199329,22.44522055795303,0.23760424622344387,1605,0,5.333079711991376,2.347034573087779,44.008991049027365,0.28722471272889966,0.12640469811545602,0.091796875,,
1.5499700000000303,1200,,,,-0.0625,0.01953125,-0.98828125,0.013966994583366232,0.6741263310199329,22.445255214728157,0.23679815661917328,1605,0,5.314995059694514,2.3474187888044584,44.16596370156135,0.2871777009858841,0.12683479917640397,0.08984375,,
1.5583150000000023,1200,,,,-0.03125,0.076171875,-1.0078125,0.013966994583366232,0.6741263310199329,22.445295900096557,0.23691720803783442,1605,0,5.317676838233928,2.347601757870108,44.14713096122964,0.2871553187247324,0.126770834619544,0.08984375,,
1.566350000000035,1200,,,,-0.0625,0.033203125,-0.986328125,0.013966994583366232,0.6741263310199329,22.445231815960213,0.23583861925704339,1605,0,5.293452480380317,2.3480925135717006,44.35843189817391,0.2870953027291563,0.127350974343969,0.08984375,,
1.5742300000000395,1200,,,,0,0.13671875,-0.97265625,0.013966994583366232,0.6741263310199329,22.445105494414868,0.23642131171729505,1606,0,5.306501282622629,2.348284407202148,44.25296974660405,0.2870718423000208,0.12703781552404708,0.091796875,,
1.5815500000000466,1200,,,,-0.03125,0.005859375,-0.94921875,0.013966994583366232,0.6741263310199329,22.445143727337875,0.23569680052632605,1606,0,5.290248563887073,2.3483540154043934,44.3902396464886,0.28706333312520016,0.12742810151147427,0.091796875,,
1.5904550000000746,1200,,,,-0.03125,0.037109375,-0.982421875,0.013966994583366232,0.6741263310199329,22.445080705875114,0.23480189200258014,1607,0,5.270147415890084,2.349746676155857,44.58597626835083,0.28689319485400494,0.12791413177312017,0.091796875,,
1.5999650000000256,1200,,,,-0.0625,0.04296875,-1,0.013966994583366232,0.6741263310199329,22.445021959254206,0.23396675539972156,1607,0,5.251388962682208,2.350241639738604,44.754666935549004,0.28683277481838415,0.12837105303196109,0.091796875,,
1.608320000000007,1200,,,,-0.0625,0.099609375,-0.99609375,0.013966994583366232,0.6741263310199329,22.44511271290632,0.23340622483362763,1607,0,5.238829024284726,2.3504220222696475,44.865408116474235,0.2868107619111625,0.12867881885341229,0.091796875,,
1.6171100000000442,1200,,,,-0.0625,0.033203125,-0.990234375,0.013966994583366232,0.6734599631677338,22.445056097015478,0.23335862028051052,1607,0,5.237747322918192,2.350701575016362,44.88001100646216,0.2864931773243255,0.12857816951592044,0.091796875,,
1.6256149999999907,1200,,,,-0.0625,0.037109375,-0.970703125,0.013778818276140173,0.6734599631677338,22.44522815400935,0.23330683024533125,1607,0,5.236625034745189,2.3193733725040464,44.29137769297827,0.29036289333642373,0.12860572576789508,0.091796875,,
1.634835000000021,1200,,,,-0.09375,0.04296875,-0.9609375,0.013778818276140173,0.6734599631677338,22.44548268787051,0.2332622733361237,1607,0,5.235684317899283,2.319484761300619,44.301463198821494,0.2903489492166788,0.12862883288539187,0.091796875,,
1.6433050000000513,1200,,,,0,0.0625,-0.98828125,0.013778818276140173,0.6734599631677338,22.445748913603115,0.23333308147530465,1606,0,5.2373357600319865,2.3176578115730995,44.25261082667239,0.290577823786086,0.1285882735086705,0.091796875,,
1.651115000000049,1200,,,,-0.125,0,-0.97265625,0.013778818276140173,0.6734599631677338,22.44585983476507,0.23243720543016785,1605,0,5.217252933470042,2.316067116706899,44.39246373984905,0.2907773951409893,0.12908324970164126,0.091796875,,
1.6592600000000675,1200,,,,-0.03125,0.048828125,-0.986328125,0.013778818276140173,0.6734599631677338,22.445964566120697,0.23180185321778676,1605,0,5.203016183687552,2.315442576756332,44.50192916977053,0.29085582597827736,0.12943645366300402,0.091796875,,
1.6704300000000512,1200,,,,0,0.078125,-0.984375,0.013778818276140173,0.6734599631677338,22.445783706224834,0.23255272302579064,1605,0,5.219828121330508,2.315477272108062,44.359262762810246,0.29085146776439785,0.1290195668350996,0.091796875,,
1.6781450000000768,1200,,,,-0.041015625,0.03125,-0.97265625,0.013778818276140173,0.6734599631677338,22.44567287165205,0.23315456118939104,1605,0,5.233311008990652,2.3161180608993144,44.25722180318161,0.29077099934458406,0.12868716611926032,0.091796875,,
1.6851300000000629,1200,,,,-0.0625,0.08203125,-0.9921875,0.013778818276140173,0.6734599631677338,22.44560262118413,0.23312586714969724,1605,0,5.232650574761068,2.3162865609249015,44.2660278539747,0.29074984698733425,0.12870340825280221,0.091796875,,
1.6934400000000605,1200,,,,-0.03125,0.048828125,-1,0.013778818276140173,0.6734599631677338,22.44552408385376,0.23341270813290718,1605,0,5.239070561874696,2.315319418879584,44.193323825955375,0.2908712973580253,0.1285456943581897,0.091796875,,
1.7016600000000326,1200,,,,-0.125,0.08984375,-0.94140625,0.013778818276140173,0.6734599631677338,22.445379447482168,0.23424443029861908,1604,0,5.257705121511794,2.313864337025572,44.00901692942883,0.29105421281243027,0.12809009779043826,0.091796875,,
1.7094000000000233,1200,,,,0,-0.0078125,-0.927734375,0.013778818276140173,0.6734599631677338,22.445314404229908,0.23354675030660058,1603,0,5.2420302387178275,2.313325801764089,44.130340658430015,0.2911219693543247,0.1284731168075937,0.091796875,,
1.7175900000000839,1200,,,,-0.125,0.01171875,-0.96484375,0.013778818276140173,0.6734599631677338,22.445248424801935,0.23240388723358898,1603,0,5.21636298384756,2.3130989870153487,44.343137051195384,0.29115051580075985,0.12910527224679322,0.091796875,,
1.7250550000000513,1200,,,,-0.03125,0.064453125,-0.966796875,0.013778818276140173,0.6734599631677338,22.44538050006496,0.23396953925171468,1603,0,5.25153533392962,2.313427741113581,44.05240742010754,0.2911091412967842,0.12824058496123591,0.091796875,,
1.7326699999999837,1200,,,,-0.0625,0.04296875,-0.96484375,0.013778818276140173,0.6734599631677338,22.445493040788143,0.2333466436381111,1603,0,5.237580465870494,2.3135517080125814,44.172146339102895,0.2910935428135551,0.12858226571528267,0.091796875,,
1.7409850000000442,1200,,,,0,0.0859375,-0.96484375,0.013778818276140173,0.6734599631677338,22.44535385343868,0.2336243525727217,1603,0,5.243781262275256,2.313610391047206,44.12103166262391,0.29108615943884425,0.12843021657152842,0.091796875,,
1.7498150000000605,1200,,,,-0.03125,0.03125,-0.93359375,0.013778818276140173,0.6734599631677338,22.445352832466373,0.23332062273668455,1603,0,5.236963700415661,2.3134120363265027,44.17468152668093,0.29111111751503194,0.1285974090510272,0.091796875,,
1.7575800000000164,1200,,,,-0.03125,-0.009765625,-1.025390625,0.013778818276140173,0.6734599631677338,22.445286255373844,0.2364814591114878,1603,0,5.307894043845828,2.3131352519763366,43.579152727403674,0.291145951189984,0.12687893872873526,0.091796875,,
1.7674100000000326,1200,,,,-0.0625,0.16015625,-0.93359375,0.013778818276140173,0.6716482231366604,22.44514252080925,0.24043165419596438,1603,0,5.396522744942345,2.3130203664735207,42.861310436267466,0.29037713323755526,0.12445944451288254,0.091796875,,
1.7754650000000256,1200,,,,-0.03125,0.03125,-0.978515625,0.013778818276140173,0.6716482231366604,22.445226358263792,0.24285558294761392,1604,0,5.4509485316273025,2.314463980674849,42.459839186628656,0.29019601460413397,0.12321676112692069,0.091796875,,
1.784060000000056,1200,,,,-0.0625,0.029296875,-0.9765625,0.013599964048939074,0.6716482231366604,22.445165238139477,0.23974166086992363,1606,0,5.381041192691433,2.287694762280312,42.51397973662559,0.2935917125880813,0.12481752119810895,0.091796875,,
1.7925050000000047,1200,,,,-0.03125,0.08984375,-0.99609375,0.013599964048939074,0.6716482231366604,22.445246578238066,0.23793933219247146,1607,0,5.34060698172132,2.2890255686222765,42.86077549717963,0.29342102261483843,0.12576252576447458,0.091796875,,
1.8024550000000163,1200,,,,-0.1875,0.0546875,-1.05859375,0.013599964048939074,0.6716482231366604,22.44483557418694,0.23841115656548664,1610,0,5.3510992081640865,2.2931822657411804,42.85441507499074,0.29288915807988625,0.12551593551320026,0.091796875,,
1.8095850000000793,1200,,,,-0.01953125,0.0703125,-0.951171875,0.013599964048939074,0.6716482231366604,22.444796805021276,0.23793404045823444,1613,0,5.340381191082783,2.297474610623656,43.020798111938404,0.29234195669929064,0.1257678429880922,0.09375,,
1.8199850000000442,1200,,,,-0.0625,-0.01171875,-0.95703125,0.013599964048939074,0.6716482231366604,22.444557145164364,0.23668514538128818,1614,0,5.312293270921858,2.2993154955460677,43.282917156173134,0.2921079009982272,0.1264328207956989,0.09375,,
1.8272750000000233,1200,,,,-0.0625,0.029296875,-0.955078125,0.013599964048939074,0.6716482231366604,22.444581483155748,0.23645353411159112,1614,0,5.307100613347754,2.298734887195442,43.31432649710752,0.2921816808358013,0.12655652720195562,0.09375,,
1.8353099999999978,1200,,,,-0.03125,0.09375,-0.943359375,0.013599964048939074,0.6716482231366604,22.44455226649462,0.23494345561677996,1612,0,5.273200669261677,2.29599005943858,43.54072988009484,0.2925309804263234,0.1273701240030186,0.09375,,
1.8427500000000583,1200,,,,0,-0.11328125,-1.02734375,0.013599964048939074,0.6716482231366604,22.444613682083563,0.2384239764582425,1611,0,5.351334044151439,2.295024561003993,42.88696130850331,0.29265404586469335,0.12551042741776056,0.09375,,
1.8505650000000606,1200,,,,-0.0625,0.099609375,-0.962890625,0.013599964048939074,0.6716482231366604,22.444681101254098,0.2419333439362714,1611,0,5.430116752409638,2.2945639538834266,42.25625448781012,0.292712792772645,0.12368946263238513,0.09375,,
1.8578500000000349,1200,,,,0,0,-1,0.013599964048939074,0.6716482231366604,22.444583346857137,0.2426322843903412,1613,0,5.445780529637357,2.2970874574418247,42.18105090611853,0.29239122827506464,0.12333369284373023,0.09375,,
1.8674450000000653,1200,,,,-0.0625,0.07421875,-0.970703125,0.013599964048939074,0.6716482231366604,22.44455394959021,0.24080712290275416,1614,0,5.404808461436467,2.2981105610525705,42.51974103152193,0.2922610576355539,0.12426864484262456,0.09375,,
1.8753350000000208,1200,,,,-0.0625,0.029296875,-0.978515625,0.013599964048939074,0.6716482231366604,22.44474203437697,0.23916949288563497,1614,0,5.368097570310835,2.298521312393907,42.81817314771373,0.29220882987469005,0.12511848272865303,0.09375,,
1.88475,1200,,,,0,0.02734375,-0.98828125,0.013599964048939074,0.6716482231366604,22.444705699149043,0.2399044005928753,1616,0,5.384583667237843,2.301391195458565,42.74037395799481,0.29184443933828064,0.12473540474879447,0.09375,,
1.8926100000000443,1200,,,,-0.0625,0.072265625,-0.978515625,0.013599964048939074,0.6716482231366604,22.444667216674336,0.23973569211723664,1617,0,5.380787829530473,2.302588326498792,42.79277309285238,0.29169270746627,0.1248233984344386,0.09375,,
1.9012450000000536,1200,,,,-0.0625,0.04296875,-0.96484375,0.013599964048939074,0.6716482231366604,22.444633968999096,0.23872450495026962,1617,0,5.3580841330393145,2.3030008517374427,42.98179712290353,0.2916404579833098,0.12535230997869296,0.09375,,
1.9096300000000046,1200,,,,-0.03125,0.01171875,-1.005859375,0.013599964048939074,0.6716482231366604,22.444599192540693,0.23873863074685545,1616,0,5.358392878889142,2.3007974383538046,42.93819976169397,0.2919197544035938,0.12534508728966157,0.09375,,
1.9184100000000326,1200,,,,0,0.06640625,-0.9921875,0.013599964048939074,0.6708916230292642,22.44456947872941,0.23842789844824372,1614,0,5.351411532389046,2.2989201310631024,42.95913549442139,0.29182902614325273,0.12536722675293038,0.09375,,
1.926460000000021,1200,,,,-0.03125,0.05859375,-0.99609375,0.013532066345807994,0.6708916230292642,22.444322277925696,0.23740113588828274,1614,0,5.32830760302225,2.2866790682958853,42.91567301780525,0.29339124686580376,0.12591082816779012,0.09375,,
1.9383050000000512,1200,,,,-0.0625,-0.05859375,-0.953125,0.013532066345807994,0.6708916230292642,22.44430634027768,0.2365127500963822,1613,0,5.308364616544742,2.2861000326553778,43.06599485518045,0.2934655585696319,0.12638386235532426,0.09375,,
1.9464950000000536,1200,,,,-0.01953125,0.078125,-0.99609375,0.013532066345807994,0.6708916230292642,22.44435677367093,0.2355080512032193,1613,0,5.285826724277015,2.285457887212926,43.237472706325356,0.2935480136312659,0.1269227422737788,0.09375,,
1.9548750000000583,1200,,,,-0.03125,0.005859375,-0.955078125,0.013532066345807994,0.6708916230292642,22.44454054167437,0.23437028344206182,1613,0,5.26033332847907,2.2853064069848656,43.44413679286024,0.2935674712934488,0.12753785380806665,0.09375,,
1.9627050000000745,1200,,,,-0.0625,0.14453125,-1.0390625,0.013532066345807994,0.6708916230292642,22.444763496285027,0.23387863800668177,1611,0,5.249350716893231,2.2828273527342837,43.48780403236896,0.29388627318912036,0.12780468656251717,0.09375,,
1.9732000000000698,1200,,,,-0.03125,0.0234375,-0.9921875,0.013532066345807994,0.6708916230292642,22.444721204371277,0.2333196704483476,1610,0,5.236794954708945,2.2817090873008565,43.57071657444092,0.29403030682710485,0.12811111163059685,0.091796875,,
1.986920000000042,1200,,,,0,0.083984375,-1.01171875,0.013532066345807994,0.6708916230292642,22.444652979456652,0.23282867230489332,1610,0,5.22575875355096,2.281225576400594,43.65348046062165,0.294092627213054,0.12838166755657943,0.091796875,,
1.995890000000072,1200,,,,-0.08203125,0.033203125,-0.96484375,0.013532066345807994,0.6708916230292642,22.44474036314167,0.23320163805016755,1608,0,5.234150218295349,2.2788404947760434,43.53792687895406,0.2944004306432149,0.12817584422476877,0.09375,,
2.0047800000000278,1200,,,,0,0.046875,-0.943359375,0.013532066345807994,0.6708916230292642,22.444477166386374,0.23569169349677863,1607,0,5.289976832995384,2.277865216644072,43.06002253991458,0.29452647949806,0.12682316845788152,0.09375,,
2.0135350000000325,1200,,,,-0.03125,0.005859375,-0.9765625,0.013532066345807994,0.6708916230292642,22.444524233944396,0.23527589965165877,1606,0,5.280655631394725,2.2763528660574437,43.107390917976105,0.29472215535336704,0.12704703163006079,0.09375,,
2.019810000000056,1200,,,,0,0.0703125,-0.984375,0.013532066345807994,0.6708916230292642,22.444390026638263,0.23625325986264137,1606,0,5.302560309421846,2.2753772148908733,42.910916276574405,0.2948485282522441,0.12652220510103232,0.091796875,,
2.0276350000000676,1200,,,,-0.125,-0.0390625,-0.9765625,0.013532066345807994,0.6708916230292642,22.444460788352604,0.23608703298680642,1605,0,5.298846154510884,2.2749333582131244,42.932617628018576,0.29490605542670695,0.12661088913822063,0.09375,,
2.0359950000000535,1200,,,,-0.03125,0.064453125,-0.99609375,0.013532066345807994,0.6708916230292642,22.444237652502558,0.23590625789956446,1605,0,5.294736116010384,2.2747283838697507,42.96207278378535,0.29493262922580166,0.12670917083112068,0.09375,,
2.043420000000042,1200,,,,-0.03125,0.001953125,-0.96875,0.013532066345807994,0.6708916230292642,22.444290445823828,0.23636836347506604,1605,0,5.305120202038439,2.2738326491233396,42.8610957438748,0.29504881253592774,0.12646115403218966,0.09375,,
2.0523500000000348,1200,,,,-0.125,-0.01953125,-0.9609375,0.013532066345807994,0.6708916230292642,22.444342846441764,0.2378053278848962,1604,0,5.337384309759108,2.2734672935280678,42.59515825703538,0.29509622810018293,0.12569670536981503,0.09375,,
2.061960000000021,1200,,,,-0.0625,0.142578125,-1.021484375,0.013532066345807994,0.6740546304140203,22.444442476585824,0.2374850046875672,1604,0,5.330218526761817,2.273312538576872,42.649518535930305,0.2965076816212823,0.126459098633526,0.095703125,,
2.069350000000035,1200,,,,0,0.0234375,-0.9765625,0.013532066345807994,0.6740546304140203,22.44461372837132,0.23661724219866878,1605,0,5.310782602621603,2.2742865244554054,42.823943185562364,0.29638069925047267,0.12692190225999486,0.095703125,,
2.076930000000051,1200,,,,-0.0625,0.033203125,-0.998046875,0.013518239805725895,0.6740546304140203,22.44458391615473,0.2364157739162586,1605,0,5.306253676766131,2.2723558848323537,42.82410949898704,0.29663251030053756,0.1270302310206962,0.095703125,,
2.0840100000000676,1200,,,,0,0.0859375,-0.9375,0.013518239805725895,0.6740546304140203,22.444644969827422,0.2363860821706618,1605,0,5.305601690128956,2.272501622589778,42.83211886820971,0.29661348696678036,0.1270458413167531,0.09375,,
2.0911050000000397,1200,,,,-0.125,-0.015625,-1.00390625,0.013518239805725895,0.6740546304140203,22.444617251607994,0.2372434718118245,1605,0,5.324838920259051,2.272277910002352,42.67317648534252,0.29664268945576405,0.12658685840232475,0.095703125,,
2.0990900000000257,1200,,,,-0.03125,0.07421875,-0.970703125,0.013518239805725895,0.6740546304140203,22.444589909805295,0.24107100056289807,1605,0,5.410739746780688,2.271885972988927,41.98845406195458,0.2966938651094465,0.12457716725611742,0.095703125,,
2.107540000000037,1200,,,,-0.03125,0.021484375,-0.953125,0.013518239805725895,0.6740546304140203,22.44433792581164,0.24667868970149517,1605,0,5.53653987075679,2.271698348477864,41.03101217561259,0.29671836970153453,0.12174655039951582,0.095703125,,
2.1160400000000372,1200,,,,0.0625,0.0625,-0.94140625,0.013518239805725895,0.6740546304140203,22.444321445598504,0.2467796511462981,1605,0,5.538801816560176,2.271634999183839,41.013112120964415,0.296726644313984,0.12169683132526952,0.095703125,,
2.1259550000000744,1200,,,,-0.0625,-0.0078125,-0.9765625,0.013518239805725895,0.6740546304140203,22.444240504794426,0.24480679760884874,1613,0,5.494502642741534,2.2830155982922404,41.55090545471297,0.2952474923597684,0.12267800640781826,0.095703125,,
2.1332600000000093,1200,,,,-0.09375,0.10546875,-0.98828125,0.013518239805725895,0.6740546304140203,22.444388827787716,0.24272663835087696,1616,0,5.447851050008892,2.2880317599320796,41.99879436733765,0.2946002071378719,0.12372853520158561,0.095703125,,
2.141640000000014,1200,,,,-0.03125,-0.009765625,-0.9453125,0.013518239805725895,0.6740546304140203,22.444468088463374,0.24030353626623882,1617,0,5.393485051272498,2.2895038325543915,42.449433173347224,0.29441078928528364,0.12497571125278059,0.09765625,,
2.1499900000000487,1200,,,,0,0.2265625,-0.98828125,0.013518239805725895,0.6740546304140203,22.444640749367462,0.23843625266312016,1619,0,5.351616032649143,2.29196501221193,42.82753094073095,0.2940946422927737,0.12595347392296968,0.09765625,,
2.158540000000037,1200,,,,-0.03125,0.017578125,-0.962890625,0.013518239805725895,0.6740546304140203,22.444827088748767,0.23882722452731578,1620,0,5.360435758601381,2.293003985097782,42.77644744493798,0.29396138637119557,0.12574623794948556,0.09765625,,
2.1670800000000163,1200,,,,-0.03125,0.1328125,-1.005859375,0.013518239805725895,0.6740546304140203,22.444918337398917,0.23743614320465986,1620,0,5.329234844575545,2.293353388077642,43.0334457940425,0.2939165999964066,0.12648244073914636,0.09765625,,
2.1759000000000235,1200,,,,0,-0.060546875,-0.94921875,0.013518239805725895,0.6740546304140203,22.44494086018726,0.23810831372282368,1616,0,5.344327019827692,2.2873330940172627,42.79927267794719,0.29469019277387903,0.1261252591604607,0.099609375,,
2.1842550000000047,1200,,,,-0.125,0.1328125,-1.03515625,0.013518239805725895,0.6740546304140203,22.444828868749862,0.2380444512305351,1614,0,5.342866971024833,2.285254214638192,42.77205902807364,0.29495827032999855,0.126159725493732,0.099609375,,
2.192460000000021,1200,,,,0,-0.013671875,-0.95703125,0.013518239805725895,0.6740546304140203,22.445001578369347,0.23738637457692638,1614,0,5.32813755206249,2.2843940836160317,42.874157457360624,0.2950693294333175,0.1265084889096187,0.099609375,,
2.201640000000014,1200,,,,-0.0625,0.080078125,-0.958984375,0.013518239805725895,0.6740546304140203,22.445083683481666,0.23671676839413727,1612,0,5.313127675889759,2.281601110140083,42.94271188877456,0.2954305322776756,0.12686588230747536,0.099609375,,
2.2096900000000606,1200,,,,-0.09375,0.072265625,-1.021484375,0.013518239805725895,0.6754291124137203,22.44502377845699,0.23552211089886585,1610,0,5.286299379477428,2.2791134309349124,43.11358981640219,0.2963560756766079,0.12776974286319917,0.1015625,,
2.2165,1200,,,,0,0.00390625,-1,0.013518239805725895,0.6754291124137203,22.444896926879295,0.23539407138789434,1609,0,5.283395669499755,2.2783475921711123,43.122789484112815,0.2964556921580529,0.1278399640429867,0.099609375,,
2.224910000000033,1200,,,,-0.0625,0.09375,-1.0390625,0.013518239805725895,0.6754291124137203,22.444852041244644,0.23492187426868003,1608,0,5.272786709212401,2.2768227781120816,43.1806349028704,0.29665423190020057,0.1280971808007401,0.099609375,,
2.2332050000000163,1200,,,,-0.0625,0.0234375,-0.96875,0.013344774400224095,0.6754291124137203,22.444940752024998,0.23353049227356457,1607,0,5.241578062871389,2.2459097802663,42.84796970162776,0.3007374197968156,0.12885987851599667,0.099609375,,
2.240805000000051,1200,,,,0.03125,0.087890625,-1.015625,0.013344774400224095,0.6754291124137203,22.444894654897777,0.23459541505499637,1607,0,5.265469377431414,2.2452367239358075,42.6407707081011,0.30082757208323263,0.1282751952387588,0.1015625,,
2.2485800000000165,1200,,,,-0.1875,0.03515625,-1.02734375,0.013344774400224095,0.6754291124137203,22.445047040406386,0.2344911831436613,1606,0,5.263165636220027,2.244970906412406,42.65438448227767,0.30086319180549886,0.12833134259837,0.1015625,,
2.257085000000021,1200,,,,0,0.015625,-0.96875,0.013344774400224095,0.6754291124137203,22.444995483761424,0.23487244747976183,1606,0,5.271711022943246,2.2446617993606863,42.57937867974164,0.3009046229619503,0.12812331887581763,0.1015625,,
2.2648800000000047,1200,,,,-0.03125,0.087890625,-0.994140625,0.013344774400224095,0.6754291124137203,22.444946674352106,0.234861114329186,1606,0,5.271445186997493,2.2445405552670397,42.57922591708639,0.3009208770270415,0.12812978006102171,0.1015625,,
2.2728800000000047,1200,,,,-0.0625,-0.06640625,-0.94921875,0.013344774400224095,0.6754291124137203,22.444965644452928,0.23453105557079992,1606,0,5.264041484843885,2.2444925995115543,42.63820119909483,0.3009273064926598,0.12830999040535704,0.103515625,,
2.2839650000000256,1200,,,,-0.0625,0.10546875,-0.99609375,0.013344774400224095,0.6754291124137203,22.44491209423098,0.2340559314334,1606,0,5.253364806156017,2.2441835271238255,42.71897364702406,0.3009687506615642,0.12857076128089115,0.103515625,,
2.292445000000007,1200,,,,0,-0.009765625,-0.951171875,0.013344774400224095,0.6754291124137203,22.444917798224374,0.23522503218196875,1606,0,5.279606511408971,2.243910115506411,42.501465036408135,0.3010054225194701,0.12793171440980516,0.103515625,,
2.302015000000014,1200,,,,-0.03125,0.083984375,-1.015625,0.013344774400224095,0.6754291124137203,22.444467980943788,0.23410153289441396,1606,0,5.254284359338533,2.2438354580217985,42.7048729106903,0.3010154376512035,0.12854826009050463,0.103515625,,
2.3091700000000417,1200,,,,-0.09375,0.021484375,-0.982421875,0.013344774400224095,0.6754291124137203,22.444659181726298,0.2340132844619632,1606,0,5.25234841374513,2.2444483547584335,42.732282361254356,0.3009332386649706,0.12859564126518272,0.103515625,,
2.318415000000037,1200,,,,0,0.17578125,-1.0625,0.013344774400224095,0.6754291124137203,22.44462657050415,0.23350736840583403,1606,0,5.240985685330084,2.24466100801433,42.828985667663744,0.30090472904468446,0.12887444327587033,0.103515625,,
2.327015000000014,1200,,,,-0.03125,0.04296875,-0.982421875,0.013344774400224095,0.6754291124137203,22.444591661420702,0.231998160638286,1606,0,5.207103981727014,2.2447494048861585,43.10936391444316,0.3008928795987249,0.1297130064588616,0.103515625,,
2.3351750000000466,1200,,,,-0.03125,0.033203125,-0.9765625,0.013344774400224095,0.6754291124137203,22.44456308056342,0.23359512965565135,1606,0,5.242940622868658,2.2439702070334944,42.799840174533834,0.30099736186187187,0.12882638980644442,0.103515625,,
2.342625,1200,,,,-0.125,0.046875,-0.9609375,0.013344774400224095,0.6754291124137203,22.44466653108597,0.23481940669642246,1605,0,5.270443278328658,2.2432490784017993,42.562816065694754,0.3010941223232015,0.1281541374690422,0.103515625,,
2.3504700000000303,1200,,,,-0.03125,0.001953125,-0.966796875,0.013344774400224095,0.6754291124137203,22.444829308524053,0.23533996355336947,1605,0,5.282165311429649,2.2429661257497764,42.46300510316108,0.30113210567900955,0.12786974140173427,0.103515625,,
2.357965000000084,1200,,,,-0.09375,0.087890625,-1.021484375,0.013344774400224095,0.6723527020383956,22.44478929266794,0.2352014208112628,1605,0,5.279046331444918,2.243258321379895,42.49362821496391,0.29972147907817026,0.12736253099986852,0.103515625,,
2.366835000000079,1200,,,,0.0625,0.1015625,-0.99609375,0.013344774400224095,0.6723527020383956,22.444850167084155,0.2344106229982981,1606,0,5.261311310769652,2.243789553190824,42.64696423870403,0.29965051806318627,0.1277918492794984,0.103515625,,
2.374975000000035,1200,,,,-0.0625,0.0703125,-0.990234375,0.013344774400224095,0.6723527020383956,22.444808053155406,0.23592841164102554,1606,0,5.295367913568653,2.2439937144269497,42.37654023390941,0.2996232555001139,0.12696996941715497,0.103515625,,
2.383115000000049,1200,,,,-0.125,-0.01171875,-0.94140625,0.013107661871910146,0.6723527020383956,22.444833805950246,0.23618443168778516,1606,0,5.301120316785147,2.204200021142656,41.579890465104334,0.3050325268075482,0.12683219052951858,0.10546875,,
2.3912150000000256,1200,,,,0,0.052734375,-0.96875,0.013107661871910146,0.6723527020383956,22.44469531668985,0.23600288685718537,1606,0,5.2970128893687525,2.204430584602152,41.616485189728415,0.30500062316987836,0.1269305391700718,0.103515625,,
2.3989550000000164,1200,,,,-0.03125,0.009765625,-1.009765625,0.013107661871910146,0.6723527020383956,22.4447930946838,0.23593542981588142,1606,0,5.295521905922749,2.204522406996071,41.62993650409479,0.30498791933557967,0.12696627716456166,0.10546875,,
2.4067450000000536,1200,,,,-0.0625,0.01171875,-0.97265625,0.013107661871910146,0.6723527020383956,22.444884852070913,0.23672101228089984,1606,0,5.3131758627104615,2.2045581535540046,41.492286544217116,0.3049829740052376,0.12654440948532839,0.103515625,,
2.414365000000049,1200,,,,-0.03125,0.041015625,-0.966796875,0.013107661871910146,0.6723527020383956,22.44484764525746,0.23599461234082345,1606,0,5.296863119091379,2.2038375875840295,41.606466658365804,0.30508269113218384,0.1269341281663572,0.103515625,,
2.4230100000000676,1200,,,,-0.0625,-0.013671875,-0.96484375,0.013107661871910146,0.6723527020383956,22.444801193325866,0.23580147904309337,1605,0,5.2925173182144265,2.202622183295834,41.61766605307865,0.3052510353965195,0.12703835653488837,0.103515625,,
2.4307350000000443,1200,,,,0.0625,0.16015625,-0.98828125,0.013107661871910146,0.6723527020383956,22.444827615974614,0.23542049453525546,1604,0,5.283972417111302,2.2022069000832314,41.67710817247523,0.30530859839417646,0.1272437948126089,0.103515625,,
2.4415599999999977,1200,,,,-0.0625,0.021484375,-0.9921875,0.013107661871910146,0.6723527020383956,22.44488544492932,0.2349543128736466,1604,0,5.27352263724108,2.2016452221604834,41.749042786176524,0.30538648791861805,0.12749593550434565,0.10546875,,
2.4612100000000208,1200,,,,-0.041015625,0.03125,-0.9765625,0.013107661871910146,0.6723527020383956,22.444673216284762,0.23569209084265855,1603,0,5.290031958626374,2.200719700441232,41.60125529775963,0.3055149194618436,0.1270980416180663,0.103515625,,
2.469320000000007,1200,,,,-0.0625,0.15234375,-1,0.013107661871910146,0.6723527020383956,22.444640895315832,0.2352247320568238,1604,0,5.2795346407122965,2.2022408917091405,41.71278420501133,0.3053038859507274,0.12735075111614083,0.103515625,,
2.4772150000000255,1200,,,,0,-0.01953125,-0.962890625,0.013107661871910146,0.6723527020383956,22.44467541976362,0.23725105094294394,1605,0,5.32502283141218,2.2028634375876717,41.36815009680398,0.30521760476204585,0.12626287685983306,0.103515625,,
2.484340000000084,1200,,,,-0.0625,0.1953125,-1.05859375,0.013107661871910146,0.6723527020383956,22.444471627048202,0.24044840010810561,1605,0,5.3967372939955105,2.2030885245548233,40.82260085192607,0.305186421037828,0.12458503451455107,0.10546875,,
2.4921450000000185,1200,,,,-0.03125,0.001953125,-0.9765625,0.013107661871910146,0.6723527020383956,22.444544578158027,0.24224166197981115,1607,0,5.43700378099296,2.2054632177422797,40.563944896494,0.30485781700167247,0.12366235690121295,0.10546875,,
2.4993300000000165,1200,,,,-0.0625,-0.015625,-0.97265625,0.013107661871910146,0.6723527020383956,22.444460756638126,0.24248366011917957,1609,0,5.442414993670903,2.208577112655027,40.5808288273391,0.30442799492299866,0.12353940352220263,0.103515625,,
2.506655000000028,1200,,,,-0.0625,0.1015625,-1.005859375,0.013107661871910146,0.6723527020383956,22.44452975201833,0.2414519243472987,1610,0,5.419274899695025,2.209902884495712,40.77857140297637,0.3042453615294606,0.12406691199153468,0.103515625,,
2.5139100000000325,1200,,,,0,-0.015625,-0.95703125,0.013107661871910146,0.6710364340169385,22.444594155655427,0.2410588162264722,1610,0,5.410467297845893,2.2104574837632778,40.85520458913673,0.3035735538665538,0.12402559651069377,0.103515625,,
2.522915000000037,1200,,,,-0.0625,0.056640625,-0.982421875,0.013107661871910146,0.6710364340169385,22.444564071832385,0.23963449991938499,1614,0,5.3784918872621486,2.2152346071686253,41.18690989224977,0.30291890161223844,0.12476293505362537,0.103515625,,
2.534500000000058,1200,,,,-0.0625,0.04296875,-0.9296875,0.012781052843220295,0.6710364340169385,22.44452587243827,0.2388554793280783,1615,0,5.3609979855526975,2.162079846902518,40.32980151697663,0.3103661666234446,0.12517005897508415,0.103515625,,
2.5430900000000256,1200,,,,-0.041015625,0.025390625,-0.9921875,0.012781052843220295,0.6710364340169385,22.444606999894827,0.23778830519849078,1616,0,5.337065059351174,2.162319503062643,40.51514229293499,0.31033176783842675,0.12573135731991925,0.103515625,,
2.5509850000000442,1200,,,,0,-0.025390625,-0.927734375,0.012781052843220295,0.6710364340169385,22.444642671985264,0.23731411122336263,1615,0,5.326430427428142,2.1615119563451577,40.580872796433766,0.3104477086268706,0.12598238973731365,0.103515625,,
2.5586050000000395,1200,,,,-0.0625,0.09765625,-0.94921875,0.012781052843220295,0.6710364340169385,22.444708722969043,0.23612893107528718,1615,0,5.299845079050854,2.1611954600980634,40.77846480156191,0.3104931721383916,0.12661434891170706,0.1015625,,
2.5749950000000537,1200,,,,-0.03125,0.099609375,-0.994140625,0.012781052843220295,0.6710364340169385,22.44480336376779,0.2341716598991726,1613,0,5.255936859804036,2.158861204345897,41.0747172565233,0.31082889102185357,0.12767208813881328,0.1015625,,
2.583015000000014,1200,,,,-0.125,0.0859375,-0.9296875,0.012781052843220295,0.6710364340169385,22.444699739157898,0.23440497611363786,1612,0,5.261149306235081,2.1577929495160304,41.013718180527434,0.3109827725442539,0.12754559792129094,0.103515625,,
2.5947350000000444,1200,,,,-0.03125,0.033203125,-1.015625,0.012781052843220295,0.6710364340169385,22.44476414196483,0.23430928081290642,1612,0,5.259016544119089,2.1573626872261307,41.02216962292328,0.3110447946421731,0.1275973232613856,0.103515625,,
2.609935000000056,1200,,,,-0.0625,0.0625,-0.966796875,0.012781052843220295,0.6710364340169385,22.44482205226754,0.23123254645654326,1610,0,5.189973357909801,2.155190444430968,41.52604061341358,0.31135830049307367,0.12929477431598807,0.103515625,,
2.619185000000056,1200,,,,0,0.01953125,-1.03125,0.012781052843220295,0.6710364340169385,22.444718293863215,0.23453123227439027,1610,0,5.26398743951129,2.1547724554155527,40.934224866152086,0.3114186986799623,0.12747683039290034,0.103515625,,
2.6271450000000187,1200,,,,-0.0625,0.033203125,-0.966796875,0.012781052843220295,0.6710364340169385,22.444532668516825,0.23644167787438794,1610,0,5.306822963250632,2.1552856805801763,40.61348372661713,0.3113445424257186,0.1264478650717798,0.103515625,,
2.634520000000019,1200,,,,-0.0625,0.0234375,-0.994140625,0.012781052843220295,0.6710364340169385,22.44470322199034,0.2389685923218335,1611,0,5.363579134040353,2.155787474991309,40.19307669592202,0.31127207194653717,0.12510982261045725,0.103515625,,
2.6426650000000373,1200,,,,0,0,-0.9765625,0.012781052843220295,0.6710364340169385,22.444799963036683,0.2377942372456431,1611,0,5.337244087341347,2.1559850014985105,40.39509841065703,0.3112435538978874,0.12572713989387796,0.103515625,,
2.649685000000056,1200,,,,-0.03125,0.103515625,-0.962890625,0.012781052843220295,0.6710364340169385,22.44493887050909,0.23699843490713948,1613,0,5.3194153838970735,2.1582690493812504,40.573425717321484,0.31091417180324044,0.12614853054121303,0.103515625,,
2.657975000000035,1200,,,,-0.125,-0.0390625,-1.0546875,0.012781052843220295,0.6718848229395616,22.444958435340343,0.2361284081202593,1617,0,5.299892305662301,2.164102091206625,40.832944641055086,0.310468173229731,0.12677329730299108,0.103515625,,
2.665185000000056,1200,,,,-0.03125,0.076171875,-0.947265625,0.012781052843220295,0.6718848229395616,22.444917989493984,0.235424425041694,1618,0,5.284081912784596,2.1661869656350627,40.99457581068287,0.31016935915436306,0.1271526130800446,0.103515625,,
2.673040000000037,1200,,,,0,0.10546875,-0.94140625,0.012781052843220295,0.6718848229395616,22.444872980626105,0.23538605305758661,1619,0,5.283210062288449,2.167192139032495,41.02036666120682,0.31002549835729515,0.1271735961693962,0.103515625,,
2.6823699999999953,1200,,,,-0.0625,0.044921875,-0.962890625,0.01255800374166445,0.6718848229395616,22.444823975490856,0.23558806356380227,1617,0,5.287732617416292,2.126737333055224,40.22021321672647,0.31592280461562533,0.12706482561666668,0.103515625,,
2.6903100000000557,1200,,,,0,0.048828125,-0.998046875,0.01255800374166445,0.6718848229395616,22.4447178696135,0.2347942236101731,1615,0,5.269890106345279,2.1244429338261535,40.31285076074339,0.31626400137257965,0.12749503488328345,0.103515625,,
2.698305000000051,1200,,,,-0.03125,0.0078125,-0.962890625,0.01255800374166445,0.6718848229395616,22.444780417432128,0.2346810672452947,1615,0,5.267365022449263,2.1235443289665223,40.315116190278744,0.3163978325173705,0.12755615380290147,0.103515625,,0.25855499999999304,4767,
2.716100000000035,1200,,,,-0.03125,0.015625,-0.974609375,0.01255800374166445,0.6718848229395616,22.444612018146437,0.2344586676837439,1612,0,5.26233383045316,2.1202208332579215,40.29050420534307,0.3168937935144928,0.12767810720242792,0.103515625,,
2.73325,1500,,,,-0.0625,0.02734375,-0.953125,0.01255800374166445,0.6718848229395616,22.444340367702495,0.2422901993808719,1613,0,5.438043702662789,2.121501130864271,39.0122118699682,0.31670255234124944,0.1235526707169652,0.103515625,,
2.743655000000028,1500,,,,-0.03125,0.04296875,-1.01171875,0.01255800374166445,0.6718848229395616,22.444427553247362,0.24006699797226053,1615,0,5.388166343913983,2.1240202085594744,39.42009346015436,0.3163269446458039,0.12469637721902666,0.103515625,,
2.7532449999999953,1500,,,,-0.0625,-0.015625,-0.94140625,0.01255800374166445,0.6718848229395616,22.4444650424032,0.23828952930977057,1616,0,5.348281010563858,2.125057742932588,39.73347209571075,0.31617250174687395,0.12562631275590477,0.103515625,,
2.761865000000049,1500,,,,0.03125,0.142578125,-1.166015625,0.01255800374166445,0.6718848229395616,22.426978561926447,0.8808665585835982,1636,0,19.755175425272284,2.150967355382374,10.888120753565655,0.3123640260082524,0.03401057234247775,0.10546875,,
2.7713400000000257,1500,,,,-0.25,-0.001953125,-0.642578125,0.01255800374166445,0.6718848229395616,22.408867633502005,1.3404149595085344,1655,0,30.037181401592697,2.175855356303142,7.243873275632211,0.30879112482969395,0.022368437769062298,0.11328125,,
2.779935000000056,1500,,,,-0.40625,0.90234375,-0.65234375,0.01255800374166445,0.6718848229395616,22.39828629855067,1.6671912072201749,1851,0,37.342225973743794,2.4345051559266566,6.519443049909277,0.2759841445822772,0.01799262913282084,0.123046875,,
2.7880600000000557,1500,,,,0.15625,-0.369140625,-1.197265625,0.01255800374166445,0.6718848229395616,22.390669062262337,1.8796631493523521,2014,0,42.0869155256783,2.6489114048231968,6.293907195947939,0.25364563787077926,0.015964221054157023,0.1328125,,
2.7951750000000466,1500,,,,0.25,-0.296875,-0.7265625,0.01255800374166445,0.6718848229395616,22.385489013166875,2.0111267635019314,2368,0,45.020056068458345,3.11461517715294,6.918283647663161,0.2157200118551177,0.014924122304909639,0.138671875,,
2.802375,1500,,,,-0.03125,0.45703125,-1.1015625,0.01255800374166445,0.6718848229395616,22.381377122629402,2.118020946371981,3363,0,47.40422555437973,4.421927096853297,9.32812854790906,0.15194389419438506,0.01417352177115117,0.142578125,,
2.8111050000000395,1500,,,,-0.5625,0.5078125,-0.94921875,0.01255800374166445,0.6728130568134003,22.377133297066525,2.221172406165091,5760,0,49.70347100852223,7.575397449524355,15.241183957203846,0.08881554549400507,0.013536540671335386,0.1484375,,
2.8195000000000583,1500,,,,-0.5,0.083984375,-0.927734375,0.01255800374166445,0.6728130568134003,22.374739848058677,2.2812837827851453,5561,0,51.04313115941283,7.3134800361921215,14.328039581567573,0.09199629362271576,0.013181265363837841,0.15234375,,
2.8270050000000047,1500,,,,-0.34375,0.052734375,-1.013671875,0.01255800374166445,0.6728130568134003,22.372827235828677,2.324452260182217,5382,0,52.004568834988234,7.077447014911156,13.609279287302753,0.09506437213812843,0.012937575906998722,0.15625,,
2.8358850000000677,1500,,,,0.0625,-0.078125,-0.9609375,0.0124629760462665,0.6728130568134003,22.371612674481874,2.3539693247462896,4702,0,52.66208998083563,6.136161933499015,11.651952924261149,0.10964721337295984,0.012776041684981457,0.15625,,
2.845045000000042,1500,,,,-0.03125,0.109375,-0.984375,0.0124629760462665,0.6728130568134003,22.370485739116024,2.3733319337985264,3782,0,53.09258817922859,4.93538254170786,9.29580325797477,0.1363243985907073,0.012672447885609483,0.15625,,
2.8530800000000744,1500,,,,0,0.009765625,-0.857421875,0.0124629760462665,0.6728130568134003,22.370291722844332,2.378169618739908,3560,0,53.200348137617226,4.6462661434398065,8.733525824720113,0.14480725727762367,0.012646779210410158,0.15625,,
2.8616600000000325,1500,,,,-0.03125,0.11328125,-0.916015625,0.0124629760462665,0.6728130568134003,22.370166679473492,2.378319202278274,3485,0,53.20339697195742,4.548439042811327,8.549151561146989,0.14792174864402358,0.012646054483476468,0.15625,,
2.8714899999999908,1500,,,,-0.0625,-0.12890625,-0.9140625,0.0124629760462665,0.6728130568134003,22.37027817458991,2.3699056215099965,3489,0,53.01544800070301,4.553751912234311,8.589481149294308,0.1477491681103204,0.01269088694307513,0.15625,,
2.879225000000035,1500,,,,0.09375,0.041015625,-0.984375,0.0124629760462665,0.6728130568134003,22.37062887499,2.3584806011593096,3521,0,52.760694237398226,4.594827679073852,8.708808224545523,0.14642835462091033,0.012752164590292521,0.15625,,
2.887164999999979,1500,,,,-0.0625,0.095703125,-0.923828125,0.0124629760462665,0.6728130568134003,22.371289461431125,2.342542636300321,3546,0,52.40569939241845,4.6277026375451635,8.830533112233695,0.14538813521741414,0.012838547421632854,0.15625,,
2.89982500000007,1500,,,,-0.09375,-0.0390625,-1.056640625,0.0124629760462665,0.6728130568134003,22.37170759513745,2.3256351694904747,3568,0,52.028429984808824,4.657049713642577,8.950971065247087,0.1444719507379169,0.012931642507948966,0.15625,,
2.915570000000007,1500,,,,-0.0625,0.017578125,-0.935546875,0.0124629760462665,0.6728130568134003,22.37317242154758,2.283787259591383,3621,0,51.09556613297165,4.7261187691461135,9.249567285049375,0.1423605900904941,0.013167738567813583,0.15625,,
2.9243099999999975,1500,,,,-0.0625,0.07421875,-1.0078125,0.0124629760462665,0.6728130568134003,22.37361983096853,2.270903258679533,3640,0,50.80832618260346,4.750668979541852,9.350178083938651,0.1416249079257645,0.013242181102273124,0.154296875,,
2.9327000000000116,1500,,,,0,0.01953125,-1.013671875,0.0124629760462665,0.6728130568134003,22.373930879656136,2.258811404687125,3656,0,50.53849023864871,4.771755979621507,9.441825343592008,0.14099904934090268,0.013312883974893152,0.15625,,
2.940335000000021,1500,,,,0.03125,0.15625,-0.970703125,0.0124629760462665,0.6728130568134003,22.3746931758453,2.2330787709187514,3672,0,49.964452336800804,4.792159224370689,9.591137299109498,0.1403987274445696,0.013465834715411197,0.15625,,
2.9481050000000395,1500,,,,0,-0.0625,-0.87890625,0.0124629760462665,0.6728130568134003,22.375473144230668,2.2091262350854595,3686,0,49.4302447453701,4.811114160838265,9.73313845727802,0.13984558136034184,0.013611364060187453,0.15625,,
2.9563950000000188,1500,,,,0,-0.0390625,-1.03125,0.0124629760462665,0.6728130568134003,22.37628861200609,2.186121395214623,3692,0,48.917283280203826,4.818658982168635,9.850626729548333,0.13962661796635403,0.013754096950958004,0.15625,,
2.9645100000000677,1500,,,,-0.0625,0.076171875,-0.923828125,0.0124629760462665,1.6048704559448737,22.377057745986363,2.162207318540778,3697,0,48.38383802578132,4.825639872769253,9.9736607711813,0.33257153419198254,0.033169556641821564,0.15625,,
2.972475000000035,1500,,,,0.3125,0.11328125,-1.08203125,0.0124629760462665,1.6048704559448737,22.377773156907047,2.138791809388846,3703,0,47.86139794035437,4.832362406856681,10.096575977322782,0.3321088777753318,0.033531625172020435,0.158203125,,
2.980304999999993,1500,,,,-0.15625,-0.033203125,-0.99609375,0.02928523434895302,1.6048704559448737,22.37868944183575,2.1162732153700623,3706,0,47.359421060841804,11.364711089280547,23.996727229162083,0.1412152445704162,0.0338870370455569,0.158203125,,
2.989000000000058,1500,,,,0,0.1875,-1.017578125,0.02928523434895302,1.6048704559448737,22.37955760368696,2.096255117014146,3708,0,46.91326214324163,11.370077347747667,24.236381842369177,0.14114859616700737,0.034209312732179566,0.16015625,,
2.9964249999999883,1500,,,,-0.125,0.0703125,-0.90625,0.02928523434895302,1.6048704559448737,22.38034835614976,2.076954959018643,3710,0,46.48297550286998,11.376833993581656,24.47527050603553,0.14106476870896384,0.03452598373023226,0.16015625,,
3.004510000000009,1500,,,,-0.0625,-0.1328125,-1.07421875,0.02928523434895302,1.6048704559448737,22.38104852309332,2.057438063411619,3711,0,46.047621130474596,11.381946065603966,24.717772137139406,0.14100141106754696,0.03485240749782752,0.162109375,,
3.0123450000000305,1500,,,,-0.1875,0.03125,-0.91796875,0.02928523434895302,1.6048704559448737,22.38158398968676,2.0380796208650893,3712,0,45.61545021206094,11.382380213551595,24.95290556299725,0.1409960329768419,0.03518260695628382,0.162109375,,
3.0199550000000164,1500,,,,-0.03125,0.111328125,-0.94140625,0.02928523434895302,1.6048704559448737,22.38215916379578,2.020452715162565,3711,0,45.222094253691864,11.379372552495147,25.16330289494753,0.14103329937932077,0.035488636305556646,0.162109375,,
3.028395000000019,1500,,,,-0.15625,-0.140625,-0.970703125,0.02928523434895302,1.6048704559448737,22.382641502572557,2.00300867719558,3714,0,44.832625148210745,11.389339739366491,25.404133043101616,0.1409098764871985,0.03579693249367807,0.1640625,,
3.0365350000000326,1500,,,,-0.0625,0.296875,-0.9765625,0.02928523434895302,1.6048704559448737,22.383000816557505,1.9909492278144012,3716,0,44.56341819189428,11.395249126385773,25.57085966187952,0.14083680296456055,0.03601318123834555,0.166015625,,
3.0446100000000444,1500,,,,-0.03125,-0.01171875,-0.958984375,0.02928523434895302,1.6048704559448737,22.38305039478564,1.9848908830414713,3715,0,44.427912663267826,11.393994518709945,25.646027093526474,0.14085231068959483,0.036123021761311574,0.166015625,,
3.0551450000000187,1500,,,,0.03125,0.240234375,-0.974609375,0.02928523434895302,1.6048704559448737,22.38309691918873,1.9765498228400868,3721,0,44.24130625023498,11.412678197575193,25.796431355402344,0.1406217215767859,0.03627538587734059,0.16796875,,
3.063125000000058,1500,,,,-0.125,-0.189453125,-0.912109375,0.02928523434895302,1.6048704559448737,22.383702200627642,1.9522446041632753,3726,0,43.69846184237294,11.426875443822473,26.149376801959225,0.14044700704359991,0.03672601707890515,0.171875,,
3.0707700000000187,1500,,,,0.1875,0.44140625,-0.9921875,0.02928523434895302,1.6048704559448737,22.384128242886213,1.9384667676487457,3728,0,43.39088872162264,11.433070519889181,26.34901210076352,0.14037090501217597,0.03698634674760951,0.173828125,,
3.0878250000000116,1500,,,,0.03125,0.248046875,-0.970703125,0.02928523434895302,1.6048704559448737,22.384982281113924,1.9094565895196962,3729,0,42.743151922954624,11.437319741847967,26.758250684142247,0.1403187540585072,0.03754684396784038,0.17578125,,
3.0956800000000513,1500,,,,-0.125,-0.375,-0.79296875,0.02928523434895302,1.6048704559448737,22.385517774510813,1.897460270513423,3727,0,42.47563061200633,11.429031707591808,26.90726786846393,0.14042050954140134,0.037783322644566804,0.177734375,,
3.104380000000005,1500,,,,0.03125,0.29296875,-1.048828125,0.02928523434895302,1.6048704559448737,22.385874659595626,1.8838056147201125,3724,0,42.170636374166925,11.42126663105603,27.083458095625325,0.14051597846258185,0.03805658614457126,0.1796875,,
3.1125950000000304,1500,,,,-0.0625,-0.107421875,-0.951171875,0.02928523434895302,3.0197072921560455,22.38617470782549,1.8732421184881012,3728,0,41.93472533453177,11.43307374444268,27.263976700064248,0.2641203371598864,0.07200970718340255,0.181640625,,
3.120585000000021,1500,,,,0,0.4140625,-1.05078125,0.02928523434895302,3.0197072921560455,22.386592285984612,1.8634136078243388,3723,0,41.7154806985191,11.418480848258355,27.372286395979877,0.2644578847471323,0.07238816960973543,0.18359375,,
3.1296500000000234,1500,,,,0,-0.177734375,-0.93359375,0.05620586065840053,3.0197072921560455,22.386889533368592,1.8519579540647277,3723,0,41.459578138090365,21.913105512905393,52.854144921395275,0.1378037125033526,0.07283497391358487,0.18359375,,
3.137335000000021,1500,,,,0,0.16015625,-1.005859375,0.05620586065840053,3.0197072921560455,22.387139259455587,1.8428109200168528,3726,0,41.25526469526275,21.930887345036215,53.159002874012565,0.1376919795650457,0.07319568337426742,0.18359375,,
3.1444250000000467,1500,,,,-0.0625,-0.21875,-0.7890625,0.05620586065840053,3.0197072921560455,22.387349118608658,1.8362529933804552,3726,0,41.10883683289844,21.933149468186382,53.35385566208431,0.1376777784027813,0.07345640316778422,0.185546875,,
3.1527399999999908,1500,,,,0,0.189453125,-1.064453125,0.05620586065840053,3.0197072921560455,22.38764153455289,1.8276560287630315,3725,0,40.916908020411235,21.924994610620526,53.58419213808465,0.13772898674708414,0.07380096488839472,0.1875,,
3.161375000000058,1500,,,,0.0625,-0.00390625,-0.96484375,0.05620586065840053,3.0197072921560455,22.38788304875673,1.8181145884773875,3723,0,40.70373677607022,21.91176146281508,53.83230926281204,0.13781216527391374,0.0741874710120309,0.1875,,
3.1702450000000537,1500,,,,-0.0625,0.1796875,-1.125,0.05620586065840053,3.0197072921560455,22.388289209732513,1.8099127072388321,3724,0,40.52084913403291,21.916202809391663,54.08623777082832,0.13778423746206722,0.07452231028445637,0.189453125,,
3.179930000000051,1500,,,,-0.125,0.01171875,-0.99609375,0.05620586065840053,3.0197072921560455,22.388769892091805,1.79905780290642,3723,0,40.27869117184409,21.914573964188026,54.40736361241776,0.13779447855526364,0.0749703429853973,0.189453125,,
3.188335000000021,1500,,,,-0.0625,0.08203125,-1.01953125,0.05620586065840053,3.0197072921560455,22.38912974644522,1.7915655354258047,3723,0,40.111593221907945,21.91302332437057,54.63014945116223,0.13780422935970127,0.07528265644922719,0.189453125,,
3.1966500000000817,1500,,,,0.125,0.041015625,-1.03125,0.05620586065840053,3.0197072921560455,22.389469439175336,1.7865818309470014,3723,0,40.0006193045738,21.913964639278923,54.78406339767147,0.13779830997552475,0.07549151349791132,0.189453125,,
3.2077550000000628,1500,,,,-0.25,-0.0390625,-1.0390625,0.05620586065840053,3.0197072921560455,22.38972829904707,1.7790039182738242,3724,0,39.831414373091064,21.917433231423672,55.025495771072706,0.13777650239748887,0.07581220350026213,0.19140625,,
3.228655000000028,1500,,,,-0.21875,-0.109375,-0.990234375,0.05620586065840053,3.0197072921560455,22.389926521751967,1.761831828668025,3722,0,39.44728518756098,21.90665767832006,55.53400588699561,0.13784427257219167,0.07655044644512718,0.1953125,,
3.2368800000000046,1500,,,,-0.0625,0.111328125,-0.94921875,0.05620586065840053,3.0197072921560455,22.39022719175168,1.7547724052106184,3724,0,39.289752822482285,21.91920289509978,55.78859962325146,0.13776537890577792,0.07685737565719976,0.197265625,,
3.2458550000000397,1500,,,,-0.0625,0.19921875,-1.005859375,0.05620586065840053,3.0197072921560455,22.390539968246912,1.7500172960446123,3723,0,39.183832212210284,21.91463954062233,55.927759750342624,0.13779406622493287,0.07706513430850845,0.201171875,,
3.253795000000042,1500,,,,-0.0625,-0.14453125,-0.828125,0.05620586065840053,3.0197072921560455,22.39061245378682,1.7438425324911628,3722,0,39.04570232543978,21.908410306178872,56.10965868554681,0.13783324531330288,0.07733776350050668,0.201171875,,
3.2618400000000256,1500,,,,-0.09375,-0.033203125,-1.025390625,0.05620586065840053,3.652160623381935,22.39068055419875,1.739802147418779,3720,0,38.95535411036288,21.896782938684318,56.20994453458028,0.1667898263232899,0.09375246886564405,0.203125,,
3.2706150000000487,1500,,,,-0.09375,0.080078125,-0.869140625,0.05620586065840053,3.652160623381935,22.390679681567295,1.7339892098513214,3721,0,38.82519696907491,21.901738559041448,56.41114603098253,0.16675208744441225,0.09406676355797906,0.203125,,
3.278780000000028,1500,,,,0.0625,0.01953125,-1.05078125,0.06678522338205974,3.652160623381935,22.39100221106528,1.7303201160983532,3721,0,38.743601545408964,26.024303643008764,67.17058457383548,0.14033653593505702,0.09426487155824852,0.203125,,
3.2868400000000255,1500,,,,-0.0625,0.181640625,-0.927734375,0.06678522338205974,3.652160623381935,22.39125128543052,1.726078583893032,3721,0,38.649059310348946,26.020665596134663,67.32548232853674,0.14035615691262174,0.09449545961922044,0.205078125,,
3.2944100000000325,1500,,,,0.03125,-0.025390625,-1.07421875,0.06678522338205974,3.652160623381935,22.391287231238458,1.7209482263860738,3721,0,38.534246047100964,26.024689319604956,67.53652137839833,0.14033445619774157,0.09477701001124679,0.203125,,
3.3025950000000304,1500,,,,-0.25,-0.046875,-0.7734375,0.06678522338205974,3.652160623381935,22.3911916589939,1.7162912313865997,3721,0,38.429805904628,26.02631954621388,67.72430652083933,0.1403256659819665,0.09503458415703617,0.205078125,,
3.310460000000079,1500,,,,0.125,0.03125,-1.056640625,0.06678522338205974,3.652160623381935,22.39142813731541,1.712475411158116,3721,0,38.34477010586661,26.026967448059356,67.87618592105557,0.14032217278752734,0.09524533888972692,0.205078125,,
3.317679999999993,1500,,,,-0.3125,0.05078125,-0.89453125,0.06678522338205974,3.652160623381935,22.391509076774494,1.7120160955550934,3721,0,38.334623943205905,26.022153162914094,67.88159237316852,0.1403481333968502,0.09527054781580066,0.205078125,,
3.3253050000000512,1500,,,,0.1875,0.162109375,-0.9296875,0.06678522338205974,3.652160623381935,22.391340149641334,1.7089554845048274,3721,0,38.2658035541427,26.02348409026112,68.00715436026375,0.1403409555274998,0.0954418902562559,0.20703125,,
3.3326050000000396,1500,,,,-0.15625,-0.123046875,-0.984375,0.06678522338205974,3.652160623381935,22.391369279902353,1.7071487874158398,3721,0,38.225398914765584,26.02571410756155,68.0848724838511,0.1403289303912253,0.09554277331481792,0.20703125,,
3.3395200000000185,1500,,,,0.0625,0.12109375,-1.1875,0.06678522338205974,3.652160623381935,22.391481316377362,1.704374314154151,3720,0,38.16346561149615,26.016540729513796,68.17132645751312,0.1403784100796627,0.09569782421127337,0.208984375,,
3.3476450000000186,1500,,,,0.125,0.23828125,-1.0546875,0.06678522338205974,3.652160623381935,22.391506856782666,1.7023177576164716,3721,0,38.117459742092116,26.020382174473124,68.26368375681524,0.14035768571319557,0.09581332670364046,0.208984375,,
3.3578400000000257,1500,,,,-0.125,-0.228515625,-1.01171875,0.06678522338205974,3.652160623381935,22.391629549377136,1.7011108846525904,3722,0,38.090644751554024,26.030115341482755,68.33729255901024,0.1403052032413275,0.0958807772145399,0.2109375,,
3.3651100000000445,1500,,,,0.03125,0.109375,-0.9609375,0.06678522338205974,3.652160623381935,22.391652157897624,1.6991585153283835,3723,0,38.04696643636292,26.040458053498785,68.44292855004318,0.1402494770206714,0.09599084934906735,0.212890625,,
3.373265000000014,1500,,,,0,0.037109375,-1.060546875,0.06678522338205974,3.652160623381935,22.391864828237075,1.6965234603129642,3722,0,37.98832400126092,26.032555610528625,68.52778135109236,0.14029205115401164,0.09613903006778375,0.21484375,,
3.380265000000014,1500,,,,0.0625,0.359375,-0.86328125,0.06678522338205974,3.652160623381935,22.392041567675793,1.6940523164366903,3722,0,37.933289887467836,26.029658228772824,68.6195642560714,0.1403076671727056,0.0962785098317695,0.216796875,,
3.3877750000000817,1500,,,,-0.03125,-0.2109375,-0.984375,0.06678522338205974,3.652160623381935,22.392039759290444,1.6896445178395632,3722,0,37.83458722253063,26.028367220284327,68.79516635715889,0.14031462644094506,0.0965296806834742,0.21875,,
3.395850000000035,1500,,,,-0.0625,0.39453125,-0.9765625,0.06678522338205974,3.652160623381935,22.392235370906576,1.6883089481618592,3721,0,37.80501134604806,26.022279436907553,68.83288355269276,0.14034745235277327,0.0966051984471554,0.220703125,,
3.4037600000000676,1500,,,,-0.0625,-0.0234375,-1.01953125,0.06678522338205974,3.652160623381935,22.39222397081681,1.6877984275478166,3721,0,37.79356040724314,26.02535569530462,68.861878623949,0.1403308629530409,0.09663446851866324,0.220703125,,
3.4122050000000743,1500,,,,-0.1875,0.056640625,-0.953125,0.06678522338205974,3.9204937220738016,22.392018983349626,1.6844685127705987,3723,0,37.718650914813956,26.037473139718298,69.03076464352576,0.15057120562491794,0.10394045457585632,0.220703125,,
3.4201950000000654,1500,,,,-0.0625,-0.08984375,-1.1015625,0.06678522338205974,3.9204937220738016,22.392018053108696,1.6820956374640528,3722,0,37.66551588115045,26.031331954293094,69.11184234521627,0.15060672765256766,0.10408708417653179,0.220703125,,
3.427780000000028,1500,,,,-0.09375,0.05859375,-1.009765625,0.07090595404007098,3.9204937220738016,22.39221414184611,1.68204363498361,3722,0,37.664681270482234,27.636898897259407,73.37616558810073,0.14185722271692988,0.10408939063945533,0.220703125,,
3.4367300000000394,1500,,,,-0.1875,0.0703125,-0.90625,0.07090595404007098,3.9204937220738016,22.392057357469497,1.6812211585479817,3723,0,37.64600061279773,27.64073858944591,73.42277569864743,0.1418375167286871,0.10414104176423546,0.220703125,,
3.4443000000000468,1500,,,,0.03125,0.033203125,-0.96484375,0.07090595404007098,3.9204937220738016,22.39224882764671,1.6794733383262694,3721,0,37.60718489120031,27.63048182061166,73.47128454455762,0.1418901685293526,0.10424852946095298,0.220703125,,
3.451850000000035,1500,,,,-0.25,0.046875,-0.90625,0.07090595404007098,3.9204937220738016,22.392238048869242,1.6778947963796342,3721,0,37.571819701491755,27.630271015180682,73.53987971491209,0.14189125108182238,0.10434665537155609,0.22265625,,
3.458880000000063,1500,,,,0.0625,0.193359375,-1.021484375,0.07090595404007098,3.9204937220738016,22.392323614355863,1.6764674908450627,3721,0,37.54000258394982,27.632100268493687,73.60708142387756,0.14188185783850732,0.1044350946249003,0.22265625,,
3.466475000000035,1500,,,,-0.1875,-0.087890625,-0.95703125,0.07090595404007098,3.9204937220738016,22.392221387008256,1.6765253962920552,3724,0,37.54112783471345,27.6547021901126,73.66508089972969,0.14176589916327131,0.10443196430685303,0.22265625,,
3.473695000000065,1500,,,,0.25,0.3046875,-0.9921875,0.07090595404007098,3.9204937220738016,22.39209567834322,1.6787515171258016,3726,0,37.590764591644785,27.664364481677378,73.59351367869297,0.14171638479786577,0.1042940670311665,0.224609375,,
3.4807000000000117,1500,,,,-0.3125,-0.28515625,-0.84765625,0.07090595404007098,3.9204937220738016,22.39209161362087,1.6823158914279306,3726,0,37.67057156390448,27.66850153259085,73.44858435623657,0.1416951950742918,0.10407311488287517,0.224609375,,
3.488740000000049,1500,,,,0.09375,0.208984375,-1.02734375,0.07090595404007098,3.9204937220738016,22.391891339540038,1.6865533404186677,3727,0,37.765119136993086,27.67046993082769,73.2699129862479,0.1416851152826276,0.10381256068204626,0.2265625,,
3.4966700000000417,1500,,,,-0.09375,-0.177734375,-0.884765625,0.07090595404007098,3.9204937220738016,22.391830869527546,1.6910462198606273,3726,0,37.86562094767306,27.669301729535377,73.07235702742577,0.1416910972454683,0.10353702445528563,0.2265625,,
3.504734999999986,1500,,,,0.125,0.30078125,-0.9609375,0.07090595404007098,3.9204937220738016,22.39151330831321,1.694429800788954,3726,0,37.940847434368365,27.664968251736525,72.91605254624986,0.1417132919293234,0.10333173840820589,0.228515625,,
3.5155400000000374,1500,,,,-0.09375,-0.125,-0.94140625,0.07090595404007098,3.9204937220738016,22.39124085883778,1.6921601840339753,3736,0,37.889566252440005,27.739593133787473,73.21169355429373,0.1413320557069941,0.1034715915181882,0.2265625,,
3.525935000000056,1500,,,,0.09375,0.158203125,-1.041015625,0.07090595404007098,3.9204937220738016,22.39145220279306,1.6860743861689245,3738,0,37.75365402825512,27.753619691012734,73.5124066937778,0.14126062710815873,0.1038440866979306,0.228515625,,
3.5343700000000537,1500,,,,-0.09375,0,-0.947265625,0.07090595404007098,3.9204937220738016,22.391615603466462,1.6822332359352987,3736,0,37.66791997443871,27.74180244596776,73.64835240383124,0.14132080025116178,0.10408044098889006,0.228515625,,
3.553165000000037,1500,,,,0.125,0.138671875,-1.052734375,0.07090595404007098,3.9204937220738016,22.391984764927606,1.6731865822824605,3734,0,37.465968459350144,27.728182768689816,74.00898444350734,0.14139021495850623,0.10464146219328248,0.23046875,,
3.5608200000000654,1500,,,,-0.3125,0.0078125,-0.91796875,0.07090595404007098,4.031548483505214,22.391726519637327,1.6701426701094706,3733,0,37.39737791786813,27.717415755459506,74.11593351900851,0.14545181697579868,0.10780297197197287,0.23046875,,
3.568015000000014,1500,,,,0.21875,0.1484375,-0.904296875,0.07090595404007098,4.031548483505214,22.39182492007282,1.6662483786097089,3731,0,37.31034196718381,27.70250964385463,74.24887627194701,0.14553008140183252,0.1080544500785104,0.23046875,,
3.5778700000000536,1500,,,,-0.21875,0.046875,-0.95703125,0.07090595404007098,4.031548483505214,22.391916739859195,1.6713031354434043,3729,0,37.423680655914325,27.68830876257195,73.98606517928421,0.14560472140338582,0.10772720408162421,0.232421875,,
3.5859500000000697,1500,,,,0.125,0.115234375,-1.099609375,0.0726801463583739,4.031548483505214,22.391726079003462,1.676686652342934,3728,0,37.54390823958428,28.376840266978302,75.58307485169932,0.14207178972623907,0.10738222717193216,0.232421875,,
3.594200000000012,1500,,,,-0.0625,-0.115234375,-0.978515625,0.0726801463583739,4.031548483505214,22.391813625278594,1.6801719484771127,3732,0,37.622097128720696,28.406622184506567,75.50515349347965,0.14192283958717508,0.10715905787260148,0.232421875,,
3.603195000000065,1500,,,,0,0.11328125,-1.09375,0.0726801463583739,4.031548483505214,22.392086813638066,1.67479757732541,3737,0,37.50221274674129,28.44099508708329,75.83817861401961,0.14175131605490748,0.1075016162574442,0.232421875,,
3.6166150000000488,1500,,,,-0.09375,-0.103515625,-0.91796875,0.0726801463583739,4.031548483505214,22.39229501851976,1.6657596788444125,3738,0,37.30018215863881,28.450147931946287,76.27348255551928,0.14170571250275446,0.10808388190596271,0.232421875,,
3.625900000000023,1500,,,,-0.01953125,0.03125,-0.90234375,0.0726801463583739,4.031548483505214,22.392387978696803,1.6618052155699778,3737,0,37.21178713206482,28.4394358681701,76.42588023853409,0.14175908770459797,0.10834063059635457,0.232421875,,
3.634260000000009,1500,,,,0.0625,0.134765625,-1.005859375,0.0726801463583739,4.031548483505214,22.39244391957017,1.6572270379936018,3735,0,37.10936351026711,28.428834553527278,76.60825156880372,0.14181195067685265,0.10863965592915113,0.234375,,
3.643309999999998,1500,,,,-0.125,-0.04296875,-0.80078125,0.0726801463583739,4.031548483505214,22.39248729144405,1.6566437767794624,3733,0,37.096374717983984,28.413665835913555,76.5941848817342,0.14188765739651674,0.10867769463064962,0.234375,,
3.651920000000042,1500,,,,0.09375,0.060546875,-1.09375,0.0726801463583739,4.031548483505214,22.392608609605766,1.6533519680065307,3730,0,37.02286351349168,28.38808006808346,76.67715939297463,0.14201553869921127,0.10889348097118579,0.234375,,
3.6607450000000537,1500,,,,-0.09375,-0.150390625,-0.958984375,0.0726801463583739,4.031548483505214,22.39278038696185,1.6522823609251673,3729,0,36.99919604544811,28.379427970791948,76.70282331522004,0.14205883528217964,0.10896313743014974,0.234375,,
3.6732750000000234,1500,,,,-0.0625,0.109375,-1.0078125,0.0726801463583739,4.031548483505214,22.39281314243832,1.65225036420317,3728,0,36.99853367012725,28.3714616820293,76.68266514285273,0.14209872331177173,0.1089650881694347,0.234375,,
3.6811200000000537,1500,,,,0.03125,-0.115234375,-1.033203125,0.0726801463583739,4.031548483505214,22.39282651816838,1.6510588331409315,3727,0,36.97187402181439,28.362696422818892,76.71425150395174,0.1421426377592815,0.10904366062500628,0.234375,,
3.690679999999993,1500,,,,-0.21875,0.236328125,-0.904296875,0.0726801463583739,4.031548483505214,22.392881555657734,1.649718841043439,3726,0,36.941958607622674,28.357732580360537,76.7629374542939,0.14216751893264232,0.10913196363858567,0.236328125,,
3.6986300000000627,1500,,,,-0.03125,0.12109375,-1.107421875,0.0726801463583739,4.031548483505214,22.392948320266136,1.6484799092778013,3726,0,36.91432541545481,28.362011895559014,76.83199293595861,0.14214606842247618,0.10921365724909977,0.236328125,,
3.7078099999999976,1500,,,,-0.375,-0.046875,-0.91796875,0.0726801463583739,4.077442435220838,22.392789557815288,1.646903027870549,3723,0,36.87875292523401,28.338341213408857,76.84191835570059,0.1438843016432985,0.11056345759541336,0.23828125,,
3.7155350000000325,1500,,,,0.125,0.03515625,-1.1015625,0.0726801463583739,4.077442435220838,22.392881766515433,1.6471403525395472,3723,0,36.88421916727463,28.336067264467466,76.82436528196462,0.14389584825463134,0.11054707208871947,0.23828125,,
3.7247850000000327,1500,,,,-0.28125,-0.087890625,-0.931640625,0.0726801463583739,4.077442435220838,22.392837374604717,1.6467161660065375,3724,0,36.87464730751698,28.34120295251377,76.85823464604731,0.14386977299632167,0.11057576771424853,0.23828125,,
3.7332800000000863,1500,,,,0,0.05859375,-0.9375,0.07291491434500492,4.077442435220838,22.392946102008654,1.6466280378168832,3723,0,36.87285290088973,28.428333497109953,77.09827491114469,0.14342882376961538,0.1105811488517193,0.240234375,,
3.7404650000000257,1500,,,,-0.1875,0.0703125,-0.95703125,0.07291491434500492,4.077442435220838,22.392727537892796,1.6467580565644926,3721,0,36.87540448147853,28.415780095486394,77.05889737361072,0.14349218714106338,0.11057349722818147,0.240234375,,
3.748045000000042,1500,,,,0.125,0.09765625,-0.943359375,0.07291491434500492,4.077442435220838,22.39269615864015,1.6465516309712669,3721,0,36.87073038185296,28.410471030226585,77.0542669917102,0.14351900152879365,0.1105875146218333,0.240234375,,
3.7573400000000254,1500,,,,-0.25,-0.23828125,-0.92578125,0.07291491434500492,4.077442435220838,22.392732055700872,1.6468438669690664,3724,0,36.877333450612596,28.43344955919898,77.10278075630941,0.14340301646240725,0.11056771338094414,0.2421875,,
3.7733350000000794,1500,,,,-0.15625,-0.142578125,-0.962890625,0.07291491434500492,4.077442435220838,22.392599928942374,1.6474869398069805,3722,0,36.89151593125528,28.41892379529471,77.03376529240859,0.14347631404310726,0.11052520701016628,0.2421875,,
3.781210000000021,1500,,,,0.125,0.390625,-1.04296875,0.07291491434500492,4.077442435220838,22.392506771017644,1.6469604307407497,3722,0,36.87957259696037,28.41731303680587,77.05434481946256,0.14348444660970472,0.11056100025293951,0.2421875,,
3.790130000000063,1500,,,,-0.0625,-0.06640625,-0.94921875,0.07291491434500492,4.077442435220838,22.392360932794826,1.6474276589593384,3723,0,36.88979475008673,28.429619278271314,77.06635255324774,0.14342233694058704,0.11053036382673968,0.2421875,,
3.798505000000063,1500,,,,-0.0625,0.193359375,-0.953125,0.07291491434500492,4.077442435220838,22.39271760502504,1.6470209851480797,3722,0,36.88127580997109,28.421729206410998,77.0627603905367,0.14346215198972134,0.11055589443894655,0.2421875,,
3.80775,1500,,,,0.0625,-0.05078125,-0.978515625,0.07291491434500492,4.077442435220838,22.392674564518863,1.6430097216968638,3721,0,36.791382004298576,28.41586341419701,77.23510742509482,0.14349176640480624,0.11082601992891822,0.240234375,,
3.8151450000000766,1500,,,,-0.125,0.25,-0.984375,0.07291491434500492,4.077442435220838,22.392587869205727,1.6435737169550388,3722,0,36.80386887643277,28.417930258889612,77.21451881676205,0.14348133020508572,0.11078841870974637,0.240234375,,
3.8258700000000534,1500,,,,0.125,0.05859375,-0.97265625,0.07291491434500492,4.077442435220838,22.392558285409063,1.6431642530472625,3721,0,36.794651308861475,28.410820760262173,77.21454002043994,0.14351723484609427,0.11081617273646624,0.2421875,,
3.8335500000000464,1500,,,,-0.125,-0.017578125,-0.9453125,0.07291491434500492,4.077442435220838,22.392523964183752,1.6440921590056685,3721,0,36.81537306986104,28.41281100098813,77.17648534233739,0.14350718185113867,0.1107537991665455,0.240234375,,
3.840600000000035,1500,,,,0.1875,-0.046875,-1.005859375,0.07291491434500492,4.077442435220838,22.39249978074514,1.644295216948641,3721,0,36.819880285002725,28.411926329764952,77.1646352726941,0.14351165028008747,0.11074024151245378,0.2421875,,
3.849065000000002,1500,,,,-0.4375,-0.1484375,-0.9453125,0.07291491434500492,4.077442435220838,22.39240856689911,1.6453149048861848,3721,0,36.8425635714202,28.40853409580315,77.10791905327793,0.14352878685927006,0.11067206078959779,0.2421875,,
3.857485000000044,1500,,,,0.15625,0.166015625,-1.046875,0.07291491434500492,4.099238824769263,22.392387504397984,1.64463904353068,3720,0,36.82739476760145,28.401069523945537,77.11940989355867,0.14433395972335158,0.11130949801465538,0.2421875,,
3.8660400000000372,1500,,,,-0.25,-0.111328125,-0.9140625,0.07291491434500492,4.099238824769263,22.392553843971857,1.6451157663893823,3721,0,36.83834337844127,28.41576230723902,77.13637395504772,0.1442593297497061,0.1112764160607787,0.244140625,,
3.8741300000000627,1500,,,,0.25,0.11328125,-1.0703125,0.07291491434500492,4.099238824769263,22.39252146196898,1.6449322562968403,3724,0,36.83418085261205,28.433492181563004,77.1932252147442,0.14416937598074264,0.111288991091506,0.244140625,,
3.883880000000063,1500,,,,-0.09375,-0.01953125,-0.931640625,0.07305849472523747,4.099238824769263,22.392606905100358,1.6441972340341358,3722,0,36.8178623361797,28.47812982179269,77.34867810021704,0.14394339973941508,0.11133831691094885,0.24609375,,
3.8921250000000582,1500,,,,0.0625,0.20703125,-1.02734375,0.07305849472523747,4.099238824769263,22.392510917624247,1.643497891843746,3721,0,36.80204448620351,28.468510699896957,77.35578579219788,0.14399203625302748,0.11138617112171584,0.24609375,,
3.900150000000023,1500,,,,-0.28125,-0.041015625,-0.96875,0.07305849472523747,4.099238824769263,22.392679839478586,1.645157872188054,3721,0,36.83949351730492,28.46477629397418,77.26701313253174,0.1440109271344264,0.11127294198123797,0.248046875,,
3.9088700000000536,1500,,,,0.0625,0.12890625,-1.0078125,0.07305849472523747,4.099238824769263,22.392935333604395,1.6444466357482412,3721,0,36.82398717387367,28.46530525108654,77.30098622042334,0.14400825104845108,0.1113197982992358,0.24609375,,
3.917350000000035,1500,,,,-0.21875,-0.09375,-0.958984375,0.07305849472523747,4.099238824769263,22.392889443967285,1.6459760942405939,3721,0,36.8581607057427,28.469474703609905,77.24062774291993,0.14398716054460545,0.11121658667385917,0.24609375,,
3.9259050000000277,1500,,,,0.03125,0.07421875,-0.96875,0.07305849472523747,4.099238824769263,22.39298723461685,1.6464120843526655,3720,0,36.86808478782816,28.46276514853372,77.20163743881423,0.1440211027768129,0.11118664960113712,0.24609375,,
3.933280000000028,1500,,,,0,0.12109375,-0.923828125,0.07305849472523747,4.099238824769263,22.392944414174696,1.6467845398953664,3721,0,36.876354663999194,28.464376133134326,77.18869284257882,0.1440129516837536,0.11116171492870403,0.24609375,,
3.9414800000000394,1500,,,,-0.1875,0.078125,-0.98828125,0.07305849472523747,4.099238824769263,22.393108198998828,1.6456550706026343,3723,0,36.85133205423585,28.48186698670554,77.28856841534909,0.14392451262702202,0.11123719540819364,0.24609375,,
3.9505800000000164,1500,,,,-0.125,-0.00390625,-0.970703125,0.07305849472523747,4.099238824769263,22.392912960364754,1.646082439537166,3722,0,36.86058079414064,28.475844850553717,77.25283822733536,0.1439549501088658,0.11120928472784343,0.24609375,,
3.9590750000000114,1500,,,,0.125,0.0234375,-1.015625,0.07305849472523747,4.099238824769263,22.392863982406574,1.6447558755657257,3722,0,36.83079460580733,28.47352745845643,77.30902296082107,0.1439666662569347,0.11129922307250227,0.244140625,,
3.9675200000000768,1500,,,,-0.21875,-0.017578125,-0.908203125,0.07305849472523747,4.099238824769263,22.39272101544866,1.64348069626774,3721,0,36.80200472579882,28.470697381120523,77.36181111123572,0.14398097699874218,0.11138629146187866,0.24609375,,
3.977710000000021,1500,,,,0.03125,0.099609375,-0.96484375,0.07305849472523747,4.099238824769263,22.392752554356296,1.6461346299180668,3721,0,36.86148543891215,28.465491393321738,77.22285484261214,0.14400730934618544,0.11120655545915623,0.24609375,,
3.986165000000037,1500,,,,0,0.12109375,-0.9296875,0.07305849472523747,4.099238824769263,22.39243253724944,1.6473890917168095,3720,0,36.889049098869286,28.463255642448793,77.15909284124443,0.14401862092879658,0.11112346143113003,0.24609375,,
4.00959500000003,1500,,,,0.0625,0.349609375,-1.078125,0.07305849472523747,4.092297029454614,22.392282812605703,1.6480812403844147,3724,0,36.90430123283782,28.487368458425887,77.19254262177316,0.14365303820276915,0.11088943274214462,0.248046875,,
4.017090000000025,1500,,,,-0.0625,-0.138671875,-0.96484375,0.07305849472523747,4.092297029454614,22.392208020193465,1.6475485381540318,3724,0,36.89224958971073,28.490079582883993,77.22510798265306,0.1436393681368706,0.11092565714929888,0.25,,
4.024775000000082,1500,,,,0,0.1640625,-0.9453125,0.07305849472523747,4.092297029454614,22.392198312595813,1.6475924096511507,3725,0,36.89321597523617,28.497046153682756,77.24196820578295,0.14360425313504835,0.1109227515487261,0.25,,
4.031864999999991,1500,,,,0,-0.013671875,-1.08984375,0.07322781624727648,4.092297029454614,22.392014812225522,1.6486275871329596,3723,0,36.916093350924854,28.54893788659759,77.33466706569143,0.14334323209185865,0.11085401129944024,0.25,,
4.039290000000038,1500,,,,-0.0625,0.17578125,-0.83203125,0.07322781624727648,4.092297029454614,22.392014290789255,1.6463508967049116,3724,0,36.86511280667008,28.559345613595777,77.46984462889932,0.1432909942973785,0.1110073106493841,0.25,,
4.046505000000063,1500,,,,-0.0625,-0.30859375,-0.76953125,0.07322781624727648,4.092297029454614,22.392079576041986,1.6458659094301948,3724,0,36.85436041545564,28.55552275898845,77.48207386340397,0.14331017729894224,0.1110396974285416,0.25,,
4.053785000000032,1500,,,,0.0625,0.16015625,-1.0078125,0.07322781624727648,4.092297029454614,22.391987854311537,1.6472745621304166,3722,0,36.885751987940644,28.54561415904706,77.38926989581155,0.14335992235632558,0.11094519723476269,0.25390625,,
4.063165000000037,1500,,,,0.03125,-0.041015625,-0.9453125,0.07322781624727648,4.092297029454614,22.391988560602208,1.646785435125097,3721,0,36.8748006250875,28.536432159085212,77.3873530848887,0.14340605043548657,0.11097814659560355,0.25390625,,
4.07494000000006,1500,,,,-0.0625,0.2421875,-1.09765625,0.07322781624727648,4.092297029454614,22.39181662939613,1.6449983223969218,3722,0,36.834500790776126,28.539929015262867,77.48151434811807,0.1433884796022476,0.11109956539656383,0.25390625,,
4.085230000000039,1500,,,,-0.01953125,-0.0546875,-0.97265625,0.07322781624727648,4.092297029454614,22.39162145834257,1.6454350709757997,3724,0,36.84395924357114,28.554136092544862,77.50018369029446,0.14331713683059258,0.11107104430337991,0.25390625,,
4.094215000000026,1500,,,,-0.21875,-0.001953125,-0.96484375,0.07322781624727648,4.092297029454614,22.39203118983163,1.6462204490794934,3722,0,36.86221964112665,28.542492186913204,77.43020486771978,0.14337560303619673,0.11101602316125579,0.25390625,,
4.102150000000023,1500,,,,0,0.1171875,-0.97265625,0.07322781624727648,4.092297029454614,22.391726186109405,1.646164238118433,3721,0,36.860458877313356,28.533217123112536,77.4087409440092,0.14342220899233138,0.11102132621504926,0.25390625,,
4.1086650000000375,1500,,,,-0.3125,-0.0546875,-0.91796875,0.07322781624727648,4.092297029454614,22.39181905820441,1.6459931489973338,3723,0,36.856780763392386,28.552181383968815,77.46791985785143,0.14332694845348368,0.11103240556264876,0.25390625,,
4.116305000000051,1500,,,,0.21875,0.236328125,-1.017578125,0.07322781624727648,4.092297029454614,22.391914634737756,1.645959826505587,3723,0,36.85619192732087,28.552682367964497,77.47051682460682,0.14332443364571884,0.11103417948127907,0.255859375,,
4.124895000000018,1500,,,,-0.5,-0.20703125,-0.93359375,0.07322781624727648,4.092297029454614,22.391988403757594,1.64705094073044,3722,0,36.880745565234044,28.543632519207733,77.39440209721421,0.143369875109652,0.1109602576286379,0.2578125,,
4.1360850000000795,1500,,,,0.0625,0.201171875,-1.048828125,0.07322781624727648,4.092297029454614,22.391989020866237,1.6466151287269553,3721,0,36.87098788404623,28.536079649873763,77.39439946555132,0.14340782194560203,0.11098962258142579,0.2578125,,
4.144780000000028,1500,,,,-0.21875,-0.16015625,-0.998046875,0.07322781624727648,4.092297029454614,22.391919265534632,1.6477811926647512,3721,0,36.89698343341548,28.530499430646152,77.32474792182528,0.14343587077409717,0.1109114255055457,0.259765625,,
4.152960000000021,1500,,,,0.03125,0.1484375,-0.955078125,0.07322781624727648,4.092297029454614,22.392104621468306,1.6464824955235897,3721,0,36.868208297180445,28.533040287900743,77.39199056788136,0.1434230978599896,0.11099799036796641,0.259765625,,
4.172210000000021,1500,,,,-0.09375,0.09375,-0.798828125,0.07322781624727648,4.0886523659129805,22.392166111776376,1.6485022702452934,3724,0,36.91353667097308,28.556759714435593,77.36121295820232,0.1431763409714214,0.11076295404466319,0.26171875,,
4.180290000000038,1500,,,,0.1875,0.13671875,-1.1171875,0.07335672306067142,4.0886523659129805,22.392060690650776,1.6480260990395998,3722,0,36.90270042947117,28.589821225717536,77.47352061770847,0.14301077063871587,0.11079547887632929,0.26171875,,
4.187425000000046,1500,,,,-0.09375,0.099609375,-0.8984375,0.07335672306067142,4.0886523659129805,22.392316504970925,1.6487466685705354,3722,0,36.919257239147825,28.58902948747815,77.43663233062932,0.14301473114726715,0.1107457915371473,0.26171875,,
4.196440000000003,1500,,,,0.03125,0.009765625,-1.076171875,0.07335672306067142,4.0886523659129805,22.39229905341556,1.6485527483905618,3722,0,36.9148861472916,28.588636547164445,77.44473715317677,0.14301669683224233,0.11075890494688578,0.26171875,,
4.203665000000037,1500,,,,-0.15625,-0.029296875,-0.875,0.07335672306067142,4.0886523659129805,22.392284753843757,1.6473554848014778,3724,0,36.888053106481024,28.60633113419803,77.54904020448848,0.1429282331499378,0.1108394729890103,0.26171875,,
4.211630000000063,1500,,,,0.125,0.2421875,-1.125,0.07335672306067142,4.0886523659129805,22.392270628564926,1.6476807770698954,3722,0,36.89531386963325,28.595413777648695,77.50418895659321,0.14298280128783564,0.11081766048555432,0.26171875,,
4.2192950000000415,1500,,,,-0.3125,0.0546875,-0.9140625,0.07335672306067142,4.0886523659129805,22.392517921255507,1.6475750526515593,3722,0,36.89335389311353,28.591469515333443,77.49761541921049,0.14300252611081288,0.11082354772511381,0.26171875,,
4.2263050000000515,1500,,,,0.15625,0.20703125,-0.939453125,0.07335672306067142,4.0886523659129805,22.39249516557475,1.650047457454319,3721,0,36.948679714014744,28.584067328642984,77.3615391669894,0.14303955832821247,0.11065760394036875,0.259765625,,
4.234705000000016,1500,,,,-0.125,-0.154296875,-0.91796875,0.07335672306067142,4.0886523659129805,22.39237209502058,1.6552676541134803,3724,0,37.065369227760876,28.6108630001145,77.19028191599882,0.1429055937913029,0.11030923072123883,0.259765625,,
4.2420800000000165,1500,,,,0.0625,0.1640625,-1.1328125,0.07335672306067142,4.0886523659129805,22.392033746736264,1.663446559688408,3726,0,37.24795150043517,28.62124636771969,76.8397863903611,0.14285374974181222,0.10976851615222954,0.26171875,,
4.250475000000035,1500,,,,-0.09375,-0.0390625,-0.94921875,0.07335672306067142,4.0886523659129805,22.391630918282303,1.6693856321436256,3724,0,37.380266935243455,28.607224957497248,76.53028536969951,0.1429237674044803,0.10937996705577437,0.26171875,,
4.258755000000004,1500,,,,0.0625,-0.09375,-1.0234375,0.07335672306067142,4.0886523659129805,22.39157926703583,1.6683218661892727,3729,0,37.356361309706244,28.645831373044913,76.68260603744056,0.14273114690468755,0.10944996307364209,0.263671875,,
4.274865000000049,1500,,,,0.1875,0.08203125,-0.982421875,0.07335672306067142,4.0886523659129805,22.39200505377423,1.6670671778962833,3733,0,37.32897667243472,28.678638087449215,76.82674598638735,0.14256787067243334,0.10953025585971161,0.265625,,
4.281684999999998,1500,,,,-0.3125,-0.0859375,-1,0.07335672306067142,4.0886523659129805,22.39208954430895,1.6647649091777779,3734,0,37.27756491653216,28.683893002602527,76.94679914535287,0.14254175210952055,0.10968131569397957,0.267578125,,
4.292270000000077,1500,,,,0.0625,0.1171875,-0.9921875,0.07335672306067142,4.0886523659129805,22.39208568433187,1.6639216191239818,3732,0,37.25867546743642,28.672167249697495,76.95433852649052,0.14260004590187084,0.10973692206225656,0.267578125,,
