Time (s),ESC signal (µs),Servo 1 (µs),Servo 2 (µs),Servo 3 (µs),AccX (g),AccY (g),AccZ (g),Torque (N·m),Thrust (N),Voltage (V),Current (A),Motor Electrical Speed (RPM),Motor Optical Speed (RPM),Electrical Power (W),Mechanical Power (W),Motor Efficiency (%),Propeller Mech. Efficiency (N/W),Overall Efficiency (N/W),Vibration (g),App message,90% settling time (s),Max acceleration (RPM/s),
0,1000,,,,-0.0625,0.05078125,-0.95703125,-0.002895968086622582,0.012391456478470435,22.45046179152346,0.0656210985538816,0,0,1.473223965801714,0,0,0,0,0.060546875,,
0,1200,,,,-0.0625,0.046875,-0.95703125,-0.002895968086622582,0.012391456478470435,22.45042290190299,0.06492710688218412,0,0,1.4576410073020896,0,0,0,0,0.060546875,,
0.0077749999999650755,1200,,,,-0.0625,0.046875,-0.955078125,-0.002895968086622582,0.012391456478470435,22.45040294330944,0.06546109567488338,0,0,1.4696279750116628,0,0,0,0,0.060546875,,
0.015994999999937136,1200,,,,-0.0625,0.0546875,-0.9609375,-0.002895968086622582,0.012391456478470435,22.4503505412403,0.06620212128478477,0,0,1.4862608294171238,0,0,0,0,0.060546875,,
0.02389499999996042,1200,,,,-0.0625,0.05078125,-0.955078125,-0.002895968086622582,0.012391456478470435,22.450235776022158,0.06414671332336595,0,0,1.4401088383664675,0,0,0,0,0.060546875,,
0.03189499999996042,1200,,,,-0.03125,0.009765625,-1.087890625,-0.002895968086622582,0.012391456478470435,22.44888955758488,0.09936904750681086,0,0,2.230724772922802,0,0,0,0,0.0625,,
0.039779999999969735,1200,,,,0.5,-0.0234375,-1.1640625,-0.003091578566023334,0.012391456478470435,22.447669634850623,0.15123588064747026,0,0,3.394893085710111,0,0,0,0,0.06640625,,
0.04775,1200,,,,-0.1875,-0.005859375,-0.978515625,-0.003091578566023334,0.012391456478470435,22.446104193674767,0.1988823347317025,0,0,4.464133607669096,0,0,0,0,0.072265625,,
0.05828499999997439,1200,,,,0.125,-0.06640625,-0.9921875,-0.003091578566023334,0.012391456478470435,22.444954837842722,0.2396141722246292,0,0,5.37812927408887,0,0,0,0,0.07421875,,
0.07478499999991618,1200,,,,-0.1875,-0.14453125,-0.85546875,-0.003091578566023334,0.022725885373923838,22.442362056368307,0.298922404846074,0,0,6.708524836315897,0,0,0,0,0.083984375,,
0.08228999999997905,1200,,,,-0.0625,0.18359375,-1.05859375,-0.003091578566023334,0.022725885373923838,22.442246593092072,0.31540906568890836,0,0,7.078488029887257,0,0,0,0,0.0859375,,
0.09069999999995343,1200,,,,0.0625,-0.08203125,-1.23828125,-0.003091578566023334,0.022725885373923838,22.44180818079722,0.3278760207896819,0,0,7.358130765645123,0,0,0,0,0.08984375,,
0.09800999999995111,1200,,,,-0.09375,0.056640625,-0.896484375,-0.003091578566023334,0.022725885373923838,22.441046244072503,0.3477690927256485,0,0,7.804302292115416,0,0,0,0,0.08984375,,
0.1049649999999674,1200,,,,-0.125,-0.25,-0.6640625,-0.003091578566023334,0.022725885373923838,22.439908975465883,0.3701178534451147,0,0,8.305410941503196,0,0,0,0,0.091796875,,
0.11202999999996974,1200,,,,-0.28125,0.501953125,-0.986328125,-0.003091578566023334,0.022725885373923838,22.439397041955502,0.39217444812719626,0,0,8.800158151235939,0,0,0,0,0.09765625,,
0.11897999999992316,1200,,,,-0.0625,0.07421875,-1.12109375,-0.003091578566023334,0.022725885373923838,22.438993902109104,0.3959392883737975,0,0,8.88447927742506,0,0,0,0,0.099609375,,
0.13089999999996507,1200,,,,0,-0.0078125,-0.8125,-0.003091578566023334,0.022725885373923838,22.438811244759137,0.41773754988515754,0,0,9.373534031721205,0,0,0,0,0.1015625,,
0.13978999999997904,1200,,,,-0.0625,0.078125,-0.9375,-0.003091578566023334,0.022725885373923838,22.438586817260475,0.42759131084792124,1,0,9.594544750767291,0.0003059484183940247,0.003188774729197626,0,0.0023686257101574737,0.103515625,,
0.14788999999995575,1200,,,,0.03125,0.01171875,-0.982421875,-0.003091578566023334,0.022725885373923838,22.43846115112584,0.43313719830502195,2,0,9.718932197274723,0.0005824760457204423,0.005993210302298166,0,0.0023383109288792427,0.103515625,,
0.1558149999999441,1200,,,,-0.0625,0.056640625,-1.01953125,-0.003091578566023334,0.022725885373923838,22.438536003296697,0.4322437581238843,2,0,9.698917128863048,0.0006924157480382761,0.0071391036632090935,0,0.002343136359655428,0.103515625,,
0.16393999999994413,1200,,,,-0.0625,0.0546875,-1.03125,-0.003091578566023334,0.022725885373923838,22.438674895075618,0.4254511291477942,2,0,9.546559570690185,0.0007365694389987267,0.007715548554896569,0,0.0023805314580235557,0.103515625,,
0.17198999999999068,1200,,,,-0.03125,0.033203125,-0.970703125,-0.003091578566023334,0.022725885373923838,22.438936065488083,0.4159868475667131,2,0,9.334302276633412,0.0007537008018015939,0.008074527473663837,0,0.002434663534607575,0.103515625,,
0.17990499999996973,1200,,,,-0.09375,0.134765625,-0.931640625,-0.003091578566023334,0.022725885373923838,22.43918306637693,0.4055605764539014,2,0,9.10044801955445,0.0007604447588459963,0.008356124415105741,0,0.002497227095313542,0.103515625,,
0.18874499999993713,1200,,,,0,-0.078125,-1.05078125,-0.002530379942696641,0.022725885373923838,22.43944798677238,0.39651405563782544,2,0,8.897556527509153,0.0006247299930524465,0.0070213658224134706,0,0.002554171508060752,0.10546875,,
0.19597999999992316,1200,,,,-0.03125,0.09765625,-0.908203125,-0.002530379942696641,0.022725885373923838,22.439558988707468,0.3888218994315957,135,0,8.724991948396573,0.035730210352140135,0.40951568280480094,0.6360411861544673,0.002604688406400222,0.10546875,,
0.203929999999993,1200,,,,0,0.0703125,-1.1015625,-0.002530379942696641,0.022725885373923838,22.43984253118466,0.3770882970475105,480,0,8.46180200609872,0.12712590435514184,1.5023502590053242,0.17876675481054027,0.0026857028039115652,0.10546875,,
0.21452499999996508,1200,,,,-0.0625,0.12890625,-0.953125,-0.002530379942696641,0.022725885373923838,22.440241226393976,0.36620429864755444,615,0,8.217712799793542,0.16305169462575528,1.9841493442050167,0.1393784064991503,0.0027654757385162927,0.10546875,,
0.223,1200,,,,-0.03125,-0.033203125,-1.029296875,-0.002530379942696641,0.05972203294890165,22.440640040868757,0.351309712677244,678,0,7.88361480505106,0.17973791340389128,2.279892128782504,0.33227287341819495,0.00757546308714088,0.10546875,,
0.23195499999995808,1200,,,,-0.03125,0.021484375,-0.95703125,-0.002530379942696641,0.05972203294890165,22.441082052744846,0.3420150258036099,694,0,7.675187257330455,0.18379162621236753,2.3946207440975584,0.3249442544237246,0.007781182523183658,0.10546875,,
0.24005999999993946,1200,,,,-0.0625,0.060546875,-0.912109375,-0.002530379942696641,0.05972203294890165,22.441601852973562,0.33018512041160153,700,0,7.409883010053296,0.18556473118255706,2.5042869223548294,0.32183935259846125,0.00805978081811471,0.10546875,,
0.24707499999995344,1200,,,,-0.0625,0.09375,-1.03125,-0.002530379942696641,0.05972203294890165,22.44191037510593,0.3201455509010772,703,0,7.184677760310889,0.18616959362281724,2.59120311075387,0.3207937009837359,0.008312416358993033,0.10546875,,
0.2549849999999278,1200,,,,-0.0625,0.060546875,-0.98828125,-0.002530379942696641,0.05972203294890165,22.442142596683617,0.31289674828428615,766,0,7.02207344303457,0.20287748950305518,2.8891393852380762,0.2943748618695436,0.00850490007451317,0.10546875,,
0.2624599999999627,1200,,,,-0.0625,-0.01171875,-0.94921875,-0.002530379942696641,0.05972203294890165,22.442402593262432,0.30470573761262293,789,0,6.838328835979471,0.20915656223033527,3.058591758996293,0.28553745726195434,0.008733425136661699,0.10546875,,
0.2695199999999604,1200,,,,0,0.037109375,-0.98046875,-0.002530379942696641,0.05972203294890165,22.44264466443136,0.2965165296363268,799,0,6.654615111758413,0.21179640351339854,3.182699524412217,0.28197850368655364,0.008974528495776629,0.10546875,,
0.27819999999995343,1200,,,,-0.0625,0.04296875,-0.94140625,-0.002530379942696641,0.05972203294890165,22.442977375110246,0.28879898770736173,804,0,6.481509147071061,0.2130399245804709,3.2868876637587072,0.28033258585924364,0.009214217182103265,0.10546875,,
0.2859399999999441,1200,,,,-0.0625,0.048828125,-0.9375,-0.002530379942696641,0.05972203294890165,22.443314478849025,0.2981259893316204,806,0,6.690935332887546,0.21351548691229533,3.1911156854680045,0.2797082020258014,0.008925812308385883,0.103515625,,
0.29525,1200,,,,0,-0.017578125,-0.947265625,-0.002530379942696641,0.05972203294890165,22.442451944281867,0.3286829238779951,807,0,7.3764507240379595,0.21371420397324556,2.897249801680445,0.2794481220180299,0.0080963101609671,0.103515625,,
0.30414999999996506,1200,,,,0,-0.015625,-0.984375,-0.002530379942696641,0.05972203294890165,22.44169830543093,0.3515828624959287,838,0,7.890116529493438,0.2221616605115742,2.8156955563473463,0.2688224098225546,0.007569220647839523,0.103515625,,
0.3122649999999558,1200,,,,-0.0625,0.107421875,-0.974609375,-0.002530379942696641,0.05972203294890165,22.440000970392212,0.3978904178870685,865,0,8.92866136349558,0.22909940866730943,2.5658875316290053,0.2606817420276628,0.006688800315921089,0.103515625,,
0.3200699999999488,1200,,,,0,0.11328125,-0.904296875,-0.002530379942696641,0.05972203294890165,22.438925177597756,0.43072493913927246,873,0,9.665004681471482,0.23134550544352514,2.393640904148048,0.25815082438885195,0.006179203726966956,0.103515625,,
0.3278149999999441,1200,,,,-0.0625,0.095703125,-0.9140625,-0.002530379942696641,0.05972203294890165,22.437801563469055,0.45133452071594526,877,0,10.126954414567793,0.2323460565537991,2.2943329953136296,0.257039150286044,0.005897334035886496,0.103515625,,
0.3358899999999558,1200,,,,0,-0.078125,-1.05078125,-0.002530379942696641,0.05972203294890165,22.437321520705545,0.4688897834608724,878,0,10.520630829285595,0.23274038111029183,2.212228381423931,0.2566036571049541,0.005676658930247539,0.10546875,,
0.34391499999997904,1200,,,,-0.0625,0.126953125,-0.97265625,0.014597713843217073,0.05972203294890165,22.436673051229135,0.48083465049936747,1057,0,10.788329844956339,1.6165128020494017,14.983902284051306,0.03694497988088096,0.005535799684213618,0.10546875,,
0.3522599999999511,1200,,,,0,-0.109375,-0.84765625,0.014597713843217073,0.05972203294890165,22.43631622255308,0.486696872353765,1129,0,10.919684932656624,1.7251138210683399,15.798201428954975,0.03461918409065704,0.005469208435702734,0.107421875,,
0.3598549999999814,1200,,,,0,-0.005859375,-0.958984375,0.014597713843217073,0.05972203294890165,22.436201893639613,0.49070137154304583,1157,0,11.00947504142564,1.7686192432124186,16.064519303214627,0.03376760327475911,0.005424603146306614,0.107421875,,
0.3719649999999674,1200,,,,-0.03125,0.06640625,-0.96484375,0.014597713843217073,0.05972203294890165,22.435990110294988,0.495950690088765,1230,0,11.127144778025507,1.8808506605092292,16.903264027117142,0.031752671385793206,0.005367237880003502,0.107421875,,
0.3801349999999511,1200,,,,-0.09375,0.001953125,-0.904296875,0.014597713843217073,0.14005720247565928,22.43561450798685,0.5008671692060449,1338,0,11.237262728013445,2.0455618980718895,18.203382332358352,0.06846881661595024,0.012463640467042724,0.107421875,,
0.3880899999999674,1200,,,,0,0.0859375,-0.99609375,0.014597713843217073,0.14005720247565928,22.435631928311448,0.49786516717113116,1361,0,11.169919640578748,2.080531829946584,18.626202308459806,0.06731798113334087,0.012538783355866872,0.10546875,,
0.3962149999999674,1200,,,,0,0.01953125,-0.97265625,0.014597713843217073,0.14005720247565928,22.435779250481875,0.4897239958793985,1411,0,10.987339465214081,2.1572288436941442,19.633768944009887,0.06492459197598084,0.012747144376405263,0.10546875,,
0.40495999999996274,1200,,,,-0.03125,0.07421875,-0.96484375,0.014597713843217073,0.14005720247565928,22.43601327759014,0.4796728841239018,1475,0,10.761947197103817,2.2555042320756487,20.958142525384577,0.062095739162843576,0.013014113515939804,0.10546875,,
0.4134049999999697,1200,,,,-0.03125,-0.015625,-0.994140625,0.014597713843217073,0.14005720247565928,22.43631820132756,0.47006299628350173,1497,0,10.546482959286099,2.2890168716225405,21.70407784717538,0.061186618679827165,0.01327999135032404,0.103515625,,
0.4211699999999255,1200,,,,-0.0625,0.04296875,-0.9765625,0.014597713843217073,0.14005720247565928,22.436804469378334,0.4620614050577756,1505,0,10.367181398127533,2.301301026022065,22.197943082559682,0.06086000957369599,0.01350967028520941,0.103515625,,
0.4291399999999558,1200,,,,-0.03125,0.125,-0.9921875,0.014597713843217073,0.14005720247565928,22.436961404408535,0.45430440290633856,1537,0,10.193210353862383,2.3489351460953647,23.04411529391535,0.05962582777497131,0.013740244497415791,0.103515625,,
0.4380099999999511,1200,,,,-0.0625,0.0234375,-0.94140625,0.014597713843217073,0.14005720247565928,22.437274506639042,0.44475616030141213,1550,0,9.97911605720154,2.3687923507634534,23.73749676008616,0.05912599406635172,0.014035030925868974,0.103515625,,
0.44658499999996276,1200,,,,0,0.0078125,-0.984375,0.014597713843217073,0.14005720247565928,22.43741674861896,0.43651597450060864,1554,0,9.794290837299684,2.3757465288379325,24.256442536812937,0.05895292312356511,0.014299881921239075,0.103515625,,
0.4552600000000093,1200,,,,-0.03125,0.0234375,-0.986328125,0.014597713843217073,0.14005720247565928,22.437727029415132,0.42766642310424063,1564,0,9.595862461259308,2.390398808243148,24.910723948928354,0.05859156304491131,0.014595582527480177,0.1015625,,
0.46337999999994645,1200,,,,-0.03125,0.09765625,-0.966796875,0.014597713843217073,0.14005720247565928,22.43807481517161,0.4190104659643969,1572,0,9.401788183649055,2.4035064045479104,25.56435390373848,0.05827203214879864,0.014896868525419148,0.1015625,,
0.4705199999999604,1200,,,,-0.0625,-0.0078125,-0.94921875,0.014597713843217073,0.14005720247565928,22.438444821641152,0.4109104217421586,1575,0,9.22019082489872,2.407775158662061,26.114157552574397,0.05816872143223103,0.015190271561130921,0.1015625,,
0.47903999999997904,1200,,,,0,0.08984375,-1.0625,0.014597713843217073,0.14005720247565928,22.438589702916214,0.4031593405903943,1580,0,9.046327028406113,2.4148463775148143,26.69421932163213,0.05799839019979236,0.015482217482948566,0.1015625,,
0.4891599999999744,1200,,,,-0.041015625,0.056640625,-0.984375,0.014597713843217073,0.14005720247565928,22.43883828658519,0.3947375210439001,1585,0,8.857451400351593,2.423630434166439,27.362616226945757,0.05778818441179926,0.015812359125120322,0.1015625,,
0.49738999999995576,1200,,,,-0.0625,0.0859375,-1.0390625,0.025031738846956905,0.14005720247565928,22.43909267658628,0.3878678896980518,1587,0,8.70340352320653,4.160412052092166,47.802127535497476,0.033664262270663325,0.01609223358450684,0.1015625,,
0.5051399999999557,1200,,,,-0.03125,0.037109375,-0.943359375,0.025031738846956905,0.14005720247565928,22.4392665844343,0.3813590058550794,1590,0,8.557416396756969,4.168624121192647,48.713582790857814,0.03359794464644339,0.01636676258137178,0.099609375,,
0.5172599999999511,1200,,,,-0.0625,0.00390625,-1.0546875,0.025031738846956905,0.14005720247565928,22.439730598184557,0.3711334981261819,1593,0,8.328135713913355,4.176545224557492,50.149821857249144,0.0335342238489704,0.016817353521469812,0.1015625,,
0.5346900000000023,1200,,,,-0.03125,0.087890625,-0.974609375,0.025031738846956905,0.3561925849920847,22.44014636451369,0.3581272985747594,1596,0,8.036428997145496,4.1843661585030025,52.06748121571497,0.08512462138818083,0.044322246251239546,0.099609375,,
0.541804999999993,1200,,,,0,0,-0.984375,0.025031738846956905,0.3561925849920847,22.440442040071993,0.3527260407812755,1598,0,7.915328274176283,4.188357287596463,52.914511470875524,0.08504350525370054,0.045000355342704,0.099609375,,
0.5502149999999674,1200,,,,-0.03125,0.046875,-0.990234375,0.025031738846956905,0.3561925849920847,22.440322334863023,0.3471510914820521,1598,0,7.79018239175677,4.190106387750664,53.787012640223296,0.08500800505528365,0.045723266424287076,0.099609375,,
0.5577849999999744,1200,,,,-0.09375,0.029296875,-0.974609375,0.025031738846956905,0.3561925849920847,22.440498974553883,0.3410179914535212,1599,0,7.652613887517167,4.191539443151596,54.772650296505546,0.0849789414660179,0.046545218434854124,0.099609375,,
0.5659599999999627,1200,,,,0.0625,0.00390625,-0.96875,0.025031738846956905,0.3561925849920847,22.44087141641076,0.3349834068576187,1600,0,7.517319559923032,4.193649458013047,55.78649975678278,0.08493618471412462,0.0473829244789657,0.099609375,,
0.5755649999999441,1200,,,,-0.0625,0.14453125,-0.984375,0.025031738846956905,0.3561925849920847,22.44103865566784,0.33124397156188984,1600,0,7.4334587702773085,4.194506079735661,56.42738070341357,0.08491883864775135,0.047917476372684155,0.099609375,,
0.5894099999999743,1200,,,,-0.0625,0.0546875,-1.01953125,0.025031738846956905,0.3561925849920847,22.441447591921385,0.32203850953145935,1601,0,7.22701033423072,4.197698885617843,58.08347700480585,0.08485424864858027,0.049286298001398894,0.099609375,,
0.6126949999999488,1200,,,,-0.0625,0.05859375,-0.96484375,0.025031738846956905,0.3561925849920847,22.4420720350188,0.30763206881922445,1602,0,6.903901048722896,4.199817705801171,60.83253042246406,0.08481143943463999,0.05159294469580705,0.099609375,,
0.6198949999999604,1200,,,,-0.03125,0.029296875,-1.001953125,0.025031738846956905,0.3561925849920847,22.442156554809877,0.30448237243799475,1602,0,6.833241070433406,4.2006486069645,61.47373645487484,0.08479466347209626,0.052126447950634466,0.099609375,,
0.6268899999999558,1200,,,,0,0.06640625,-0.9453125,0.025031738846956905,0.3561925849920847,22.442407330810692,0.3008317719357421,1603,0,6.751389163831469,4.201002717862635,62.22427141910646,0.08478751596078628,0.05275841406095786,0.099609375,,
0.6352799999999698,1200,,,,-0.03125,-0.017578125,-0.994140625,0.025031738846956905,0.3561925849920847,22.442485451855212,0.2974791815371306,1603,0,6.676172203876849,4.201169588106765,62.92781941225466,0.08478414820492905,0.0533528156726161,0.099609375,,
0.645134999999951,1200,,,,-0.0625,0.078125,-0.9140625,0.01934117145566735,0.3561925849920847,22.442579901805633,0.2934277446713049,1603,0,6.585275605192382,3.2458276735552745,49.289169780471944,0.10973860007852293,0.05408924490741628,0.099609375,,
0.6530149999999557,1200,,,,-0.03125,0.033203125,-1.005859375,0.01934117145566735,0.3561925849920847,22.44245764152638,0.2957859586706291,1603,0,6.638163848423867,3.245751209676139,48.89531629212187,0.10974118531642651,0.05365829966319035,0.099609375,,
0.6613699999999372,1200,,,,-0.0625,0.015625,-0.96875,0.01934117145566735,0.3561925849920847,22.442731366507807,0.29780287569677294,1603,0,6.683509939436192,3.2457195097713214,48.56309841958766,0.1097422571235,0.05329424033476225,0.09765625,,
0.6693250000000116,1200,,,,-0.03125,0.09375,-1.0078125,0.01934117145566735,0.3561925849920847,22.442728177497614,0.29671695592020625,1607,0,6.6591379873717305,3.255803752193743,48.89227041650122,0.10940235103300808,0.053489293309068216,0.09765625,,
0.6806849999999395,1200,,,,0,0.076171875,-0.98828125,0.01934117145566735,0.5379697690791547,22.442797153198214,0.29181859968879437,1610,0,6.5492256383459635,3.2599368140837996,49.775912361253006,0.16502460009500222,0.08214250031779656,0.09765625,,
0.6890149999999557,1200,,,,-0.03125,0.021484375,-0.9921875,0.01934117145566735,0.5379697690791547,22.44267899368311,0.28662701905081805,1610,0,6.432678179473803,3.261572061584201,50.703174798820726,0.16494186205956574,0.08363076063649136,0.09765625,,
0.6972799999999697,1200,,,,-0.03125,0.044921875,-0.982421875,0.01934117145566735,0.5379697690791547,22.442816062736775,0.2831602450928014,1616,0,6.354913296897205,3.2724324540722796,51.49452559282043,0.1643944608878617,0.08465414773507911,0.09765625,,
0.7051399999999558,1200,,,,-0.0625,0.0546875,-1.046875,0.01934117145566735,0.5379697690791547,22.442745716413505,0.27847991972270325,1618,0,6.2498540254638755,3.276373945859591,52.42320752629759,0.1641966936524435,0.08607717346473955,0.09765625,,
0.7125100000000093,1200,,,,-0.0625,0.09375,-0.91796875,0.01934117145566735,0.5379697690791547,22.442800141397218,0.27620149793825366,1618,0,6.198735016982763,3.277887110275167,52.87993600782568,0.16412089586391948,0.08678702470831084,0.09765625,,
0.720390000000014,1200,,,,-0.03125,0.04296875,-0.982421875,0.01934117145566735,0.5379697690791547,22.443053229316906,0.27280677561122163,1614,0,6.12261698636096,3.269662741046113,53.403025999009465,0.16453371851649562,0.0878659844765012,0.09765625,,
0.7281899999999442,1200,,,,-0.03125,0.015625,-0.990234375,0.01934117145566735,0.5379697690791547,22.44329489010313,0.27020277850572716,1613,0,6.064240638129254,3.266394643757576,53.8632095702129,0.16469833800005507,0.08871181095562723,0.09765625,,
0.7362600000000094,1200,,,,-0.125,0.03515625,-0.97265625,0.01934117145566735,0.5379697690791547,22.443590758570522,0.26792798841081394,1612,0,6.013266124659334,3.2650977555872815,54.29824138661844,0.16476375574316976,0.08946382181108473,0.09765625,,
0.7446399999999558,1200,,,,-0.03125,0.07421875,-0.9921875,0.01934117145566735,0.5379697690791547,22.443512097415393,0.2655302567911566,1611,0,5.9594315305221395,3.2633898324006183,54.76008601972635,0.16484998627436823,0.09027199428735112,0.09765625,,
0.7528949999999605,1200,,,,-0.03125,0.029296875,-0.978515625,0.01934117145566735,0.5379697690791547,22.443393115680315,0.2634845882216405,1610,0,5.913488193381429,3.2601767019713432,55.13119491166382,0.16501245737811038,0.09097333950565221,0.09765625,,
0.7613449999999721,1200,,,,-0.125,0.109375,-1.05078125,0.01934117145566735,0.5379697690791547,22.44342310848109,0.26302457417880243,1609,0,5.903171806222932,3.25907875429114,55.20894294242842,0.16506804825468688,0.09113232457711029,0.09765625,,
0.7703449999999139,1200,,,,0,0.060546875,-0.990234375,0.01934117145566735,0.5379697690791547,22.44360178800293,0.26158221909659457,1609,0,5.870847160226104,3.2586235696512222,55.50516783553471,0.1650911059778331,0.09163409545453673,0.09765625,,
0.7784949999999371,1200,,,,-0.03125,0.080078125,-0.978515625,0.01934117145566735,0.5379697690791547,22.443718666737222,0.260956595453873,1607,0,5.856836412596284,3.2555220758083196,55.58499241683917,0.16524838614266843,0.09185330290635135,0.09765625,,
0.7860650000000023,1200,,,,-0.0625,0.001953125,-0.974609375,0.01934117145566735,0.5379697690791547,22.443732534943187,0.2586985785342162,1607,0,5.806161703791943,3.254285692720406,56.048829824961054,0.16531116806448584,0.09265497527011904,0.09765625,,
0.7934849999999278,1200,,,,-0.0625,0.11328125,-0.953125,0.016069955198996913,0.5379697690791547,22.443745440271545,0.2571204121225436,1606,0,5.770745077176079,2.703481710695784,46.848052973061435,0.19899145866265158,0.09322362396614665,0.095703125,,
0.8005349999999744,1200,,,,-0.03125,0.060546875,-1.005859375,0.016069955198996913,0.5379697690791547,22.443842075230325,0.257040615766707,1606,0,5.76897898718793,2.7024223728528796,46.844032173709934,0.19906946245091714,0.09325216303853905,0.095703125,,
0.8079399999999441,1200,,,,-0.125,-0.01953125,-0.9453125,0.016069955198996913,0.5379697690791547,22.444023288245994,0.2569629525637872,1606,0,5.767282491558091,2.701953424935432,46.849680571229854,0.19910401271702544,0.09327959396242728,0.095703125,,
0.8170449999999837,1200,,,,-0.03125,0.060546875,-0.953125,0.016069955198996913,0.5379697690791547,22.44402214159097,0.25671627867555025,1605,0,5.761745842700887,2.7017350218873606,46.890909381398366,0.1991201079013823,0.0933692293561798,0.095703125,,
0.8252699999999604,1200,,,,-0.0625,-0.04296875,-0.96484375,0.016069955198996913,0.6201498373113457,22.444240901152558,0.2546657463512886,1606,0,5.715779360380134,2.701818569495884,47.26946929099441,0.2295305259623912,0.10849786148325045,0.095703125,,
0.8348849999999511,1200,,,,-0.03125,0.111328125,-1.013671875,0.016069955198996913,0.6201498373113457,22.44423073563259,0.25469075676301783,1606,0,5.716338111022049,2.7021453827381126,47.27056605570492,0.22950276520019855,0.10848725622362923,0.095703125,,
0.8519499999999535,1200,,,,-0.03125,0.056640625,-0.9765625,0.016069955198996913,0.6201498373113457,22.44428583437015,0.2514033189201929,1606,0,5.6425679495541265,2.702375151498087,47.89264702982668,0.22948325178595572,0.10990560377041621,0.095703125,,
0.8593699999999953,1200,,,,-0.125,0.04296875,-0.98046875,0.016069955198996913,0.6201498373113457,22.44414238364286,0.2490039688759609,1606,0,5.588680531544242,2.7023932154309476,48.354762813472774,0.22948171782338164,0.11096534035377907,0.095703125,,
0.8664099999999744,1200,,,,-0.03125,0.033203125,-0.953125,0.016069955198996913,0.6201498373113457,22.444310282478984,0.2482847514026352,1606,0,5.572579998888903,2.702399955133399,48.49459237323144,0.22948114550302867,0.1112859460851159,0.095703125,,
0.8733399999999674,1200,,,,-0.125,0.0546875,-1.01171875,0.016069955198996913,0.6201498373113457,22.444127328496517,0.2476134544582739,1606,0,5.557467900110373,2.7024028348666853,48.6265127111758,0.2294809009634342,0.1115885594767051,0.095703125,,
0.881554999999993,1200,,,,-0.03125,0.033203125,-0.9765625,0.016069955198996913,0.6201498373113457,22.444121065564463,0.2470280044375364,1605,0,5.544326438180862,2.700930780646223,48.71521925632539,0.22960597204307806,0.11185305270640265,0.09375,,
0.8899899999999907,1200,,,,0,0.0546875,-1.009765625,0.016069955198996913,0.6201498373113457,22.444115132920512,0.24609955395191582,1605,0,5.523486723057182,2.7003530095661628,48.888557988088195,0.22965509883871763,0.11227506616836772,0.09375,,
0.8982949999999255,1200,,,,-0.125,0.046875,-0.96875,0.016069955198996913,0.6201498373113457,22.444108814619113,0.2446347837439303,1604,0,5.490609706189587,2.7001119804676383,49.17690611707095,0.22967559930752968,0.11294735384528393,0.09375,,
0.9069249999999883,1200,,,,0,0.0625,-0.97265625,0.016069955198996913,0.6201498373113457,22.444201841383247,0.24451683142302563,1604,0,5.487985118073869,2.700030268455679,49.19893568157697,0.22968255006491067,0.11300137007824122,0.09375,,
0.9147699999999604,1200,,,,-0.0625,0.025390625,-1,0.016069955198996913,0.6201498373113457,22.444334206686328,0.24352114087958912,1604,0,5.4656698722950425,2.699996753708219,49.39919198915112,0.22968540108784277,0.11346273225443525,0.095703125,,
0.9225449999999837,1200,,,,-0.0625,0.08203125,-0.955078125,0.016069955198996913,0.6201498373113457,22.444319337470382,0.24215956367172972,1604,0,5.435106577670794,2.699985661146493,49.6767749180655,0.22968634472229452,0.11410076848522625,0.095703125,,
0.9304849999999278,1200,,,,-0.0625,0.015625,-0.97265625,0.016069955198996913,0.6201498373113457,22.444434483129772,0.24168471540002492,1604,0,5.424476760369725,2.699980542024518,49.774027271166545,0.22968678020410496,0.11432436061705556,0.095703125,,
0.9385899999999674,1200,,,,-0.0625,0.01171875,-0.95703125,0.016069955198996913,0.6201498373113457,22.444218221138033,0.24155296269472978,1604,0,5.42146740668293,2.699490610014899,49.79261899992783,0.22972846618196718,0.11438781990036496,0.095703125,,
0.9477349999999278,1200,,,,0,0.14453125,-0.95703125,0.014649375733617371,0.6201498373113457,22.44427942243374,0.24105459796337728,1604,0,5.410296752752467,2.460668332833865,45.48120824577708,0.252024959656851,0.11462399673286809,0.095703125,,
0.9553549999999814,1200,,,,-0.03125,-0.01171875,-0.986328125,0.014649375733617371,0.6201498373113457,22.444168719336844,0.24142865896840718,1604,0,5.418665555570167,2.46060488396887,45.4097943254584,0.2520314583424973,0.11444696686878136,0.095703125,,
0.9626699999999837,1200,,,,-0.0625,0.12890625,-0.97265625,0.014649375733617371,0.6201498373113457,22.44416139016179,0.2404725451510488,1604,0,5.397204613273106,2.461207560757501,45.60152406867737,0.251969743307825,0.1149020431403024,0.095703125,,
0.9704299999999348,1200,,,,-0.0625,0.0234375,-0.974609375,0.014649375733617371,0.6201498373113457,22.44415345342331,0.24055944759980022,1605,0,5.3991531566006605,2.4614874250357746,45.5902500566504,0.25194109504838624,0.11486057522802258,0.095703125,,
0.9785499999999884,1200,,,,-0.03125,0.015625,-0.978515625,0.014649375733617371,0.6564055561166416,22.444344143165026,0.23951349521990276,1605,0,5.375723313647809,2.4615976729691544,45.791003914202314,0.2666583428009549,0.12210553218953227,0.095703125,,
0.9895099999999512,1200,,,,-0.0625,0.08984375,-0.96484375,0.014649375733617371,0.6564055561166416,22.444263645158227,0.24188219750756537,1605,0,5.428867811930031,2.46186084899279,45.34759243138704,0.2666298366884521,0.12091021164195213,0.095703125,,
0.9980199999999604,1200,,,,-0.03125,0,-1.009765625,0.014649375733617371,0.6564055561166416,22.444102316451456,0.24701445964700305,1605,0,5.544017805960306,2.4622519428496448,44.41277118919979,0.26658748631424045,0.1183988903157829,0.095703125,,
1.0062449999999372,1200,,,,0,0.0859375,-0.98046875,0.014649375733617371,0.6564055561166416,22.443893323629162,0.24682621600184676,1605,0,5.539741261420498,2.4623471864502,44.448776039385024,0.26657717470903736,0.11849029135854017,0.095703125,,
1.0143349999999627,1200,,,,-0.0625,-0.00390625,-0.951171875,0.014649375733617371,0.6564055561166416,22.443898493869135,0.24676170911062048,1607,0,5.538294751452429,2.4655005143697175,44.517322118385536,0.2662362276101352,0.118521239041042,0.095703125,,
1.0220349999999745,1200,,,,-0.0625,0.107421875,-0.998046875,0.014649375733617371,0.6564055561166416,22.443804829179758,0.24573475067705067,1610,0,5.515222783942874,2.4699232428377855,44.78374382316464,0.26575949597626897,0.11901705186374584,0.095703125,,
1.0294349999999395,1200,,,,0,-0.07421875,-0.98828125,0.014649375733617371,0.6564055561166416,22.443870181836733,0.2451681162269558,1611,0,5.502521373323256,2.4715243033787635,44.91621450778814,0.2655873362116184,0.11929177763833101,0.095703125,,
1.0374349999999977,1200,,,,-0.0625,0.09765625,-0.998046875,0.014649375733617371,0.6564055561166416,22.443876634223535,0.24324514945769923,1612,0,5.4593641263018675,2.473348464639272,45.30469863190276,0.2653914583816542,0.12023480041462005,0.095703125,,
1.045649999999965,1200,,,,-0.0625,-0.046875,-0.94921875,0.014649375733617371,0.6564055561166416,22.44388274068676,0.24164084156590063,1614,0,5.423358713465941,2.476175561481543,45.657602461982044,0.26508845589442037,0.12103303336488105,0.095703125,,
1.0536199999999372,1200,,,,-0.03125,0.060546875,-0.974609375,0.014649375733617371,0.6564055561166416,22.443888468305758,0.24055919184110033,1615,0,5.399083671707424,2.477275479337252,45.88325778907275,0.26497075581285395,0.12157721495526624,0.09765625,,
1.0611599999999743,1200,,,,-0.0625,0.0546875,-1.0078125,0.014649375733617371,0.6564055561166416,22.44370127690736,0.2401697895460654,1615,0,5.3902990123096,2.477708675114094,45.966071074273515,0.26492442905395863,0.12177535135205593,0.09765625,,
1.0679099999999744,1200,,,,-0.125,-0.00390625,-0.94921875,0.014649375733617371,0.6564055561166416,22.443771481949984,0.23872024047715126,1613,0,5.357782525385329,2.4745172969982305,46.185474779424055,0.26526610135758977,0.12251440834087107,0.09765625,,
1.082524999999965,1200,,,,-0.0625,-0.017578125,-0.951171875,0.014649375733617371,0.6564055561166416,22.443448465821632,0.237886163859601,1612,0,5.338985859314955,2.4724970368259975,46.3102375990043,0.26548284844833825,0.12294573790102994,0.09765625,,
1.0904400000000023,1200,,,,0,0.1015625,-0.998046875,0.014649375733617371,0.6564055561166416,22.443475295926184,0.23873033901474008,1611,0,5.357938466065402,2.471026285878681,46.118974705084234,0.26564086342093607,0.12251084260746888,0.095703125,,
1.0986349999999512,1200,,,,-0.125,0.0234375,-0.97265625,0.013696592234061764,0.6564055561166416,22.443500821422557,0.23715972720776626,1609,0,5.322694532395851,2.3075369366107714,43.35279664399796,0.28446155972729387,0.1233220415189185,0.09765625,,
1.1077949999999837,1200,,,,-0.03125,0.03125,-0.986328125,0.013696592234061764,0.6564055561166416,22.443638692307022,0.2369010569535713,1608,0,5.316921728091603,2.3063614056932256,43.37775734985374,0.2846065471336419,0.1234559374174283,0.09765625,,
1.1163249999999534,1200,,,,-0.03125,0.060546875,-0.98046875,0.013696592234061764,0.6564055561166416,22.443731042188652,0.2366596803123969,1608,0,5.311526213461785,2.305943671327677,43.41395634052193,0.28465810517336165,0.12358134549972023,0.09765625,,
1.1234749999999767,1200,,,,0,-0.0234375,-0.90234375,0.013696592234061764,0.670768165307961,22.4438008974415,0.2364770983100963,1607,0,5.307444911276501,2.304436798612758,43.418948988365756,0.29107683305168314,0.12638250165966086,0.09765625,,
1.1319599999999628,1200,,,,-0.0625,0.0625,-1.02734375,0.013696592234061764,0.670768165307961,22.443711728984937,0.2374071290473664,1606,0,5.328297166745018,2.303737838911262,43.23591133935541,0.29116514647559183,0.12588790458129118,0.09765625,,
1.1414349999999978,1200,,,,0,0.03515625,-0.90234375,0.013696592234061764,0.670768165307961,22.443725525189727,0.23831316555273588,1606,0,5.348635276704703,2.303469250934936,43.066485781287085,0.2911990967692355,0.12540921760535925,0.09765625,,
1.1575499999999883,1200,,,,-0.0625,0.01953125,-0.970703125,0.013696592234061764,0.670768165307961,22.443715591679947,0.2370385348737495,1605,0,5.320025460974943,2.3014165993293223,43.25950347815755,0.29145881953899,0.1260836381758663,0.09765625,,
1.1658549999999233,1200,,,,0,0.1015625,-0.9921875,0.013696592234061764,0.670768165307961,22.443661071653416,0.2365754019590556,1604,0,5.309618139459215,2.3010783028923103,43.33792454473336,0.29150166878930095,0.12633077326654582,0.09765625,,
1.174744999999937,1200,,,,-0.1875,0.03515625,-0.984375,0.013696592234061764,0.670768165307961,22.443540165278776,0.23658767901213565,1604,0,5.309865076518949,2.3012379164759182,43.338915081898236,0.2914814502688038,0.12632489821148232,0.09765625,,
1.1826449999999604,1200,,,,-0.03125,0.029296875,-0.9375,0.013696592234061764,0.670768165307961,22.44366048687848,0.2360681008948939,1605,0,5.298232308267172,2.3014348288518525,43.4377863209353,0.2914565109117585,0.12660225642830314,0.09765625,,
1.1906999999999535,1200,,,,-0.03125,0.08984375,-0.99609375,0.013696592234061764,0.670768165307961,22.443741535996658,0.23610414533252186,1605,0,5.299060413420512,2.3015123201414593,43.43246048511923,0.2914466976508443,0.12658247179238785,0.099609375,,
1.1989199999999838,1200,,,,0,0.0078125,-0.966796875,0.013696592234061764,0.670768165307961,22.443951492048445,0.23464173916098974,1604,0,5.266287811739137,2.301125077045025,43.695391503585554,0.2914957435383407,0.12737020635536564,0.099609375,,
1.2077699999999605,1200,,,,-0.0625,0.17578125,-1.03515625,0.013696592234061764,0.670768165307961,22.44380802353585,0.23499880227846745,1604,0,5.274268004098783,2.3007435951765367,43.62204562583024,0.2915440758866886,0.12717748980269641,0.099609375,,
1.2157699999999605,1200,,,,-0.03125,-0.0390625,-0.953125,0.013696592234061764,0.670768165307961,22.443915445036318,0.23519378205886945,1604,0,5.278669357727566,2.3006143942255344,43.5832259669307,0.2915604488051395,0.12707144923294125,0.099609375,,
1.2237849999999162,1200,,,,-0.0625,0.06640625,-0.98828125,0.013696592234061764,0.670768165307961,22.44385365910018,0.23505896629330048,1604,0,5.275629040746198,2.3006329112331363,43.60869373991711,0.29155810213478606,0.1271446798338736,0.099609375,,
1.2317949999999838,1200,,,,0,-0.046875,-0.890625,0.013696592234061764,0.670768165307961,22.44392610125561,0.23588841407670993,1604,0,5.2942621336800615,2.3007790121892913,43.457973067722115,0.2915395880066273,0.1266971956376681,0.099609375,,
1.2490649999999441,1200,,,,-0.0625,0.044921875,-0.990234375,0.013666841332823459,0.670768165307961,22.443780221936116,0.23543746992722045,1604,0,5.2841068310552295,2.2955525254739615,43.4425835598699,0.29220336187666535,0.12694068964801936,0.1015625,,
1.256329999999958,1200,,,,-0.125,0.1171875,-0.98828125,0.013666841332823459,0.670768165307961,22.443703476624634,0.23530941585175733,1603,0,5.281214754634598,2.294766548721877,43.45149090383183,0.2923034439740987,0.12701020436999266,0.1015625,,
1.2645199999999603,1200,,,,-0.03125,0.02734375,-0.95703125,0.013666841332823459,0.670768165307961,22.443718296639155,0.23495094466963262,1603,0,5.273172815694488,2.2943952662413722,43.51071634543416,0.2923507449554665,0.1272039033713367,0.1015625,,
1.2727649999999557,1200,,,,0,0.01171875,-0.8984375,0.013666841332823459,0.6721366165796212,22.443926456130733,0.23546288192620876,1603,0,5.284711605100424,2.2942529062098633,43.413020002749356,0.29296535476117147,0.12718510806359296,0.1015625,,
1.280759999999951,1200,,,,-0.03125,0.052734375,-0.98828125,0.013666841332823459,0.6721366165796212,22.44399525971323,0.23574069973391495,1603,0,5.290963147349467,2.294818598421933,43.37241697802286,0.29289313632102604,0.12703483238516433,0.1015625,,
1.2885,1200,,,,-0.0625,0.01953125,-0.978515625,0.013666841332823459,0.6721366165796212,22.44419295100646,0.2342935794892938,1604,0,5.25853030523968,2.295043766502835,43.64420538217719,0.2928644004047976,0.12781834040395165,0.1015625,,
1.2990149999999558,1200,,,,-0.0625,0.078125,-0.95703125,0.013666841332823459,0.6721366165796212,22.444248817758606,0.23356696386549275,1604,0,5.242235052605553,2.2951318137926098,43.781551013281224,0.2928531653565219,0.12821565798457443,0.1015625,,
1.3068099999999394,1200,,,,-0.0625,0.037109375,-0.96484375,0.013666841332823459,0.6721366165796212,22.444145031654884,0.23434940614135516,1604,0,5.259772059518769,2.295052512418847,43.63406791108791,0.2928632843660861,0.12778816438694052,0.1015625,,
1.314914999999979,1200,,,,0.03125,0.087890625,-0.986328125,0.013666841332823459,0.6721366165796212,22.444019611992452,0.2340716124542558,1604,0,5.253507860534014,2.2949336806499674,43.68383452683536,0.2928784488400814,0.12794053695606333,0.1015625,,
1.3239299999999348,1200,,,,-0.0625,0.06640625,-0.98828125,0.013666841332823459,0.6721366165796212,22.444128698764125,0.23290823370278183,1603,0,5.227422372227068,2.2948773512969574,43.9007447243881,0.29288563774432697,0.12857897616053304,0.1015625,,
1.3319849999999278,1200,,,,-0.0625,-0.05859375,-1.04296875,0.013666841332823459,0.6721366165796212,22.44431735472185,0.2341547924335535,1604,0,5.255444471507698,2.2952728843925456,43.674191532920354,0.2928351662018197,0.1278933913627284,0.1015625,,
1.3399099999999744,1200,,,,-0.03125,0.0703125,-0.994140625,0.013666841332823459,0.6721366165796212,22.44437233179202,0.2344159544079116,1604,0,5.261318961243551,2.2958762977302607,43.63689627339403,0.2927582018439347,0.12775059287049134,0.1015625,,
1.3469249999999884,1200,,,,-0.0625,0.0390625,-0.98046875,0.013666841332823459,0.6721366165796212,22.44435627899692,0.23461293547889056,1604,0,5.265736311549537,2.2960703668540297,43.60397541779623,0.29273345725050753,0.1276434247391763,0.1015625,,
1.354454999999958,1200,,,,0,0.16015625,-0.98828125,0.013666841332823459,0.6721366165796212,22.44434056593221,0.233943765991948,1604,0,5.250713557200031,2.2961561206075194,43.73036341810952,0.2927225246346867,0.12800862382941364,0.1015625,,
1.3624049999999697,1200,,,,-0.03125,-0.009765625,-0.970703125,0.013666841332823459,0.6721366165796212,22.44432594495368,0.23527901871569365,1605,0,5.2806789840638855,2.297547167287625,43.5085558925509,0.29254529619651454,0.12728223370668912,0.103515625,,
1.3694199999999837,1200,,,,-0.1875,0.16015625,-1.04296875,0.013666841332823459,0.6721366165796212,22.4442455272471,0.234722123292869,1606,0,5.268160965861918,2.29819905214194,43.62431343754384,0.2924623156350119,0.12758467725931635,0.103515625,,
1.3776949999999488,1200,,,,-0.03125,0.044921875,-0.974609375,0.013666841332823459,0.6721366165796212,22.444333194911582,0.232659016760357,1606,0,5.221876492969971,2.298462440450764,44.01602457555447,0.2924288014242272,0.12871553310088724,0.103515625,,
1.3860050000000046,1200,,,,-0.0625,-0.0234375,-0.94921875,0.013666841332823459,0.6721366165796212,22.44444877676198,0.23372374532215628,1606,0,5.245800629796099,2.2986342610644823,43.818559325496686,0.29240694266357936,0.1281285096429116,0.103515625,,
1.3948899999999558,1200,,,,-0.03125,0.044921875,-0.990234375,0.013714438601380897,0.6721366165796212,22.444424589013657,0.23260357659479494,1606,0,5.220653434016737,2.3068566467741203,44.187124771452986,0.2913647094280994,0.12874568769497569,0.103515625,,
1.402890000000014,1200,,,,-0.0625,0.04296875,-0.95703125,0.013714438601380897,0.6721366165796212,22.44414000077408,0.2333479461382385,1606,0,5.237293972019715,2.306932328701062,44.04817337017679,0.29135515082840485,0.12833662195983583,0.103515625,,
1.4108649999999907,1200,,,,-0.0625,0.103515625,-0.958984375,0.013714438601380897,0.6721366165796212,22.443740589166335,0.23810007811920433,1607,0,5.343856387567661,2.3075912744349987,43.18213490548788,0.29127195271796574,0.12577744756452083,0.103515625,,
1.4188649999999325,1200,,,,-0.0625,-0.11328125,-0.96484375,0.013714438601380897,0.6721366165796212,22.443622717223743,0.2421851654304019,1608,0,5.435512480628359,2.3091087892787847,42.481896555443946,0.29108053275807455,0.12365653081932038,0.103515625,,
1.4269400000000023,1200,,,,0.03125,0.134765625,-0.994140625,0.013714438601380897,0.6668814086811276,22.44364117586565,0.24393737493176246,1608,0,5.474842912351082,2.3097068413044504,42.18763676477038,0.2887298927964788,0.12180831840428939,0.103515625,,
1.4349500000000117,1200,,,,-0.1875,-0.03515625,-1.01171875,0.013714438601380897,0.6668814086811276,22.443593138120768,0.24540521385892142,1608,0,5.507774773823148,2.3099445369680183,41.939705812708844,0.2887001821941843,0.12108000709299534,0.10546875,,
1.442945000000007,1200,,,,-0.03125,0.048828125,-0.9296875,0.013714438601380897,0.6668814086811276,22.443613091614303,0.2463673491954574,1616,0,5.52937346374948,2.3210397764354105,41.97654203775754,0.2873201120686117,0.12060704762541284,0.10546875,,
1.452869999999937,1200,,,,0,0.109375,-1.03515625,0.013714438601380897,0.6668814086811276,22.443763126189047,0.24504646733528881,1619,0,5.499764867782644,2.3254231547445063,42.28222861611271,0.28677851913554103,0.12125634908279198,0.10546875,,
1.4698949999999604,1200,,,,0,0.04296875,-0.98046875,0.013714438601380897,0.6668814086811276,22.444134031841976,0.2419912226818843,1624,0,5.43128343640153,2.3319759919975844,42.93600249930288,0.2859726733763983,0.12278523418821365,0.10546875,,
1.479109999999986,1200,,,,-0.0625,0.037109375,-0.98828125,0.013714438601380897,0.6668814086811276,22.444366765240908,0.2382844624287905,1625,0,5.348143869210041,2.334227961132799,43.64557158926207,0.28569677845752933,0.1246939919698964,0.10546875,,
1.4872399999999908,1200,,,,-0.09375,0.119140625,-0.998046875,0.013714438601380897,0.6668814086811276,22.44444925569322,0.23667754706092545,1626,0,5.312097194970884,2.3349124332008957,43.95462559328592,0.28561302736604566,0.1255401368243946,0.10546875,,
1.4949199999999836,1200,,,,0,-0.046875,-0.9375,0.013714438601380897,0.6668814086811276,22.444299719274046,0.23418257098623507,1623,0,5.25606381224523,2.330515927910063,44.33956685382284,0.2861518347480967,0.12687848407157298,0.10546875,,
1.5030749999999535,1200,,,,0,0.12109375,-0.982421875,0.013714438601380897,0.6668814086811276,22.444285041094783,0.2325022014054507,1621,0,5.218345681025964,2.32873206179438,44.6258681225682,0.28637103410139386,0.12779556001932282,0.10546875,,
1.5130299999999697,1200,,,,-0.03125,0,-0.98828125,0.013714438601380897,0.6668814086811276,22.444390051098615,0.23190204786382512,1621,0,5.204900015904231,2.3279481883633064,44.72608851755012,0.28646746178229465,0.12812569053072817,0.10546875,,
1.5210649999999442,1200,,,,-0.03125,0.083984375,-1.01171875,0.013714438601380897,0.6668814086811276,22.444370689526277,0.23031347583109765,1617,0,5.169241026346406,2.3219483258438296,44.91855407804366,0.28720768729371843,0.12900954033332743,0.107421875,,
1.5288699999999371,1200,,,,-0.125,0.03515625,-0.984375,0.013714438601380897,0.6668814086811276,22.44448283794184,0.23020703210025575,1615,0,5.166877781147717,2.31962570060879,44.894146888327064,0.28749526637254597,0.12906854718227795,0.107421875,,
1.5384199999999255,1200,,,,-0.03125,0.056640625,-0.953125,0.013714438601380897,0.6668814086811276,22.444684706849106,0.22958998571734124,1614,0,5.153074841275713,2.3186284296269335,44.99504666718416,0.28761892166932007,0.12941426802876244,0.107421875,,
1.5460799999999582,1200,,,,-0.0625,0.0546875,-0.97265625,0.013735154111470528,0.6668814086811276,22.444841134573373,0.22952118439484198,1613,0,5.1515665207613495,2.31995728811947,45.03401594000195,0.28745417516789445,0.12945215906531074,0.107421875,,
1.5547649999999558,1200,,,,-0.03125,0.013671875,-1.01171875,0.013735154111470528,0.6668814086811276,22.444578086231108,0.22897392468014025,1611,0,5.139223132194208,2.3170020588149765,45.08467523623021,0.28782080971572466,0.12976307732262257,0.107421875,,
1.564070000000007,1200,,,,-0.0625,0.015625,-0.97265625,0.013735154111470528,0.6668814086811276,22.444547285798425,0.22800415033139454,1610,0,5.117449933471278,2.3159430795726323,45.25580337239719,0.2879524175543162,0.13031517989444547,0.107421875,,
1.5729949999999953,1200,,,,-0.03125,-0.052734375,-0.962890625,0.013735154111470528,0.6648063279100155,22.44459161785155,0.23070486772683907,1609,0,5.1780765403793625,2.3141877862750824,44.69203512595311,0.2872741494241865,0.12838866376844046,0.107421875,,
1.5813899999999557,1200,,,,-0.0625,0.08203125,-0.994140625,0.013735154111470528,0.6648063279100155,22.44462757997758,0.22952811853117508,1608,0,5.151673139565175,2.312990683983819,44.89785398494917,0.287422829894401,0.129046682485397,0.107421875,,
1.5893199999999488,1200,,,,-0.03125,0.021484375,-0.99609375,0.013735154111470528,0.6648063279100155,22.444593098291616,0.23112128362847575,1608,0,5.187423167395986,2.3124828355942597,44.5786426318309,0.2874859513234718,0.12815733485720984,0.107421875,,
1.5977550000000047,1200,,,,-0.03125,0.0546875,-0.98828125,0.013735154111470528,0.6648063279100155,22.444763122196036,0.23151311858026194,1607,0,5.196257106214861,2.3118157574423277,44.49001868435907,0.28756890585672035,0.12793945994606185,0.109375,,
1.6096900000000023,1200,,,,0,0.0078125,-0.9765625,0.013735154111470528,0.6648063279100155,22.44467036167734,0.231171147648746,1606,0,5.188560206106746,2.31064699696644,44.53349108769891,0.2877143625931673,0.1281292500234579,0.107421875,,
1.6267099999999628,1200,,,,0,-0.05078125,-0.9609375,0.013735154111470528,0.6648063279100155,22.44456825820764,0.22930601857600424,1605,0,5.146674585946956,2.309239494265379,44.86857398310706,0.2878897271421842,0.129172015212556,0.107421875,,
1.6339699999999722,1200,,,,-0.03125,0.095703125,-0.9765625,0.013735154111470528,0.6648063279100155,22.44463132042437,0.2285856991711615,1605,0,5.1305217430181544,2.3089517726564557,45.0042293612454,0.28792560147116186,0.12957869807582706,0.107421875,,
1.6418899999999557,1200,,,,-0.125,-0.05078125,-0.9453125,0.013735154111470528,0.6648063279100155,22.444794406755857,0.22845862084595212,1605,0,5.127706775338383,2.3088215033644657,45.02639492704035,0.28794184692980596,0.12964983315882841,0.109375,,
1.6501749999999884,1200,,,,0.03125,0.09375,-0.984375,0.013735154111470528,0.6648063279100155,22.444688358788703,0.22887500860059679,1605,0,5.137028241155479,2.3087687045115524,44.94366384858024,0.28794843182468693,0.12941457525654554,0.107421875,,
1.6581399999999558,1200,,,,-0.0625,0.0390625,-0.96875,0.013735154111470528,0.6648063279100155,22.44465452949713,0.2284119608850254,1604,0,5.126627552469406,2.3074916080433536,45.00993263947711,0.28810779878577353,0.1296771261625569,0.109375,,
1.6660949999999721,1200,,,,-0.125,-0.0078125,-1.015625,0.013735154111470528,0.6648063279100155,22.444622519607375,0.2288229031448165,1604,0,5.135843684926085,2.3069896917103536,44.919390722141024,0.28817048047455385,0.12944442407023596,0.109375,,
1.6742049999999582,1200,,,,-0.0625,0.103515625,-1.00390625,0.013735154111470528,0.6648063279100155,22.44469033261009,0.2280415950705895,1604,0,5.118322984313845,2.306790719893027,45.069268331886484,0.2881953365673522,0.1298875295575233,0.109375,,
1.682234999999986,1200,,,,-0.0625,0.009765625,-0.9921875,0.013735154111470528,0.6648063279100155,22.44458754218305,0.22804614265446294,1604,0,5.118401612465258,2.3071371568505525,45.07534444408963,0.2881520615001213,0.12988553424392466,0.109375,,
1.6911399999999557,1200,,,,0,0.1640625,-0.94140625,0.013776578276149386,0.6648063279100155,22.444486943121333,0.22805059503609554,1604,0,5.118478602658697,2.3142305571446005,45.213250592520154,0.287268840115171,0.12988358055549834,0.109375,,
1.6986949999999488,1200,,,,-0.03125,-0.0234375,-0.9609375,0.013776578276149386,0.6648063279100155,22.444559842584276,0.2282633089070534,1604,0,5.123269496630661,2.3142789039452127,45.17191425255314,0.2872628388811316,0.12976212325883463,0.109375,,
1.7068899999999558,1200,,,,-0.0625,0.115234375,-1.015625,0.013776578276149386,0.6648063279100155,22.444730292913576,0.2281492957575202,1605,0,5.120749409795712,2.3149315487325945,45.20688991935942,0.28718185134847346,0.1298259834074828,0.111328125,,
1.7141300000000046,1200,,,,-0.0625,-0.05078125,-0.94921875,0.013776578276149386,0.6648063279100155,22.444756750747313,0.22814849685373692,1605,0,5.120737514930764,2.315170567869445,45.211662599752444,0.2871522025790994,0.12982628497782006,0.111328125,,
1.7224799999999232,1200,,,,-0.0625,0.07421875,-0.978515625,0.013776578276149386,0.6652033247777158,22.444521930463438,0.2291654902350408,1605,0,5.143509871285778,2.315280317763277,45.013626408857306,0.28731005903438456,0.12932867660880523,0.111328125,,
1.7297099999999628,1200,,,,-0.0625,0.1015625,-0.98828125,0.013776578276149386,0.6652033247777158,22.444497078076406,0.22808306965599515,1605,0,5.119209790452681,2.3150125874715806,45.22206907380658,0.28734328632927225,0.12994257942276932,0.111328125,,
1.7368849999999512,1200,,,,-0.0625,0.015625,-0.939453125,0.013776578276149386,0.6652033247777158,22.444475300199734,0.22884669278851902,1604,0,5.136343943824312,2.31461344718082,45.063443423873466,0.2873928368419046,0.12950910843451666,0.111328125,,
1.745109999999986,1200,,,,-0.0625,0.15625,-1.046875,0.013776578276149386,0.6652033247777158,22.444452016269896,0.22838615913148963,1604,0,5.1260021898069,2.3144304882381865,45.150790080434454,0.2874155556445717,0.12977039418759484,0.111328125,,
1.753039999999979,1200,,,,-0.03125,0.03125,-0.943359375,0.013776578276149386,0.6652033247777158,22.44436436772653,0.22933267036097096,1604,0,5.147226015005351,2.3143582069446684,44.963213198677906,0.2874245321150579,0.12923530516019593,0.111328125,,
1.7642999999999884,1200,,,,0.03125,0.03125,-1.044921875,0.013776578276149386,0.6652033247777158,22.444150873976064,0.23012325081537305,1604,0,5.1649209609100675,2.3145395586690487,44.81268108817725,0.28740201146539657,0.12879254683899477,0.111328125,,
1.772969999999972,1200,,,,-0.0625,-0.01171875,-0.9765625,0.013776578276149386,0.6652033247777158,22.444066817755374,0.22981916067786615,1604,0,5.158076598254486,2.3146252645234435,44.8738055830098,0.28739136955487865,0.12896344443640548,0.11328125,,
1.7806899999999442,1200,,,,-0.125,0.10546875,-0.9921875,0.013776578276149386,0.6652033247777158,22.44406355478178,0.2297363738069473,1604,0,5.15621777456823,2.314645079997981,44.89036695491017,0.2873889092224437,0.12900993593766866,0.11328125,,
1.8007999999999884,1200,,,,-0.01953125,0.09375,-0.9921875,0.013776578276149386,0.6652033247777158,22.44449685778821,0.22874156299958498,1606,0,5.1339892919897485,2.317120112202369,45.13293621039745,0.2870819347148368,0.12956850646642215,0.11328125,,
1.808564999999944,1200,,,,-0.125,0,-0.984375,0.013776578276149386,0.6652033247777158,22.44485773679741,0.2287122074259089,1606,0,5.133412958343425,2.317308104866038,45.14166547033153,0.28705864506358797,0.12958305325827124,0.11328125,,
1.815979999999923,1200,,,,-0.03125,0.10546875,-0.984375,0.013776578276149386,0.6652033247777158,22.44464555873305,0.23029730821575398,1605,0,5.168941456032899,2.3161967125486003,44.80988481394513,0.28719638585695384,0.12869236969231443,0.11328125,,
1.824009999999951,1200,,,,0,-0.046875,-0.97265625,0.013776578276149386,0.6652033247777158,22.444613756538224,0.23083256599100635,1605,0,5.180947786098758,2.3156834505865844,44.69613565301512,0.28726004178559617,0.12839413795339796,0.11328125,,
1.8324549999999582,1200,,,,-0.0625,-0.001953125,-0.927734375,0.013776578276149386,0.6652033247777158,22.444681710692187,0.23250734413724775,1605,0,5.218553334558899,2.3154824229562325,44.37019753391004,0.2872849813856218,0.1274689137260571,0.11328125,,
1.8407799999999697,1200,,,,-0.03125,0.076171875,-1.015625,0.01389677544999131,0.6652033247777158,22.44471750449773,0.23286186852459212,1605,0,5.226518856603962,2.335002660388021,44.67605923659169,0.28488332628587887,0.12727464360665203,0.11328125,,
1.848189999999944,1200,,,,-0.0625,-0.0078125,-0.9453125,0.01389677544999131,0.6652033247777158,22.444686538535414,0.23284502147538969,1604,0,5.226133519073668,2.3345236621854113,44.67018788680327,0.2849417787245732,0.12728402792426607,0.11328125,,
1.8559749999999766,1200,,,,0,0.07421875,-0.970703125,0.01389677544999131,0.6652033247777158,22.444652675818023,0.2325053525371334,1604,0,5.218501882964584,2.3342988172090573,44.7312058050454,0.28496922496540034,0.12747017050031603,0.11328125,,
1.8632549999999464,1200,,,,-0.125,-0.02734375,-0.984375,0.01389677544999131,0.6652033247777158,22.444854546583716,0.23362660875687108,1604,0,5.243715251759593,2.3346110703936964,44.52207944758803,0.2849311104592421,0.12685725536955858,0.11328125,,
1.8713049999999931,1200,,,,0,0.0078125,-0.9609375,0.01389677544999131,0.6653685415693847,22.444812700152653,0.23293179700588226,1605,0,5.228110555707006,2.3351805013210387,44.665859232298665,0.2849323815409464,0.12726749644631527,0.11328125,,
1.8788399999999674,1200,,,,-0.0625,0.09375,-0.970703125,0.01389677544999131,0.6653685415693847,22.444387383643743,0.23290957394732617,1605,0,5.227512703033207,2.3354036695888087,44.67523662321693,0.28490515375722403,0.12728205159277986,0.11328125,,
1.8864550000000162,1200,,,,0.0625,-0.125,-0.984375,0.01389677544999131,0.6653685415693847,22.444498308518316,0.23331035788841217,1605,0,5.23653393298627,2.3354931336493445,44.59998089456605,0.28489424009982317,0.12706277665424023,0.11328125,,
1.897734999999986,1200,,,,-0.0625,0.123046875,-1.033203125,0.01389677544999131,0.6653685415693847,22.444324760662006,0.23370437582569342,1604,0,5.24533690901967,2.334541722445983,44.506992838374195,0.2850103449306763,0.12684953380692165,0.11328125,,
1.9151749999999301,1200,,,,-0.0625,0.123046875,-1.001953125,0.01389677544999131,0.6653685415693847,22.444429096696137,0.23465251708502233,1604,0,5.2666417820760625,2.3342170619118408,44.32078653717955,0.2850499863215011,0.126336395961812,0.115234375,,
1.9327599999999512,1200,,,,-0.03125,0.0546875,-0.95703125,0.01389677544999131,0.6653685415693847,22.444545404953722,0.23436104397706983,1605,0,5.2601270926957,2.3353967256451984,44.398104541773705,0.2849060008789572,0.12649286411602612,0.11328125,,
1.9484799999999232,1200,,,,-0.03125,0.1015625,-0.958984375,0.01389677544999131,0.6653685415693847,22.444608704257515,0.2342499078145934,1604,0,5.257647519906944,2.33451985677577,44.40236527718179,0.28501301440559695,0.1265525197438799,0.11328125,,
1.9554400000000023,1200,,,,-0.1875,-0.00390625,-1.04296875,0.01389677544999131,0.6653685415693847,22.444581047803915,0.23495865225450238,1604,0,5.273548513408954,2.33410389704284,44.26059400246261,0.2850638064622419,0.12617093402621865,0.115234375,,
1.9746299999999464,1200,,,,-0.0625,0.033203125,-0.9765625,0.01389677544999131,0.6653685415693847,22.444377947978097,0.23594213638382242,1604,0,5.2955744828519045,2.333954111718172,44.07367169088013,0.2850821008985325,0.12564614919948286,0.115234375,,
1.9820349999999745,1200,,,,0,0.009765625,-0.990234375,0.01389677544999131,0.6653685415693847,22.44429777193696,0.23496593760271636,1604,0,5.273645469817725,2.334071926490691,44.25917403528767,0.2850677110751147,0.12616861436314605,0.115234375,,
1.9894349999999976,1200,,,,-0.0625,0.0703125,-1.01953125,0.013956830568855993,0.6653685415693847,22.444371306926374,0.23457716988888327,1604,0,5.264937101114045,2.3442048605754815,44.52484076361434,0.28383549269070396,0.12637730115115614,0.115234375,,
1.9970849999999627,1200,,,,-0.03125,0,-0.95703125,0.013956830568855993,0.6653685415693847,22.444254935565578,0.23479344750295436,1604,0,5.269763992956641,2.3445456043620316,44.49052381654395,0.28379424155003224,0.12626154462679734,0.115234375,,
2.006304999999993,1200,,,,-0.125,0.15234375,-1.05859375,0.013956830568855993,0.6653685415693847,22.44431559295349,0.23539514615747073,1604,0,5.2832829494076865,2.345030981137875,44.385867718873136,0.28373550154400484,0.12593846438680323,0.115234375,,
2.013494999999937,1200,,,,-0.03125,0.05859375,-0.939453125,0.013956830568855993,0.6653685415693847,22.444300758837738,0.23525761006903215,1605,0,5.280192556194731,2.345186681305289,44.414794656568205,0.2837166639540407,0.12601217370165282,0.115234375,,
2.0209550000000163,1200,,,,0,0.091796875,-0.998046875,0.013956830568855993,0.6666530368088998,22.444287703601503,0.23400610731483015,1605,0,5.252100396973896,2.345247342043375,44.65351316198443,0.28425702690619237,0.1269307489234222,0.115234375,,
2.0279349999999976,1200,,,,-0.1875,0.03515625,-0.96484375,0.013956830568855993,0.6666530368088998,22.4442754833169,0.23310993080505205,1605,0,5.2319835048855285,2.3458629708361163,44.83697184147452,0.2841824288531611,0.1274187956033102,0.115234375,,
2.0365999999999187,1200,,,,0.0625,-0.01953125,-0.97265625,0.013956830568855993,0.6666530368088998,22.44426346825944,0.23308205565110215,1605,0,5.231355066756846,2.346138278697743,44.847620716982235,0.28414908143391054,0.12743410231226918,0.115234375,,
2.0447999999999884,1200,,,,-0.0625,0.126953125,-0.9921875,0.013956830568855993,0.6666530368088998,22.444431504295714,0.23344400952618882,1605,0,5.2395180818987015,2.346280046256688,44.780455178932044,0.2841319125023009,0.12723556372713526,0.115234375,,
2.0541449999999606,1200,,,,-0.09375,-0.0078125,-0.970703125,0.013956830568855993,0.6666530368088998,22.444314136816843,0.23308283073973848,1605,0,5.2313842730212,2.3461100219465707,44.84683019837995,0.2841525037499208,0.1274333908611722,0.115234375,,
2.0627549999999464,1200,,,,0,0.08984375,-0.994140625,0.013956830568855993,0.6666530368088998,22.444223015660288,0.23413005707742035,1605,0,5.254867215714895,2.3458107278979905,44.64072319244809,0.2841887578058214,0.12686391671615346,0.115234375,,
2.075419999999984,1200,,,,-0.1875,-0.01171875,-1.03515625,0.013956830568855993,0.6666530368088998,22.444283789109146,0.2342767361570971,1605,0,5.258173551496135,2.345704790101698,44.61063841139786,0.28420159246893,0.1267841447757489,0.115234375,,
2.083359999999928,1200,,,,-0.01953125,0.060546875,-0.9609375,0.013956830568855993,0.6666530368088998,22.444409508901458,0.23593374499745426,1605,0,5.295393589691594,2.3456616331053946,44.2962660541727,0.28420682139321407,0.12589300974844553,0.115234375,,
2.0910499999999885,1200,,,,-0.0625,0.01953125,-0.94140625,0.013956830568855993,0.6666530368088998,22.444389608488656,0.23513176040568337,1605,0,5.277388839874964,2.345651738307618,44.44720314304513,0.2842080202792117,0.12632251612232812,0.115234375,,
2.0980899999999676,1200,,,,0.0625,0,-1.00390625,0.013956830568855993,0.6666530368088998,22.44428614220712,0.23558029270414407,1605,0,5.2874314989167175,2.345648052337319,44.36271283737468,0.2842084668859908,0.1260825860241372,0.115234375,,
2.1053699999999953,1200,,,,-0.0625,0.041015625,-0.982421875,0.013956830568855993,0.6666530368088998,22.444445554412574,0.23642509236223555,1605,0,5.30643011322116,2.345844009680528,44.20757382323332,0.2841847258632038,0.12563117248032907,0.115234375,,
2.113384999999951,1200,,,,0,-0.0546875,-0.96875,0.013956830568855993,0.6666530368088998,22.444488809210494,0.23623248993968807,1605,0,5.302117476823259,2.345936052249717,44.245267339026874,0.2841735759035672,0.12573335836540572,0.115234375,,
2.121429999999935,1200,,,,-0.0625,0.130859375,-1.025390625,0.013956830568855993,0.6666530368088998,22.44466057491156,0.23509364266611057,1605,0,5.276597012960398,2.3459726206315445,44.45995430140596,0.2841691462833161,0.12634147257625775,0.115234375,,
2.1299599999999628,1200,,,,-0.0625,0.02734375,-0.98046875,0.013956830568855993,0.6666530368088998,22.44482653041398,0.23367162533410418,1605,0,5.244719095703857,2.3462729585863737,44.73591274904108,0.2841327708139113,0.12710938844274422,0.115234375,,
2.1385499999999884,1200,,,,0.0625,0.16796875,-0.9453125,0.013956830568855993,0.6666530368088998,22.444928273387497,0.23264643938069293,1606,0,5.221732644958645,2.3469998502941607,44.94676403166843,0.284044771764832,0.12766893330943016,0.115234375,,
2.147375,1200,,,,-0.0625,-0.01953125,-0.984375,0.013944752985497633,0.6666530368088998,22.44488192934318,0.23312537382815934,1606,0,5.232471490307027,2.3452153156698157,44.82041268670543,0.28426090873387344,0.12740691240150118,0.115234375,,
2.1568649999999323,1200,,,,-0.0625,0.126953125,-0.96484375,0.013944752985497633,0.6666530368088998,22.444908786429327,0.2328294293187652,1606,0,5.225835303856079,2.3450859640148667,44.87485402160411,0.28427658816718476,0.12756870395762085,0.115234375,,
2.1646299999999465,1200,,,,-0.0625,-0.04296875,-0.951171875,0.013944752985497633,0.6666530368088998,22.44471387385625,0.23280989646579836,1606,0,5.225351513176942,2.3445953740317615,44.869620122575824,0.2843360710306804,0.1275805149429237,0.115234375,,
2.1722849999999743,1200,,,,-0.0625,0.10546875,-0.97265625,0.013944752985497633,0.662457042367933,22.44468212190018,0.2327948342425221,1605,0,5.225006054193851,2.3444359303842854,44.86953519417502,0.28256564139048457,0.12678588991034986,0.115234375,,
2.180594999999972,1200,,,,-0.0625,0.056640625,-0.994140625,0.013944752985497633,0.662457042367933,22.444584257770135,0.23298979167814474,1605,0,5.22935901052043,2.3443646776271865,44.83082291559617,0.2825742294660526,0.12668035241703643,0.115234375,,
2.1893949999999602,1200,,,,0,0.02734375,-1,0.013944752985497633,0.662457042367933,22.44469814528796,0.23224962026517879,1606,0,5.212772621209691,2.34478423134823,44.98151754802788,0.28252366828099407,0.12708343342514744,0.115234375,,
2.1984549999999583,1200,,,,-0.03125,0.056640625,-0.986328125,0.013944752985497633,0.662457042367933,22.444807388278164,0.23178091681985905,1606,0,5.202278034300259,2.3449363011733726,45.07518217427958,0.2825053465360441,0.1273397996032017,0.115234375,,
2.206289999999921,1200,,,,-0.0625,-0.001953125,-0.927734375,0.013944752985497633,0.662457042367933,22.444670609664307,0.23181459311244715,1606,0,5.203002184922233,2.3449870198013905,45.069883433778344,0.2824992363599693,0.12732207652875213,0.115234375,,
2.214554999999935,1200,,,,0.125,0.0625,-1.03125,0.013944752985497633,0.662457042367933,22.4446373728545,0.23077119896692597,1606,0,5.179575876911509,2.345435722237558,45.28238948467921,0.2824451917769657,0.12789793182119474,0.115234375,,
2.2267349999999277,1200,,,,-0.08203125,0.03125,-0.998046875,0.013944752985497633,0.662457042367933,22.444602787777693,0.2313932531636539,1606,0,5.193529655029896,2.3456192271050105,45.16425981766168,0.28242309523764647,0.12755430051821273,0.115234375,,
2.243969999999972,1200,,,,-0.03125,0.046875,-0.99609375,0.013944752985497633,0.662457042367933,22.444521411999183,0.2327257249202634,1606,0,5.223417516095884,2.3448520735935574,44.89114772786074,0.28251549418752775,0.12682444784981892,0.115234375,,
2.2525199999999606,1200,,,,0,0.18359375,-0.94921875,0.013944752985497633,0.662457042367933,22.444497848235795,0.2330083946865438,1606,0,5.229756413163009,2.3445427925483973,44.83082207514125,0.282552762301206,0.12667072613565045,0.115234375,,
2.260859999999986,1200,,,,-0.03125,-0.04296875,-0.9609375,0.013944752985497633,0.662457042367933,22.444527126424394,0.234116535200097,1605,0,5.254634925043069,2.3443943404079763,44.61574160432774,0.2825706541556703,0.12607099290775245,0.115234375,,
2.270039999999979,1200,,,,-0.0625,0.091796875,-1,0.013944752985497633,0.662457042367933,22.444698574676348,0.23435659300833603,1605,0,5.260063089060204,2.34349520374858,44.55260638646225,0.2826790689856279,0.12594089294208288,0.1171875,,
2.2773099999999977,1200,,,,-0.0625,-0.0078125,-0.9140625,0.013944752985497633,0.662457042367933,22.4445980311777,0.23383368640330623,1605,0,5.2483030974706715,2.343141292119605,44.64569306694275,0.28272176526268056,0.12622309155261874,0.1171875,,
2.285594999999972,1200,,,,-0.03125,0.056640625,-1.00390625,0.013944752985497633,0.662457042367933,22.444372556714992,0.23456554313869696,1604,0,5.264676439173116,2.343003326127776,44.504222684875465,0.2827384131215723,0.12583053299130767,0.1171875,,
2.2935449999999835,1200,,,,-0.0625,0.0625,-1.009765625,0.014043669821684139,0.662457042367933,22.444288402548327,0.2336055920616796,1605,0,5.243111280680391,2.3598903626078216,45.00935105656544,0.28071517764743864,0.126348079776397,0.115234375,,
2.3013499999999767,1200,,,,0,0.083984375,-0.98046875,0.014043669821684139,0.662457042367933,22.444080290097492,0.23386636556790966,1605,0,5.248915485959456,2.360313662012166,44.967644617747574,0.2806648340980193,0.12620836516418812,0.115234375,,
2.3091799999999347,1200,,,,-0.125,-0.01171875,-1.04296875,0.014043669821684139,0.662457042367933,22.444076376364226,0.23358594765403196,1605,0,5.24262084959251,2.360482728703256,45.02486058832059,0.2806447318222309,0.12635989925142566,0.115234375,,
2.3167550000000046,1200,,,,0,0.0234375,-0.91015625,0.014043669821684139,0.662457042367933,22.443901514124285,0.23325859060779452,1605,0,5.235232834924776,2.3605449157814915,45.08958799375748,0.28063733841243915,0.12653821964681572,0.115234375,,
2.324329999999958,1200,,,,-0.03125,0.06640625,-1.037109375,0.014043669821684139,0.6604719118510775,22.444005045612247,0.23354080977123184,1605,0,5.241591112861897,2.360359687334255,45.03135854191999,0.27981833251736377,0.126005996581916,0.115234375,,
2.332634999999951,1200,,,,-0.03125,-0.0234375,-0.923828125,0.014043669821684139,0.6604719118510775,22.44400480956091,0.2334882337058949,1605,0,5.2404110402709865,2.3602869755295024,45.04011149872415,0.2798269526962536,0.1260343714978747,0.115234375,,
2.340609999999928,1200,,,,-0.125,0.0859375,-1.05859375,0.014043669821684139,0.6604719118510775,22.44407005075201,0.23322518507849552,1605,0,5.234522391501356,2.3602583900353684,45.09023390304772,0.27983034172846655,0.1261761556170633,0.115234375,,
2.3485449999999837,1200,,,,-0.09375,0.083984375,-0.9609375,0.014043669821684139,0.6604719118510775,22.44406662515117,0.23350767677617693,1605,0,5.240861855048779,2.3598189728807437,45.02730730456889,0.2798824483747615,0.12602353012125522,0.1171875,,
2.3565899999999673,1200,,,,-0.03125,0.0859375,-0.98046875,0.014043669821684139,0.6604719118510775,22.44406339540576,0.2321902070206943,1604,0,5.21129172616485,2.359646672632379,45.279496843077624,0.2799028852545398,0.12673861809251255,0.1171875,,
2.3646599999999744,1200,,,,-0.0625,0.078125,-0.9609375,0.014043669821684139,0.6604719118510775,22.444060264357827,0.23177376425179574,1604,0,5.201944332564367,2.3595773785682055,45.35952766347695,0.2799111052047179,0.1269663551984781,0.1171875,,
2.372649999999965,1200,,,,-0.03125,-0.0078125,-0.98046875,0.014043669821684139,0.6604719118510775,22.443960026734338,0.23402504028561658,1605,0,5.252448649425271,2.3599767862973775,44.9309825533584,0.2798637324256512,0.12574552478934697,0.1171875,,
2.3846449999999604,1200,,,,0,0.203125,-0.9765625,0.014043669821684139,0.6604719118510775,22.444027548882524,0.23373528116062886,1605,0,5.245961089514957,2.3603505903343125,44.99367322895167,0.2798194109619666,0.12590103139940462,0.1171875,,
2.3931149999999324,1200,,,,-0.0625,0.0078125,-0.984375,0.014043669821684139,0.6604719118510775,22.44410434788986,0.23183531416938877,1605,0,5.20333598274359,2.360530989398326,45.365723013597844,0.2797980262989153,0.12693239760827957,0.1171875,,
2.4022699999999606,1200,,,,-0.0625,0.064453125,-1.021484375,0.014043669821684139,0.6604719118510775,22.444099313857024,0.23296863178877786,1605,0,5.228771108880719,2.360568465703084,45.1457601900725,0.27979358423495637,0.12631494056592188,0.1171875,,
2.4107249999999767,1200,,,,-0.03125,0.033203125,-0.958984375,0.014043669821684139,0.6604719118510775,22.444241603575136,0.23294110715234367,1605,0,5.2281864883314855,2.360584475155193,45.15111464412483,0.27979168667863735,0.1263290652170021,0.1171875,,
2.418704999999958,1200,,,,0.125,0.15234375,-0.9609375,0.014043669821684139,0.6604719118510775,22.444229766615287,0.23355664948505647,1605,0,5.241999104563438,2.3605898359071014,45.032244165247626,0.2797910512892125,0.12599618936907137,0.1171875,,
2.425889999999956,1200,,,,-0.09375,-0.03125,-0.931640625,0.014043669821684139,0.6604719118510775,22.444314254072225,0.23319434771557268,1605,0,5.233887222401703,2.3608030059999,45.10611149386947,0.27976578739204866,0.1261914679827593,0.1171875,,
2.432854999999923,1200,,,,0,0.109375,-1.05859375,0.014043669821684139,0.6604719118510775,22.444185750829558,0.23260099188353645,1605,0,5.22053986766129,2.3608842294940877,45.22299013783267,0.27975616237337037,0.12651410172008842,0.1171875,,
2.4405199999999603,1200,,,,-0.0625,0.1015625,-1.02734375,0.014043669821684139,0.6604719118510775,22.44417673060588,0.23132841901451484,1605,0,5.19197591917342,2.360922096267444,45.47251630248915,0.27975167537093504,0.12721012618953492,0.1171875,,
2.447400000000023,1200,,,,-0.03125,-0.033203125,-0.927734375,0.014167908583971623,0.6604719118510775,22.444014417485846,0.23187848517407136,1605,0,5.2042840643516355,2.3818215640982885,45.76655568079608,0.2772969737979173,0.12690927391438633,0.1171875,,
2.454649999999965,1200,,,,-0.125,0.14453125,-1.046875,0.014167908583971623,0.6604719118510775,22.444013808993457,0.23022690136803978,1605,0,5.167215753506059,2.381627577516249,46.09111930153617,0.2773195599875738,0.1278196892403678,0.119140625,,
2.4625599999999976,1200,,,,-0.0625,0.029296875,-0.94140625,0.014167908583971623,0.6604719118510775,22.444208084559587,0.2303363063743591,1605,0,5.169715989694985,2.381536430842514,46.067065107439795,0.27733017362133017,0.127757871644714,0.119140625,,
2.470914999999979,1200,,,,0.03125,0.109375,-1.0078125,0.014167908583971623,0.65715510096436,22.44419774879832,0.23022670924694696,1605,0,5.167253789393572,2.3814999223042825,46.08830956189157,0.27594168482210674,0.12717685791111175,0.119140625,,
2.4786899999999443,1200,,,,-0.1875,0.03515625,-0.98046875,0.014167908583971623,0.65715510096436,22.44418810978284,0.23033632472504562,1605,0,5.169711800644948,2.3807678842967324,46.05223610336884,0.2760265313132282,0.12711638990830718,0.119140625,,
2.488625,1200,,,,-0.03125,0,-0.958984375,0.014167908583971623,0.65715510096436,22.44417671697055,0.23046573915036436,1604,0,5.172613776698015,2.3800469826138917,46.012462661250844,0.2761101380623327,0.12704507417985902,0.119140625,,
2.4977000000000116,1200,,,,0,0.009765625,-0.958984375,0.014167908583971623,0.65715510096436,22.44416803589412,0.2305644610730303,1604,0,5.174827507428461,2.3798329279777266,45.988642608115505,0.2761349728540736,0.12699072578187667,0.119140625,,
2.5062799999999696,1200,,,,-0.0625,0.0234375,-0.97265625,0.014167908583971623,0.65715510096436,22.444232578812727,0.2312706054086742,1604,0,5.190691256435108,2.3797435193282874,45.846370006654205,0.27614534744057223,0.12660261774376555,0.119140625,,
2.5135849999999627,1200,,,,0.0625,0.1484375,-1.0078125,0.014167908583971623,0.65715510096436,22.444287030270285,0.23154483566601672,1604,0,5.196858752064844,2.3797134053410733,45.79138127230325,0.27614884191072286,0.12645236907838905,0.119140625,,
2.521704999999958,1200,,,,-0.03125,-0.01953125,-0.990234375,0.014167908583971623,0.65715510096436,22.444370988508467,0.232387471710095,1604,0,5.215790628142888,2.3797016871654595,45.624946567549735,0.276150201728486,0.12599338198480253,0.12109375,,
2.530679999999935,1200,,,,-0.03125,0.09375,-1.009765625,0.014167908583971623,0.65715510096436,22.44435277293432,0.23319078656915831,1604,0,5.233816277156223,2.3796970538883393,45.46772236302761,0.27615073939373597,0.1255594514909918,0.12109375,,
2.541875,1200,,,,-0.09375,0.0078125,-0.958984375,0.014167908583971623,0.65715510096436,22.44440600842242,0.2339767724723614,1604,0,5.251469677909953,2.3796951316011423,45.31484094083628,0.27615096246476034,0.12513736939749465,0.12109375,,
2.5505849999999626,1200,,,,-0.03125,0.083984375,-0.974609375,0.014167908583971623,0.65715510096436,22.44466798284736,0.23268183053730435,1604,0,5.2224664320509495,2.3796943429033055,45.566484224748955,0.2761510539889796,0.12583232645236636,0.119140625,,
2.5685050000000045,1200,,,,-0.01953125,0.029296875,-0.9765625,0.014167908583971623,0.65715510096436,22.444717628209588,0.2323807195529503,1604,0,5.215719632606132,2.3796940798871615,45.625421754085025,0.2761510845106277,0.12599509698645367,0.12109375,,
2.5757550000000045,1200,,,,0,0,-0.9375,0.014167908583971623,0.65715510096436,22.4446868293588,0.23238461140983668,1604,0,5.215799827056024,2.3796940576047723,45.624719822653795,0.27615108709638275,0.1259931597749373,0.12109375,,
2.582859999999986,1200,,,,-0.0625,-0.0625,-1.01953125,0.014167908583971623,0.65715510096436,22.44471498005403,0.23238838766257436,1604,0,5.215891125760786,2.3796940477630892,45.62392102108897,0.2761510882384588,0.12599095439679214,0.12109375,,
2.590539999999979,1200,,,,-0.0625,0.134765625,-0.986328125,0.014167908583971623,0.65715510096436,22.44487431304416,0.233496994122687,1604,0,5.240810685557321,2.379694043237015,45.40698349961391,0.2761510887636861,0.1253918793089311,0.12109375,,
2.5990549999999346,1200,,,,-0.03125,0.03125,-0.98046875,0.014297794203115891,0.65715510096436,22.445029563946704,0.2334460823828621,1604,0,5.239704220670878,2.40151010777825,45.83293267402729,0.27364244640732543,0.12541835822943068,0.123046875,,
2.607939999999944,1200,,,,0.0625,0.1640625,-0.9453125,0.014297794203115891,0.65715510096436,22.445109409807323,0.23297602043325893,1604,0,5.229172268486003,2.4015101070661125,45.92524368606084,0.27364244648847064,0.12567096037832876,0.123046875,,
2.6160999999999186,1200,,,,-0.0625,-0.076171875,-0.94921875,0.014297794203115891,0.65715510096436,22.445283055646044,0.23372729338572426,1604,0,5.246075257872609,2.402231487781272,45.79102223469486,0.27356027273263156,0.1252660453122912,0.123046875,,
2.624209999999963,1200,,,,-0.0625,0.12890625,-1.046875,0.014297794203115891,0.6567686313794863,22.44522470932283,0.23248653131571453,1605,0,5.218212437272232,2.402439155765781,46.03950461284079,0.2733757605487163,0.12586084588821483,0.123046875,,
2.6316399999999556,1200,,,,-0.03125,0.009765625,-1.001953125,0.014297794203115891,0.6567686313794863,22.44535733288987,0.23248580611494182,1605,0,5.218226993074822,2.4025287320345594,46.04109279306912,0.27336556796276384,0.12586049481003656,0.123046875,,
2.6385749999999533,1200,,,,-0.03125,0.091796875,-0.9921875,0.014297794203115891,0.6567686313794863,22.44529935565392,0.23137264369729074,1605,0,5.193228250494744,2.402360894396193,46.25948983019044,0.2733846662720331,0.12646635189141125,0.123046875,,
2.6466449999999604,1200,,,,-0.0625,-0.0078125,-0.986328125,0.014297794203115891,0.6567686313794863,22.445333831747238,0.23334586264488358,1604,0,5.237525785321449,2.402063149245756,45.862555101451036,0.2734185533738822,0.12539673469868703,0.123046875,,
2.6549049999999697,1200,,,,0,0.03515625,-0.984375,0.014297794203115891,0.6567686313794863,22.445137273359975,0.232022602425258,1604,0,5.2077791619571405,2.401945828499508,46.12226735814255,0.27343190824156455,0.12611299576164542,0.123046875,,
2.6639199999999255,1200,,,,-0.0625,0.119140625,-1.01171875,0.014297794203115891,0.6567686313794863,22.445184546214854,0.23382965015463014,1604,0,5.248349650097531,2.4018970522876897,45.76480631855492,0.2734374609244581,0.12513812439445254,0.123046875,,
2.672734999999986,1200,,,,-0.0625,0.01171875,-0.98046875,0.014297794203115891,0.6567686313794863,22.445119626405507,0.2325655902859072,1605,0,5.219962494952798,2.402571278695597,46.02660040218014,0.2733607269858228,0.12581864946625929,0.123046875,,
2.6811149999999326,1200,,,,0.0625,0.23046875,-0.953125,0.014297794203115891,0.6567686313794863,22.44519577871693,0.23256095751071293,1605,0,5.219876221813821,2.4028003108065334,46.031748813606924,0.27333467056154687,0.12582072897339125,0.123046875,,
2.690559999999998,1200,,,,-0.09375,-0.04296875,-0.966796875,0.014297794203115891,0.6567686313794863,22.445137003499916,0.23159635225805134,1605,0,5.198211855942789,2.4028904537625726,46.22532748478689,0.27332441657965856,0.12634510665983031,0.123046875,,
2.706524999999965,1200,,,,-0.125,-0.0546875,-0.9921875,0.014297794203115891,0.6567686313794863,22.44515685901489,0.23514487720662894,1604,0,5.277863653496581,2.4020154936830194,45.51113199166647,0.2734239779496428,0.12443834750152695,0.125,,
2.7141549999999697,1200,,,,-0.03125,0.05078125,-1.01953125,0.014297794203115891,0.6567686313794863,22.445020003642004,0.23941367448840875,1604,0,5.37364471303777,2.4019218947953376,44.69818946101313,0.27343463282574726,0.1222203302324781,0.125,,0.21625500000000467,9805,
2.7234699999999137,1200,,,,-0.03125,-0.0390625,-0.95703125,0.014297794203115891,0.6567686313794863,22.445068556364703,0.2405200158308579,1607,0,5.398488244501529,2.40539820624987,44.55688513723851,0.2730394616878923,0.12165787932360853,0.125,,
2.730974999999977,1500,,,,0,0.09375,-0.984375,0.014297794203115891,0.6567686313794863,22.445227364788767,0.23938068578239538,1607,0,5.372953919124922,2.4068242746816906,44.79517805121402,0.27287768296517856,0.12223604394627906,0.125,,
2.7399199999999837,1500,,,,-0.125,0.109375,-1.01171875,0.014297794203115891,0.6567686313794863,22.445171294046364,0.2372800986918102,1608,0,5.325792459805906,2.4072979078639936,45.20074572999274,0.27282399458496603,0.12331848008275965,0.125,,
2.7478549999999813,1500,,,,-0.0625,-0.001953125,-0.978515625,0.014521956187669303,0.6567686313794863,22.44510835223784,0.23702149465156344,1613,0,5.319973129263703,2.45251230085634,46.10008812574159,0.26779422519110846,0.12345337380874791,0.125,,
2.756804999999993,1500,,,,-0.03125,0.083984375,-1.015625,0.014521956187669303,0.6567686313794863,22.444834271475184,0.2357321723609561,1615,0,5.290969541096482,2.4552375747333874,46.40430370394029,0.26749697794552707,0.12413011004470455,0.125,,
2.764854999999981,1500,,,,-0.0625,-0.0546875,-0.9609375,0.014521956187669303,0.6567686313794863,22.444926258608177,0.3916848199357752,1615,0,8.791336900074697,2.456205190990983,27.938926910764998,0.2673915981402619,0.07470634316993424,0.125,,
2.772875,1500,,,,-0.0625,-0.072265625,-1.0703125,0.014521956187669303,0.6566133662483045,22.42698730736815,0.9173595866891464,1651,0,20.57361180696998,2.511213597874588,12.205992907010295,0.26147252738836757,0.031915318146804705,0.130859375,,
2.7806999999999533,1500,,,,0.09375,0.51953125,-0.755859375,0.014521956187669303,0.6566133662483045,22.409967207005757,1.2501605295447635,1666,0,28.016056470591103,2.5332569152751887,9.042160940582015,0.25919730536962776,0.023437037505173574,0.13671875,,
2.7891599999999745,1500,,,,0.0625,-0.46484375,-0.3203125,0.014521956187669303,0.6566133662483045,22.39952886909798,1.5394782787075962,1836,0,34.48358814726007,2.7916472264434415,8.095582207170208,0.23520642580790188,0.019041329557825504,0.14453125,,
2.7970849999999627,1500,,,,-0.0625,0.51953125,-0.830078125,0.014521956187669303,0.6566133662483045,22.39191064203327,1.7578698474318581,2066,0,39.36206454401883,3.141153237176974,7.980153667153825,0.20903576383252723,0.01668137517314443,0.15234375,,
2.8060449999999837,1500,,,,-0.03125,0.15234375,-0.947265625,0.014521956187669303,0.6566133662483045,22.385180394988446,1.9404245201322268,2812,0,43.436752926018784,4.2767940067475045,9.846026046264818,0.15352934118696493,0.015116538921927344,0.158203125,,
2.8145149999999557,1500,,,,0.5625,0.2421875,-1.06640625,0.014521956187669303,0.6566133662483045,22.38082761384734,2.0579164420851472,3712,0,46.05787313400973,5.644772753884836,12.255825920273905,0.11632237379200272,0.014256267638278168,0.1640625,,
2.822979999999923,1500,,,,0.21875,-0.3359375,-0.908203125,0.014521956187669303,0.6566133662483045,22.377099652725875,2.1635105573185838,5053,0,48.41309134084244,7.683989097906408,15.871717515018528,0.08545214704003241,0.013562723388712212,0.16796875,,
2.831599999999977,1500,,,,0.15625,0.03125,-0.994140625,0.014521956187669303,0.6566133662483045,22.374441734387776,2.235702978061944,6490,0,50.0226060180442,9.86913440486011,19.72934876943458,0.0665320117562642,0.013126332642714579,0.173828125,,
2.843854999999923,1500,,,,-0.125,-0.0625,-0.875,0.014521956187669303,0.6566133662483045,22.37270843404623,2.278698079384978,5335,0,50.98064773930125,8.113057375213952,15.913994299761619,0.08093291294282122,0.012879659152351603,0.177734375,,
2.852579999999958,1500,,,,0,0.12890625,-0.947265625,0.014521956187669303,0.6566133662483045,22.371229692432415,2.3120134702929955,3858,0,51.72258439592237,5.867757964321228,11.344672801740012,0.1119019172639409,0.012694906372467916,0.17578125,,
2.859929999999935,1500,,,,-0.1875,-0.1328125,-0.958984375,0.014521956187669303,0.6566133662483045,22.370830403076063,2.323326721395909,3573,0,51.97474805528263,5.433236779879878,10.45360869109139,0.12085123340838853,0.012633315038870442,0.177734375,,
2.867824999999953,1500,,,,-0.25,0.15625,-1.15234375,0.014521956187669303,0.6566133662483045,22.37062779258729,2.326550719231258,3499,0,52.04640018049872,5.321230514019126,10.224012603301889,0.12339502386119414,0.012615922791415862,0.1796875,,
2.8769749999999767,1500,,,,-0.03125,-0.232421875,-0.89453125,0.014521956187669303,0.6566133662483045,22.370372526110312,2.323801165210397,3494,0,51.9842977423658,5.313662530722099,10.221668391206538,0.12357076921086933,0.012630994257198214,0.1796875,,
2.884834999999963,1500,,,,-0.03125,0.09375,-1.146484375,0.014521956187669303,0.6566133662483045,22.370517808680628,2.3158573167838266,3515,0,51.80692734747593,5.344905206919355,10.316970105311144,0.12284845864025283,0.012674238752750411,0.18359375,,
2.8932299999999813,1500,,,,-0.25,-0.1796875,-0.9453125,0.016176553733807265,0.6566133662483045,22.370852530481134,2.3021002080429835,3543,0,51.49994426451952,6.001169647643347,11.652769208485932,0.10941423169167627,0.012749787900269106,0.185546875,,
2.900955000000016,1500,,,,0.03125,0.037109375,-1.005859375,0.016176553733807265,0.6566133662483045,22.37149578797676,2.2868543988011627,3563,0,51.16035355049633,6.036279502760135,11.79874469945209,0.10877782679679807,0.012834418073366388,0.185546875,,
2.909164999999979,1500,,,,-0.03125,0.041015625,-0.89453125,0.016176553733807265,0.6566133662483045,22.372110188616045,2.269873811678468,3581,0,50.78186702912459,6.06674972043309,11.946685057785816,0.1082314907497833,0.0129300753332232,0.18359375,,
2.917084999999963,1500,,,,-0.25,0.08203125,-0.9140625,0.016176553733807265,0.6601155297270965,22.37275881657712,2.251372576497346,3607,0,50.36941566023094,6.10987544615165,12.130129694904696,0.10804075067403791,0.013105483180109418,0.18359375,,
2.9250149999999557,1500,,,,-0.03125,0.01171875,-1.005859375,0.016176553733807265,0.6601155297270965,22.373506311931326,2.232832126388747,3622,0,49.95628367324168,6.135742118757845,12.282222910917534,0.10758527932734145,0.013213863826317356,0.18359375,,
2.9329899999999323,1500,,,,0,0.171875,-1.00390625,0.016176553733807265,0.6601155297270965,22.374309269618962,2.213087763273574,3633,0,49.51631005629222,6.154712143460956,12.429666379550538,0.10725368048746732,0.013331274664381281,0.18359375,,
2.942584999999963,1500,,,,-0.1875,-0.14453125,-0.98046875,0.016176553733807265,0.6601155297270965,22.375112869173968,2.1921181894472936,3647,0,49.04889191145248,6.178861931634663,12.597352745071808,0.10683448457513246,0.013458316875308764,0.18359375,,
2.950914999999979,1500,,,,0.03125,-0.06640625,-1.048828125,0.016176553733807265,0.6601155297270965,22.37581288495819,2.1651647859082503,3664,0,48.44732211458357,6.206500076835583,12.810821746053344,0.10635874028115051,0.013625428628766029,0.18359375,,
2.958984999999986,1500,,,,-0.1875,-0.00390625,-0.8671875,0.016176553733807265,0.6601155297270965,22.37656052432027,2.1443625628171077,3671,0,47.983458672963536,6.218077970397748,12.958794847986537,0.10616070317382516,0.013757147733475935,0.18359375,,
2.9665599999999976,1500,,,,0,0.16796875,-1.05859375,0.016176553733807265,0.6601155297270965,22.377238346991547,2.1252655772282503,3675,0,47.557574372293125,6.225642564865403,13.090748733586462,0.10603171043780732,0.01388034479133733,0.18359375,,
2.975544999999984,1500,,,,-0.03125,0.09375,-0.98046875,0.016176553733807265,0.6601155297270965,22.377958784248854,2.105027750809712,3684,0,47.1062242473198,6.240363515187258,13.247428795022378,0.10578158277487591,0.014013339856349345,0.18359375,,
2.9842549999999464,1500,,,,0.0625,0.134765625,-1,0.016176553733807265,0.6601155297270965,22.378877242696046,2.0855997789332674,3689,0,46.6733814301416,6.248399780099814,13.387501802182703,0.10564553373000593,0.014143297732030078,0.18359375,,
2.993960000000021,1500,,,,-0.09375,-0.087890625,-1.0234375,0.016176553733807265,0.6601155297270965,22.379529149952997,2.068577414605393,3692,0,46.2937885490958,6.25420502803048,13.50981465126305,0.10554747194384421,0.014259267828707222,0.18359375,,
3.001384999999951,1500,,,,-0.09375,0.154296875,-0.951171875,0.016176553733807265,0.6601155297270965,22.380201185509392,2.0483986827616687,3696,0,45.84357462833857,6.261519415010909,13.658444974620936,0.10542417678121124,0.01439930317560884,0.18359375,,
3.0098499999999766,1500,,,,0.0625,-0.08203125,-0.93359375,0.016176553733807265,0.6601155297270965,22.380922365437193,2.0314283873167027,3700,0,45.4652410274804,6.267684569867402,13.785662251474806,0.10532047718238344,0.01451912526600497,0.18359375,,
3.017195000000007,1500,,,,0.03125,0.05078125,-0.99609375,0.016176553733807265,0.6601155297270965,22.38173746097706,2.015624728593334,3703,0,45.113183495229144,6.273129801957667,13.905313959102598,0.10522905639878406,0.014632430668452066,0.185546875,,
3.025289999999979,1500,,,,-0.25,-0.1328125,-0.91796875,0.016176553733807265,0.6601155297270965,22.38231066067763,2.001284929288345,3706,0,44.793381007864,6.277486069521603,14.014316241097132,0.10515603259274184,0.014736898954138015,0.185546875,,
3.0332299999999814,1500,,,,0.15625,0.267578125,-1.0625,0.016176553733807265,0.6601155297270965,22.38278297002952,1.986468152938882,3707,0,44.4626855441064,6.279181751577266,14.122362773945357,0.10512763538995862,0.014846506045440522,0.1875,,
3.040954999999958,1500,,,,-0.15625,-0.076171875,-1.005859375,0.05115805600285936,0.6601155297270965,22.38332978495301,1.9736508474418863,3707,0,44.17687779864372,19.859920430413336,44.955464079951476,0.033238578776791095,0.014942557342686694,0.189453125,,
3.0603849999999513,1500,,,,-0.15625,-0.041015625,-0.958984375,0.05115805600285936,0.6601155297270965,22.384716315567747,1.939865179733598,3713,0,43.423331738784434,19.8894652653015,45.803637051499706,0.03318920448196826,0.015201862761200814,0.189453125,,
3.068054999999993,1500,,,,-0.0625,0.03515625,-0.9921875,0.05115805600285936,2.4873865649140976,22.385121900423638,1.9289929080991026,3713,0,43.180741392851104,19.893025378809845,46.06920756136736,0.12503812354070962,0.057604072664808464,0.189453125,,
3.0760050000000048,1500,,,,-0.0625,0.23046875,-0.947265625,0.05115805600285936,2.4873865649140976,22.38555974284581,1.9159554451670526,3714,0,42.88973508241779,19.894672725865746,46.385627441241446,0.12502776995573095,0.05799491556975777,0.19140625,,
3.084094999999972,1500,,,,0.0625,-0.015625,-0.96875,0.05115805600285936,2.4873865649140976,22.385744266336943,1.903575211550045,3715,0,42.612947877497554,19.903666681698553,46.70802578342392,0.12497127311729213,0.058371614469497936,0.19140625,,
3.09215499999997,1500,,,,-0.15625,-0.05859375,-1.017578125,0.05115805600285936,2.4873865649140976,22.386246407219687,1.891884573207796,3717,0,42.35219422984738,19.915579979707925,47.02372649602314,0.12489651656886253,0.05873099635440214,0.19140625,,
3.10025,1500,,,,0,0.33984375,-0.93359375,0.05115805600285936,2.4873865649140976,22.386531509242335,1.8805231062584535,3718,0,42.098389772113144,19.916109152377928,47.308482011278194,0.12489319805807102,0.05908507613661258,0.193359375,,
3.1079500000000118,1500,,,,-0.125,-0.095703125,-0.91796875,0.05115805600285936,2.4873865649140976,22.38689448888581,1.8700318236699842,3717,0,41.86420512735865,19.914925458827188,47.5702939975626,0.12490062139858907,0.059415592804091415,0.193359375,,
3.1165699999999488,1500,,,,-0.0625,0.21484375,-1.078125,0.05115805600285936,2.4873865649140976,22.3872123875996,1.8587257274817575,3717,0,41.61168763142968,19.911654332849675,47.851109787266175,0.12492114031984167,0.05977615200195226,0.193359375,,
3.1238099999999975,1500,,,,0,0.01171875,-0.97265625,0.05115805600285936,2.4873865649140976,22.38764099125067,1.8492595794957052,3717,0,41.40055956538103,19.914550124330994,48.10212792626952,0.12490297543177158,0.06008098902590774,0.193359375,,
3.1309999999999416,1500,,,,-0.1875,0.078125,-0.8671875,0.05115805600285936,2.4873865649140976,22.387918243995976,1.8403653822701083,3718,0,41.20194971734359,19.919548844401838,48.34613162982645,0.12487163159888279,0.06037060338110783,0.193359375,,
3.1392399999999325,1500,,,,0.0625,-0.04296875,-0.8515625,0.05115805600285936,2.4873865649140976,22.388312754559028,1.8291543774290608,3719,0,40.95168027825252,19.921851019474705,48.64721272512534,0.12485720139572072,0.06073954836561443,0.193359375,,
3.149299999999988,1500,,,,0.09375,0.19140625,-0.9921875,0.05115805600285936,2.4873865649140976,22.388693290879267,1.8202076488638061,3718,0,40.75207077612422,19.918564384917083,48.877428816665066,0.12487780328172743,0.06103705940684136,0.1953125,,
3.156869999999937,1500,,,,-0.0625,-0.015625,-0.978515625,0.05115805600285936,2.4873865649140976,22.388814550345842,1.8117198625332458,3716,0,40.5622600194349,19.910136812306188,49.085373454946776,0.12493066162040019,0.06132268181610929,0.1953125,,
3.1653249999999535,1500,,,,-0.03125,-0.03125,-0.890625,0.05115805600285936,2.4873865649140976,22.389161023390113,1.8049494392623073,3717,0,40.41130363472149,19.911854915286337,49.27298335948267,0.12491988192443738,0.06155175263331344,0.197265625,,
3.1737849999999743,1500,,,,0,-0.0390625,-1.08203125,0.05115805600285936,2.4873865649140976,22.38910448862513,1.7983277205309658,3718,0,40.262947239758844,19.918799132872593,49.47178609220932,0.12487633156604751,0.06177855163215309,0.19921875,,
3.182064999999944,1500,,,,0,0.15234375,-0.9453125,0.05115805600285936,2.4873865649140976,22.38971862920351,1.7922710744060812,3719,0,40.12844506321243,19.921760232560914,49.644984252888726,0.12485777039162506,0.06198562044943022,0.201171875,,
3.1912799999999697,1500,,,,-0.03125,-0.150390625,-1.041015625,0.05115805600285936,2.4873865649140976,22.38995789636574,1.7853664687835828,3719,0,39.9742800656476,19.924801326206072,49.84405295976475,0.1248387135304865,0.06222467448642469,0.203125,,
3.1992849999999744,1500,,,,-0.0625,0.0859375,-0.8984375,0.06635109240397473,2.4873865649140976,22.390286590630954,1.7765033250683664,3720,0,39.776418577489544,25.84473991798285,64.97503003603504,0.09624343571681161,0.06253420126471042,0.203125,,
3.2074749999999765,1500,,,,0.0625,-0.11328125,-1.078125,0.06635109240397473,2.4873865649140976,22.390371142413436,1.7687412748362137,3719,0,39.60277359848831,25.842010151713215,65.25303104704676,0.09625360218927066,0.06280839292046565,0.203125,,
3.2162249999999766,1500,,,,-0.21875,-0.009765625,-0.92578125,0.06635109240397473,2.4873865649140976,22.390678796191317,1.7616371324412283,3719,0,39.44425118793509,25.840881735653607,65.51241551660543,0.09625780537829556,0.06306081342659436,0.203125,,
3.2245449999999836,1500,,,,0.15625,-0.037109375,-1.064453125,0.06635109240397473,3.4303741413152022,22.390645090854107,1.7558657457264448,3719,0,39.314966739748705,25.840494315652467,65.72686296978827,0.1327518777083652,0.0872536447511981,0.203125,,
3.2322249999999766,1500,,,,-0.5,-0.02734375,-0.9296875,0.06635109240397473,3.4303741413152022,22.390384713977486,1.7592736158681976,3719,0,39.390813076439194,25.840344929225488,65.59992777778268,0.1327526451644011,0.08708563935094324,0.205078125,,
3.2390100000000093,1500,,,,0.125,0.09765625,-0.994140625,0.06635109240397473,3.4303741413152022,22.390197063778846,1.761360820703909,3722,0,39.43721587597977,25.860457012122918,65.5737390120226,0.13264940135076128,0.08698317224275862,0.20703125,,
3.247789999999979,1500,,,,-0.3125,-0.2265625,-0.86328125,0.06635109240397473,3.4303741413152022,22.390476543723228,1.758122511552941,3725,0,39.3652008559179,25.880680118061758,65.74507320002924,0.1325457494032853,0.08714229996871724,0.208984375,,
3.254619999999995,1500,,,,0.03125,0.220703125,-0.943359375,0.06635109240397473,3.4303741413152022,22.3905509951521,1.7485766958986497,3728,0,39.15159567845328,25.90519212903827,66.16637631271553,0.13242033196387473,0.08761773516176448,0.208984375,,
3.261484999999986,1500,,,,-0.15625,-0.08984375,-0.9453125,0.06635109240397473,3.4303741413152022,22.390699837325073,1.741023250597896,3731,0,38.98272901394148,25.924416825948523,66.50231392644962,0.13232213339054316,0.08799728054155444,0.2109375,,
3.2694500000000115,1500,,,,0.125,0.3203125,-1.1015625,0.06635109240397473,3.4303741413152022,22.39093192221791,1.7368301505688317,3729,0,38.88924566184219,25.907220958769038,66.61795701578494,0.13240996194746601,0.08820881153478011,0.212890625,,
3.2774349999999393,1500,,,,0.0625,-0.06640625,-0.94140625,0.06635109240397473,3.4303741413152022,22.391182077799428,1.7297449882941651,3727,0,38.73103498105569,25.89929881693848,66.86962749538314,0.13245046383540288,0.08856913178264106,0.2109375,,
3.286454999999958,1500,,,,-0.1875,-0.025390625,-0.962890625,0.06635109240397473,3.4303741413152022,22.391548329005744,1.7243362712672923,3726,0,38.61055895353913,25.89075832738167,67.05616035897471,0.1324941547844619,0.08884549289853692,0.212890625,,
3.294884999999951,1500,,,,-0.0625,-0.0078125,-0.908203125,0.06635109240397473,3.4303741413152022,22.391575478707306,1.7173668272630334,3727,0,38.4545489372883,25.893044313125987,67.33415168996619,0.13248245744422718,0.08920593885809085,0.212890625,,
3.304874999999942,1500,,,,0.0625,0.177734375,-0.98828125,0.06635109240397473,3.4303741413152022,22.391594070072138,1.712499347785199,3726,0,38.34559024086947,25.886870987620867,67.5093819785049,0.13251405096257524,0.08945941683951557,0.21484375,,
3.321859999999986,1500,,,,0,0.27734375,-1.0625,0.06635109240397473,3.4303741413152022,22.39191119012816,1.7058108227929587,3724,0,38.196364451139374,25.872502130756224,67.73550965525061,0.13258764552336463,0.08980891743514811,0.216796875,,
3.328874999999942,1500,,,,0,-0.0390625,-0.869140625,0.06635109240397473,3.4303741413152022,22.391825037752437,1.7035209988050615,3723,0,38.144944153380216,25.86769497945133,67.81421641473044,0.1326122850930556,0.08992998200552405,0.216796875,,
3.3361049999999812,1500,,,,0.03125,0.255859375,-1.078125,0.06635109240397473,3.4303741413152022,22.391920025671148,1.6999842280562174,3721,0,38.06591087953712,25.857211957588856,67.92747463581325,0.1326660487194722,0.09011669659425513,0.21875,,
3.3440899999999676,1500,,,,-0.25,-0.05078125,-0.76953125,0.07042610390576308,3.4303741413152022,22.39172768327964,1.696498673994579,3720,0,37.98753632313162,27.43434921207269,72.2193431516831,0.12503938456122154,0.09030262221102126,0.21875,,
3.3521349999999512,1500,,,,0.09375,0.013671875,-1.064453125,0.07042610390576308,3.4303741413152022,22.391838698442744,1.6924029709899404,3720,0,37.89601433917202,27.43581321773849,72.39762200896911,0.12503271231987068,0.09052071045290172,0.220703125,,
3.3601899999999443,1500,,,,-0.125,-0.0546875,-0.8984375,0.07042610390576308,3.4303741413152022,22.39184663814865,1.6900839329821473,3720,0,37.84410023293535,27.43446958170374,72.49338579287398,0.12503883594683912,0.09064488573386088,0.220703125,,
3.3685100000000094,1500,,,,0.09375,-0.015625,-1.025390625,0.07042610390576308,3.7950253718844342,22.39172257252609,1.6874425593445057,3719,0,37.784745645915564,27.43008225056193,72.59565145048701,0.13835267926718264,0.10043802881321412,0.220703125,,
3.3765299999999696,1500,,,,-0.21875,0.103515625,-0.890625,0.07042610390576308,3.7950253718844342,22.391637856910503,1.6863269104726042,3721,0,37.75962148766529,27.439920301139722,72.67000891442558,0.13830307560065352,0.10050485736791966,0.220703125,,
3.384514999999956,1500,,,,0.4375,0.203125,-1.15625,0.07042610390576308,3.7950253718844342,22.391655627176036,1.6834617969440708,3720,0,37.695496818678585,27.435137111041843,72.78094050068971,0.13832718810641728,0.10067582847200869,0.22265625,,
3.392554999999993,1500,,,,-0.28125,-0.0703125,-0.970703125,0.07042610390576308,3.7950253718844342,22.391672515648917,1.6820658271422502,3719,0,37.66426715113339,27.42460213452061,72.8133167292898,0.13838032556568836,0.10075930474516707,0.224609375,,
3.4008549999999813,1500,,,,0.1875,0.06640625,-1.01171875,0.07042610390576308,3.7950253718844342,22.391753426332073,1.678368572695516,3720,0,37.58161523830289,27.43194587760759,72.99299325923907,0.13834328008726038,0.10098090110870418,0.224609375,,
3.4087949999999836,1500,,,,-0.125,0.015625,-0.94140625,0.07042610390576308,3.7950253718844342,22.391767107323663,1.6761705481002502,3723,0,37.53242054521586,27.45348627509036,73.14605846435282,0.13823473397357958,0.10111325933035711,0.2265625,,
3.4160599999999977,1500,,,,-0.1875,-0.05859375,-1.1171875,0.07042610390576308,3.7950253718844342,22.391691427890212,1.6742885553220095,3722,0,37.490152692018526,27.447691473251563,73.21306930578345,0.1382639183183321,0.1012272583432923,0.2265625,,
3.4240799999999583,1500,,,,0.03125,0.13671875,-1.021484375,0.07042610390576308,3.7950253718844342,22.391533189716654,1.6745777642581794,3718,0,37.49636358714854,27.420178266212876,73.12756663051677,0.13840265132632862,0.10121049106706277,0.228515625,,
3.4332549999999467,1500,,,,-0.15625,0.0390625,-1.04296875,0.07042610390576308,3.7950253718844342,22.391398963885287,1.6787485269557068,3720,0,37.589528027099966,27.435652198049027,72.98748784041513,0.13832459110100187,0.10095964411014768,0.23046875,,
3.4408799999999466,1500,,,,-0.125,0.076171875,-0.923828125,0.07042610390576308,3.7950253718844342,22.391428773168908,1.6806374244866296,3722,0,37.63187318391441,27.449888210199486,72.94318854670469,0.13825285344784488,0.1008460395616608,0.228515625,,
3.448389999999956,1500,,,,0.0625,-0.05859375,-1.109375,0.07042610390576308,3.7950253718844342,22.391538818194174,1.6782887715638513,3722,0,37.57946817661139,27.44787656958843,73.0395556440348,0.13826298592763378,0.10098667054171809,0.228515625,,
3.4585199999999605,1500,,,,-0.03125,0.171875,-0.9296875,0.07042610390576308,3.7950253718844342,22.39169146954774,1.6763589076210048,3725,0,37.536511451677626,27.46998119137094,73.18203031929123,0.1381517280789604,0.10110223952936954,0.228515625,,
3.4765849999999627,1500,,,,-0.125,-0.06640625,-0.93359375,0.07042610390576308,3.7950253718844342,22.391617937317097,1.6819684932288115,3725,0,37.66199588298446,27.474406490368004,72.9499482070222,0.13812947599850417,0.10076538119953997,0.228515625,,
3.484619999999995,1500,,,,-0.09375,0.072265625,-0.962890625,0.07042610390576308,3.7950253718844342,22.391507891653525,1.6829169441531695,3727,0,37.68304803600313,27.486190473503655,72.9404650261911,0.1380702566091431,0.10070908723356434,0.228515625,,
3.492469999999972,1500,,,,-0.125,-0.1015625,-0.9296875,0.07218107220390366,3.7950253718844342,22.39146643068018,1.6793550820151788,3731,0,37.603222944135034,28.199832312246425,74.99312586620916,0.13457616803757935,0.100922875082343,0.228515625,,
3.500719999999972,1500,,,,-0.09375,0.171875,-0.951171875,0.07218107220390366,3.7950253718844342,22.39168845274253,1.6751349866164167,3731,0,37.509100736603834,28.202187345931293,75.18758592473999,0.13456493020680324,0.1011761225238066,0.228515625,,
3.5262799999999697,1500,,,,-0.01953125,0.15625,-0.96875,0.07218107220390366,3.960171753693512,22.391908013778576,1.6639027821044043,3729,0,37.25795804075208,28.188049878630494,75.65645397903695,0.14049115744951687,0.10629062788041008,0.228515625,,
3.5397949999999256,1500,,,,-0.0625,-0.11328125,-0.853515625,0.07218107220390366,3.960171753693512,22.391833965209226,1.6601453216486513,3728,0,37.173698400475466,28.176360830507456,75.79649602512262,0.14054944062917119,0.1065315511798218,0.228515625,,
3.5483549999999813,1500,,,,-0.09375,0.126953125,-0.9765625,0.07218107220390366,3.960171753693512,22.392053024233707,1.6576491571732859,3725,0,37.11816782300053,28.153564997837435,75.84847703714482,0.14066324296754978,0.1066909275419452,0.228515625,,
3.5564649999999673,1500,,,,0,-0.04296875,-0.83203125,0.07218107220390366,3.960171753693512,22.392050411425725,1.6557480929883757,3723,0,37.075594766817716,28.142356837576052,75.90534154495393,0.14071926443651078,0.1068134382900804,0.228515625,,
3.564284999999974,1500,,,,0.09375,0.2265625,-1.05859375,0.07218107220390366,3.960171753693512,22.39223924137088,1.6554008835963279,3724,0,37.06813262586572,28.146800807969463,75.93261061208393,0.14069704691171267,0.10683494077417185,0.232421875,,
3.5754649999999675,1500,,,,-0.25,-0.015625,-0.796875,0.07218107220390366,3.960171753693512,22.392146332130665,1.6522390527483612,3722,0,36.99717864480226,28.13582016235296,76.04855611417214,0.14075195714367006,0.10703983111019945,0.232421875,,
3.5851599999999744,1500,,,,-0.01953125,-0.009765625,-1.01171875,0.07218107220390366,3.960171753693512,22.392049089270508,1.6506351919694784,3721,0,36.96110424705801,28.12684874254987,76.09850764885813,0.14079685178889678,0.10714430302792508,0.232421875,,
3.5920999999999768,1500,,,,0.1875,0.20703125,-1.03515625,0.07218107220390366,3.960171753693512,22.3920469594331,1.651156113312824,3720,0,36.972765226655795,28.119548532656903,76.05476182339724,0.1408334045297466,0.10711051038288032,0.234375,,
3.599094999999972,1500,,,,-0.3125,-0.21875,-0.8984375,0.07218107220390366,3.960171753693512,22.392130204845415,1.6513197631778538,3719,0,36.976567146913,28.114605142197256,76.03357291252607,0.14085816726444733,0.10709949731026149,0.236328125,,
3.6110899999999675,1500,,,,-0.1875,-0.16796875,-0.94921875,0.07218107220390366,3.960171753693512,22.392123817310225,1.650168355220291,3720,0,36.95077412949992,28.118162611972018,76.09627477201805,0.14084034609030138,0.10717425675073691,0.23828125,,
3.628469999999972,1500,,,,0,0.263671875,-1.037109375,0.07218107220390366,3.960171753693512,22.39220991638793,1.6504984716393603,3722,0,36.95830824362601,28.132487771220532,76.11952253272412,0.14076862970308507,0.1071524088058468,0.240234375,,
3.6359400000000024,1500,,,,-0.25,-0.06640625,-0.91796875,0.07218107220390366,3.960171753693512,22.39219996962366,1.6501457508964559,3721,0,36.95039363309823,28.123408895661672,76.1112565536249,0.14081407301603502,0.10717536037684311,0.2421875,,
3.644624999999942,1500,,,,0.03125,-0.09765625,-1.08984375,0.07254607816191673,3.960171753693512,22.392189880240505,1.6497881839401722,3720,0,36.942370276965484,28.257782092075775,76.49152417730821,0.14014446501107558,0.10719863733710613,0.240234375,,
3.6526199999999953,1500,,,,-0.3125,0.08984375,-0.84765625,0.07254607816191673,3.960171753693512,22.39198479568449,1.6484488479877804,3721,0,36.91204154060599,28.266684102524426,76.57849016947212,0.14010032939589964,0.10728671697383707,0.2421875,,
3.660704999999958,1500,,,,0.0625,0.08984375,-1.1171875,0.07254607816191673,3.960171753693512,22.392118098247984,1.6465655495157663,3721,0,36.870090241263625,28.266236361729348,76.66440786221574,0.14010254860301558,0.10740878928637489,0.2421875,,
3.668884999999951,1500,,,,-0.28125,-0.005859375,-0.923828125,0.07254607816191673,4.024207349178562,22.392308682862133,1.6487378096811374,3720,0,36.91904597148603,28.25813877212632,76.54081525820344,0.14240878996418613,0.10900084883793068,0.2421875,,
3.676414999999921,1500,,,,0.0625,0.134765625,-0.9765625,0.07254607816191673,4.024207349178562,22.3924891430639,1.6496799307356498,3719,0,36.94043993852845,28.254950931721382,76.48785715259389,0.1424248571127635,0.1089377212581965,0.244140625,,
3.68475,1500,,,,-0.3125,-0.0859375,-0.921875,0.07254607816191673,4.024207349178562,22.392399630053518,1.6514850490426067,3719,0,36.98071320122058,28.25368898792184,76.40114681993019,0.14243121848261545,0.10881908435031856,0.244140625,,
3.6927799999999698,1500,,,,0.09375,0.162109375,-1.00390625,0.07254607816191673,4.024207349178562,22.39238002885095,1.6516573107945636,3719,0,36.98453818074185,28.253190367647314,76.39189714787078,0.14243373214894256,0.10880783016709397,0.244140625,,
3.7018399999999674,1500,,,,-0.1875,-0.16015625,-1.017578125,0.07254607816191673,4.024207349178562,22.392432792942998,1.6507031143718616,3719,0,36.96325854967361,28.25298146118165,76.43531054821227,0.14243478532372397,0.10887047049086791,0.24609375,,
3.7097799999999697,1500,,,,0.125,0.3984375,-1.0234375,0.07254607816191673,4.024207349178562,22.392411499775854,1.6489372813828065,3720,0,36.923682142045486,28.258863887509996,76.53316854694525,0.14240513579023262,0.10898716259384497,0.24609375,,
3.7178749999999416,1500,,,,-0.09375,-0.068359375,-0.9765625,0.07254607816191673,4.024207349178562,22.39258822228434,1.6485946651742254,3720,0,36.91630148270115,28.258201436573973,76.54667532124166,0.14240847416318994,0.10900895234763135,0.24609375,,
3.7264899999999908,1500,,,,0,0.12890625,-1.09765625,0.07254607816191673,4.024207349178562,22.39262874082465,1.6540755432772802,3719,0,37.039099549885975,28.25479822030158,76.2837071194096,0.1424256268900585,0.10864754807979532,0.244140625,,
3.734929999999935,1500,,,,-0.03125,-0.087890625,-0.826171875,0.07254607816191673,4.024207349178562,22.39240037642437,1.6603812556687134,3724,0,37.17992185444407,28.289442839372416,76.08795669373096,0.14225120558322868,0.10823603570047723,0.24609375,,
3.7422249999999186,1500,,,,-0.0625,0.15625,-1.01171875,0.07254607816191673,4.024207349178562,22.392186827080014,1.6662852789764555,3726,0,37.31177127405393,28.302928151701618,75.85522526876944,0.1421834280753251,0.10785355966139665,0.24609375,,
3.749209999999963,1500,,,,-0.0625,-0.05859375,-0.74609375,0.07254607816191673,4.024207349178562,22.392348777920382,1.6620750328022753,3726,0,37.21776382958201,28.307900731476135,76.0601869072424,0.1421584520643724,0.10812598434460421,0.24609375,,
3.7566699999999837,1500,,,,0.0625,0.166015625,-1.107421875,0.07254607816191673,4.024207349178562,22.39233348805861,1.660480617784803,3726,0,37.18203574389489,28.310136912769913,76.139287014209,0.14214722315113051,0.10822988221776739,0.24609375,,
3.767464999999967,1500,,,,-0.1875,0.08984375,-0.77734375,0.07254607816191673,4.024207349178562,22.392317112723834,1.6563169091650776,3727,0,37.08877346919101,28.317136110264844,76.34961596610195,0.14211208836616085,0.10850203370897125,0.24609375,,
3.7752249999999767,1500,,,,0.01953125,0.0390625,-1.0234375,0.07254607816191673,4.024207349178562,22.392383885293707,1.6550183058691255,3728,0,37.0598052422099,28.325430611988786,76.43167692561713,0.1420704738545196,0.10858684558317974,0.248046875,,
3.782244999999995,1500,,,,0,-0.14453125,-0.9921875,0.07254607816191673,4.024207349178562,22.392541710715417,1.656484752181802,3728,0,37.092903906395094,28.323303535468916,76.35774111119342,0.14208114332917055,0.1084899515911117,0.24609375,,
3.789849999999977,1500,,,,0.1875,0.18359375,-1.16796875,0.07254607816191673,4.024207349178562,22.392700953332138,1.653869485569236,3724,0,37.034604806193165,28.287825324529148,76.38214440943266,0.14225933959260775,0.10866073420353085,0.24609375,,
3.7979199999999835,1500,,,,-0.21875,0.08203125,-0.84375,0.07331548295893214,4.024207349178562,22.393077278966736,1.653592039825758,3723,0,37.02901433570244,28.581298750593938,77.1862261616739,0.14079861745593125,0.10867713930204517,0.248046875,,
3.805139999999956,1500,,,,0.15625,0.07421875,-1.0625,0.07331548295893214,4.024207349178562,22.393117713559477,1.6536535571384543,3724,0,37.03045876244776,28.587500824031235,77.19996397403953,0.14076807112133885,0.10867290019262395,0.25,,
3.8125299999999696,1500,,,,-0.3125,-0.06640625,-0.9296875,0.07331548295893214,4.024207349178562,22.393155661807047,1.6521729328041248,3722,0,36.99736566450704,28.573394533937073,77.23088933693623,0.14083756637311493,0.10877010503045449,0.25,,
3.8199599999999627,1500,,,,0.21875,0.103515625,-1.083984375,0.07331548295893214,4.058042218088639,22.39328050361234,1.6507271934657388,3721,0,36.96519707821904,28.56715100079499,77.28120843058505,0.14205274505587584,0.10978007798799899,0.25,,
3.827884999999951,1500,,,,-0.5,-0.1484375,-0.92578125,0.07331548295893214,4.058042218088639,22.393218631525052,1.6510908747995903,3723,0,36.97323893990318,28.582203323543194,77.3051107856715,0.14197793543599996,0.10975620028000893,0.251953125,,
3.8367549999999464,1500,,,,0.09375,0.181640625,-1.064453125,0.07331548295893214,4.058042218088639,22.39322497578415,1.6530467358936263,3722,0,37.01704745235162,28.575865181860376,77.1965003925374,0.1420094262155407,0.10962630726591999,0.251953125,,
3.8447949999999835,1500,,,,-0.34375,-0.140625,-0.96484375,0.07331548295893214,4.058042218088639,22.393360911262725,1.6536202928567612,3721,0,37.03011602812941,28.565734041876283,77.14189720652433,0.14205979136190594,0.10958761822420443,0.25390625,,
3.8522149999999673,1500,,,,0.1875,0.158203125,-1.00390625,0.07331548295893214,4.058042218088639,22.393229101170007,1.6535284639529673,3720,0,37.02784171860453,28.55773593565738,77.12503513621922,0.14209957775475263,0.10959434927177211,0.255859375,,
3.8592699999999605,1500,,,,-0.375,-0.23828125,-0.8828125,0.07331548295893214,4.058042218088639,22.393261799867776,1.652626077149789,3720,0,37.0076884029037,28.560349690752236,77.1740979328807,0.14208657323977453,0.10965403118153784,0.255859375,,
3.8678949999999603,1500,,,,0,0.05859375,-1.08203125,0.07331548295893214,4.058042218088639,22.393398794587224,1.651604754912004,3719,0,36.985043927781,28.555555202824657,77.20838525589906,0.14211042962621948,0.10972116799462485,0.255859375,,
3.876554999999993,1500,,,,-0.0625,0.29296875,-0.927734375,0.07331548295893214,4.058042218088639,22.393230961772865,1.6514509277082934,3718,0,36.981322046205875,28.547687356329785,77.19488048767217,0.14214959577763706,0.10973221057425601,0.255859375,,
3.884989999999991,1500,,,,-0.0625,0.001953125,-1.048828125,0.07331548295893214,4.058042218088639,22.393309682236378,1.6506350607774867,3717,0,36.963182088347324,28.538090833893033,77.20680207045727,0.14219739651501628,0.10978606247669193,0.255859375,,
3.8927149999999675,1500,,,,-0.125,-0.083984375,-0.91015625,0.07331548295893214,4.058042218088639,22.39304851161584,1.6497287429393712,3717,0,36.94245577164836,28.538825082151863,77.25210597410825,0.14219373805358693,0.10984765720970288,0.25390625,,
3.902209999999963,1500,,,,0.1875,0.1796875,-1.08203125,0.07331548295893214,4.058042218088639,22.3929139011809,1.6487388697763001,3718,0,36.920067556431,28.544502274552535,77.31432839586029,0.1421654572588708,0.10991426849059978,0.25390625,,
3.9111049999999232,1500,,,,-0.21875,0.033203125,-0.87109375,0.07331548295893214,4.058042218088639,22.392936462827855,1.6484335631144404,3719,0,36.91326804201459,28.549582715743185,77.34233306909624,0.14214015870189584,0.10993451496816227,0.25390625,,
3.9216549999999697,1500,,,,0.09375,0.251953125,-0.974609375,0.07331548295893214,4.058042218088639,22.3927399339683,1.6495610954642241,3717,0,36.938192615922226,28.538789506295394,77.26092557650949,0.14219391530931866,0.10986033508145761,0.25390625,,
3.9312849999999746,1500,,,,-0.0625,-0.1328125,-0.97265625,0.07331548295893214,4.058042218088639,22.392687699606327,1.6483364661409627,3716,0,36.9106837101673,28.529727962707717,77.29395691158388,0.1422390785987535,0.10994221212355446,0.25390625,,
3.940329999999958,1500,,,,-0.0625,0.109375,-0.84375,0.07331548295893214,4.058042218088639,22.39265136061847,1.6488606020798289,3717,0,36.92236060463307,28.534719000984765,77.28302994095179,0.1422141994090985,0.10990744230961846,0.255859375,,
3.9488649999999907,1500,,,,0.125,0.056640625,-1.0703125,0.07300340689259605,4.058042218088639,22.39268775743674,1.6480875242934356,3716,0,36.905109328429845,28.407839895769346,76.97535764752598,0.1428493765445709,0.10995881849244453,0.255859375,,
3.9569599999999627,1500,,,,-0.1875,0.015625,-0.875,0.07300340689259605,4.058042218088639,22.392653750238185,1.6474100094603663,3715,0,36.8898819265226,28.397934196823705,76.98027945274212,0.14289920491972014,0.11000420728294719,0.255859375,,
3.964634999999951,1500,,,,0.15625,-0.078125,-1.041015625,0.07300340689259605,4.058042218088639,22.39233406662492,1.648870598092698,3716,0,36.922061265127326,28.4118147158905,76.95078157168136,0.14282939188037885,0.10990833336603112,0.255859375,,
3.972934999999998,1500,,,,-0.28125,0.05859375,-0.869140625,0.07300340689259605,4.066909527294791,22.39251592892237,1.6486900822362363,3717,0,36.91831892833125,28.41747627042021,76.97391727284888,0.14311297346020987,0.11015966179797614,0.2578125,,
3.980844999999972,1500,,,,0.4375,0.11328125,-1.16796875,0.07300340689259605,4.066909527294791,22.39249089784909,1.6495749717708497,3717,0,36.93809254069842,28.41966325009265,76.93863243961458,0.14310196048088406,0.1101006913882699,0.2578125,,
3.988914999999921,1500,,,,-0.21875,-0.15625,-0.970703125,0.07300340689259605,4.066909527294791,22.392368558361643,1.6509601030344625,3717,0,36.968907102298395,28.414565289788268,76.86071219568647,0.14312763492307842,0.11000891955072015,0.2578125,,
3.9971149999999906,1500,,,,0.15625,0.18359375,-1.052734375,0.07300340689259605,4.066909527294791,22.392614406933202,1.650568734457776,3718,0,36.9605492228527,28.424550080965027,76.90510741488153,0.14307735797789337,0.11003379583927346,0.259765625,,
4.006164999999979,1500,,,,-0.375,-0.078125,-0.83984375,0.07300340689259605,4.066909527294791,22.39265482419006,1.650634519014016,3719,0,36.962089025173846,28.428710093823423,76.91315843772094,0.14305642126824425,0.11002921194537822,0.26171875,,
4.014169999999984,1500,,,,-0.0625,0.140625,-1.111328125,0.07300340689259605,4.066909527294791,22.392754666420345,1.6517606378345124,3719,0,36.987470730678226,28.43008387873641,76.86409294041258,0.14304950856429013,0.10995370721365942,0.26171875,,
4.0224199999999835,1500,,,,-0.1875,-0.15625,-0.982421875,0.07300340689259605,4.066909527294791,22.392917791372355,1.6527449664896912,3720,0,37.00978216470811,28.436694944551128,76.835618264373,0.14301625189653303,0.10988742136323422,0.26171875,,
4.031044999999984,1500,,,,0.125,0.2109375,-1.05078125,0.07300340689259605,4.066909527294791,22.393010019711763,1.6526921527237473,3719,0,37.00875193544188,28.433099895666757,76.82804312143652,0.1430343347091252,0.10989048034878653,0.26171875,,
4.038999999999942,1500,,,,-0.09375,0.150390625,-0.873046875,0.07300340689259605,4.066909527294791,22.393156567330358,1.6524861781622016,3719,0,37.00438171293555,28.43181239517679,76.8336372047474,0.14304081184724993,0.10990345842944134,0.26171875,,
4.046889999999956,1500,,,,-0.09375,0.103515625,-1.009765625,0.07300340689259605,4.066909527294791,22.393100200979912,1.6540366462667677,3719,0,37.039008355944496,28.431304680344596,76.7604370158079,0.14304336621267916,0.10980071302697501,0.259765625,,
4.055009999999951,1500,,,,-0.25,-0.0234375,-0.92578125,0.07300340689259605,4.066909527294791,22.392913328521743,1.6530609551571331,3719,0,37.01685069559705,28.43110249605814,76.80583831903309,0.143044383447974,0.10986643787550861,0.259765625,,
4.06225,1500,,,,0.0625,0.07421875,-0.998046875,0.07300340689259605,4.066909527294791,22.392964655999872,1.6548420834211568,3719,0,37.056820285311154,28.43102442169772,76.72278463937019,0.14304477626177428,0.10974793562919001,0.2578125,,
4.073389999999955,1500,,,,-0.375,-0.15234375,-0.890625,0.07300340689259605,4.066909527294791,22.393039395749344,1.6557532060559368,3719,0,37.07734677284888,28.430995090948464,76.68023082969898,0.14304492383348086,0.10968717778568021,0.259765625,,
4.082204999999958,1500,,,,0.01953125,0.140625,-0.96875,0.07300340689259605,4.066909527294791,22.393112803272352,1.6543287863597613,3718,0,37.045571126654785,28.420111785583494,76.7166247442055,0.1430997019989833,0.10978126139263637,0.2578125,,
4.09076999999996,1500,,,,-0.0625,0.1328125,-1.01953125,0.07300340689259605,4.066909527294791,22.393159512999492,1.6562459362299193,3718,0,37.08857944275377,28.426930487995243,76.64604823129507,0.14306537700270722,0.1096539578597791,0.2578125,,
4.098880000000005,1500,,,,0.0625,0.21875,-0.97265625,0.0728933103863216,4.066909527294791,22.392975656759127,1.6566555031457786,3720,0,37.097446353579464,28.398297346950653,76.5505449520262,0.1432096254788841,0.10962774872784155,0.2578125,,
4.106229999999981,1500,,,,-0.0625,-0.09375,-0.982421875,0.0728933103863216,4.066909527294791,22.392933455809118,1.6568652850328152,3722,0,37.10207407298004,28.409252026198384,76.57052263524994,0.14315440348603253,0.1096140749246296,0.259765625,,
4.122899999999965,1500,,,,0.03125,-0.087890625,-0.96875,0.0728933103863216,4.068923923293612,22.39298361774732,1.658763653635211,3720,0,37.14466732156797,28.39954909347531,76.45659832571761,0.14327424389383817,0.10954261315812083,0.259765625,,
4.131084999999962,1500,,,,-0.09375,0.19921875,-0.94140625,0.0728933103863216,4.068923923293612,22.393033148865772,1.657471744490173,3720,0,37.11581971767682,28.398584592600557,76.51342421807114,0.14327910991570325,0.10962775318567845,0.26171875,,
4.138994999999937,1500,,,,0.09375,-0.048828125,-1.0703125,0.0728933103863216,4.068923923293612,22.392916940006742,1.655805138862642,3720,0,37.078306943387474,28.398200086916958,76.5897971832327,0.14328104988485393,0.10973866550881613,0.26171875,,
4.14704999999993,1500,,,,-0.3125,0,-0.90625,0.0728933103863216,4.068923923293612,22.392806299376062,1.654646601020005,3722,0,37.05218083056196,28.410007633242238,76.67566927614865,0.14322150052971508,0.10981604407850183,0.26171875,,
4.155304999999993,1500,,,,0.1875,0.029296875,-0.974609375,0.0728933103863216,4.068923923293612,22.39286521225268,1.6535395985165884,3722,0,37.02748935270437,28.414672662635834,76.73939864507858,0.14319798688527866,0.10988927400762134,0.26171875,,
4.163914999999979,1500,,,,-0.25,-0.072265625,-0.947265625,0.0728933103863216,4.068923923293612,22.3931102632,1.6551073663880755,3723,0,37.06300175296274,28.416606290279425,76.67108692297936,0.1431882428791465,0.10978398216135721,0.263671875,,
4.172099999999976,1500,,,,0.25,0.0703125,-1.046875,0.0728933103863216,4.068923923293612,22.392957418402446,1.6530240620113605,3721,0,37.01609743221504,28.405299991313083,76.73769511583359,0.14324523678813364,0.10992309307443188,0.263671875,,
4.179964999999967,1500,,,,-0.125,0.00390625,-1.0390625,0.0728933103863216,4.068923923293612,22.39278024306379,1.653279706420552,3720,0,37.02152914619244,28.397878822224023,76.7063907870609,0.14328267082079718,0.10990696540993876,0.265625,,
4.187649999999965,1500,,,,0.0625,0.171875,-1.046875,0.0728933103863216,4.068923923293612,22.39264527385451,1.6538370572178733,3720,0,37.03378656303526,28.397928891429565,76.68113775806698,0.14328241819499749,0.10987058847919566,0.265625,,
4.19552999999997,1500,,,,-0.25,-0.078125,-0.87890625,0.0728933103863216,4.068923923293612,22.3924388893369,1.6535991808645238,3722,0,37.02811860496641,28.40926074556665,76.72347884765674,0.14322526586435658,0.10988740655993974,0.267578125,,
4.203075000000012,1500,,,,-0.4375,-0.1484375,-1.078125,0.0728933103863216,4.068923923293612,22.39261171016303,1.6545617466700455,3721,0,37.04995874367146,28.40245705155754,76.65988847129012,0.14325957489901317,0.10982263034202783,0.267578125,,
4.210889999999956,1500,,,,0.15625,0.181640625,-1.005859375,0.0728933103863216,4.068923923293612,22.39248398446515,1.654583034437743,3721,0,37.050224099614915,28.402719845078018,76.66004871849945,0.1432582494031369,0.10982184378571419,0.267578125,,
4.2189799999999815,1500,,,,-0.21875,-0.04296875,-1.021484375,0.0728933103863216,4.068923923293612,22.39246022931813,1.6559361986002947,3722,0,37.08048546944535,28.41179299900778,76.62195529349083,0.14321250064843535,0.1097322182215344,0.26953125,,
4.229284999999974,1500,,,,0.125,0.31640625,-0.88671875,0.0728933103863216,4.068923923293612,22.392568533133854,1.6543478947445205,3721,0,37.04509861071239,28.403414839142943,76.6725313316604,0.14325474406289346,0.10983703852571189,0.26953125,,
