Time (s),ESC signal (µs),Servo 1 (µs),Servo 2 (µs),Servo 3 (µs),AccX (g),AccY (g),AccZ (g),Torque (N·m),Thrust (N),Voltage (V),Current (A),Motor Electrical Speed (RPM),Motor Optical Speed (RPM),Electrical Power (W),Mechanical Power (W),Motor Efficiency (%),Propeller Mech. Efficiency (N/W),Overall Efficiency (N/W),Vibration (g),App message,90% settling time (s),Max acceleration (RPM/s),
0,1000,,,,-0.03125,0.01953125,-0.958984375,-0.005188329377266187,0.02118747481903509,22.44583109345441,0.07120399220386754,0,0,1.5982327821876554,0,0,0,0,0.0703125,,
0,1200,,,,-0.0625,0.0390625,-0.951171875,-0.005188329377266187,0.02118747481903509,22.445615646930634,0.0704388988613297,0,0,1.5810444504344263,0,0,0,0,0.0703125,,
0.008054999999993016,1200,,,,0,0.0234375,-0.96484375,-0.003873849590128694,0.02118747481903509,22.445603134676805,0.07088777738592116,0,0,1.5911189183037033,0,0,0,0,0.068359375,,
0.016200000000011643,1200,,,,-0.0625,0.037109375,-0.94921875,-0.003873849590128694,0.02118747481903509,22.445521846777172,0.07181859104212754,0,0,1.612005754240829,0,0,0,0,0.068359375,,
0.02526500000001397,1200,,,,-0.03125,0.015625,-0.9609375,-0.003873849590128694,0.02118747481903509,22.445582836592603,0.0713602511952841,0,0,1.6017224294438055,0,0,0,0,0.068359375,,
0.03372999999998137,1200,,,,0,0.005859375,-0.9609375,-0.003873849590128694,0.02118747481903509,22.445634399640273,0.07056052259448227,0,0,1.583775693203306,0,0,0,0,0.068359375,,
0.04222500000003492,1200,,,,-0.125,0.1171875,-0.9921875,-0.003873849590128694,0.02118747481903509,22.445617904193803,0.07087083253527822,0,0,1.5907396276389614,0,0,0,0,0.068359375,,
0.049165000000037255,1200,,,,0.03125,0.060546875,-1.03515625,-0.003873849590128694,0.02118747481903509,22.444686197962874,0.11327603197952082,0,0,2.5424449915307523,0,0,0,0,0.0703125,,
0.05656500000011874,1200,,,,-0.0625,0.10546875,-0.9921875,-0.003873849590128694,0.02118747481903509,22.443343027099992,0.1524064826036944,0,0,3.420510968628461,0,0,0,0,0.0703125,,
0.06380999999999767,1200,,,,-0.09375,0.005859375,-0.947265625,-0.003873849590128694,0.02118747481903509,22.442162574565074,0.18144058090134801,0,0,4.071919014211579,0,0,0,0,0.0703125,,
0.07235000000003493,1200,,,,-0.0625,0.0625,-0.99609375,-0.003873849590128694,0.02118747481903509,22.441160605704813,0.22385937028740974,0,0,5.023664081711706,0,0,0,0,0.0703125,,
0.08019000000000233,1200,,,,0,-0.017578125,-0.93359375,-0.003873849590128694,0.02118747481903509,22.440469682489336,0.249009537784158,2,0,5.58789098329608,0.0006786527177623413,0.012145060091384073,0,0.003791676480871039,0.072265625,,
0.08828000000002793,1200,,,,-0.03125,0.0234375,-0.939453125,-0.003873849590128694,0.02118747481903509,22.440054612408037,0.2635155210645717,3,0,5.913302683906149,0.0010893178840003814,0.018421480215533477,0,0.003583018822408611,0.072265625,,
0.09595000000001164,1200,,,,-0.0625,0.23828125,-1.0078125,-0.003873849590128694,0.02118747481903509,22.439597436202376,0.2762750178649952,3,0,6.199500182570112,0.0012510606859585127,0.020180024987754147,0,0.0034176101613164964,0.07421875,,
0.10377500000002328,1200,,,,-0.03125,0.013671875,-0.90625,-0.003873849590128694,0.02118747481903509,22.43942577614557,0.2850599272437566,3,0,6.396581079139732,0.0013144626171069402,0.020549456042910356,0,0.003312312398904911,0.07421875,,
0.11036499999999069,1200,,,,0.0625,-0.1015625,-1.09375,-0.003873849590128694,0.02118747481903509,22.438822861550047,0.3029443698508805,3,0,6.797715051987811,0.0013385027322227584,0.019690480139077746,0,0.00311685245071274,0.076171875,,
0.11828000000002795,1200,,,,-0.03125,0.193359375,-0.880859375,-0.003873849590128694,0.02118747481903509,22.438001379599726,0.32972249751372074,3,0,7.398313854097933,0.001349862135728464,0.01824553759612096,0,0.002863824816961412,0.078125,,
0.12817000000004192,1200,,,,0,0.015625,-1.1875,-0.003873849590128694,0.02118747481903509,22.43756935464917,0.3339560588484053,3,0,7.4931622318163935,0.0013540625875337596,0.018070642882711558,0,0.0028275745491098355,0.080078125,,
0.1449000000000233,1200,,,,-0.0625,0.05859375,-0.96875,-0.003873849590128694,0.031876492353186535,22.437694148439054,0.34427548125769464,395,0,7.724747951266814,0.16039010443850324,2.076315051964902,0.1987435101734011,0.004126541416533723,0.083984375,,
0.1514000000000815,1200,,,,-0.03125,0.080078125,-1.025390625,-0.003873849590128694,0.031876492353186535,22.437877770978417,0.34533688420288194,560,0,7.748626797554793,0.2273382277324816,2.9339163399148602,0.14021615577428065,0.004113824705462094,0.083984375,,
0.1590899999999674,1200,,,,-0.0625,0.03515625,-0.9453125,-0.001410920509710552,0.031876492353186535,22.437968841996128,0.3452429963614854,633,0,7.746551595276392,0.0935695451115522,1.2078864248268615,0.34067166101089685,0.0041149267465828065,0.083984375,,
0.16694500000006518,1200,,,,-0.03125,0.044921875,-0.978515625,-0.001410920509710552,0.031876492353186535,22.43826319849038,0.34291521013990656,668,0,7.69442173988486,0.09863757964465536,1.281936225738146,0.323167827799734,0.0041428054544958605,0.083984375,,
0.17417499999998837,1200,,,,-0.0625,0.00390625,-0.95703125,-0.001410920509710552,0.031876492353186535,22.43851226018867,0.33925106796537563,680,0,7.612289247823181,0.10051919873286028,1.3204858021074917,0.3171184485652484,0.004187504089167653,0.083984375,,
0.18221000000007917,1200,,,,-0.03125,0.029296875,-1.05078125,-0.001410920509710552,0.031876492353186535,22.438781078970575,0.33211161132537625,686,0,7.452179740314282,0.10139147627952447,1.3605613365848375,0.31439025767123424,0.004277472291864259,0.083984375,,
0.19027000000007682,1200,,,,-0.125,0.12109375,-0.8828125,-0.001410920509710552,0.031876492353186535,22.43884161248466,0.3232820746012965,689,0,7.254075268133941,0.10173874984340979,1.4025047450270163,0.31331712255408023,0.004394287510803087,0.083984375,,
0.19819000000006054,1200,,,,-0.03125,0.03125,-0.947265625,-0.001410920509710552,0.031876492353186535,22.439093990485993,0.3158665246642424,701,0,7.087758635389098,0.10354673914393041,1.460923607456421,0.3078464142543212,0.004497400940549466,0.0859375,,
0.20612000000005354,1200,,,,-0.03125,0.056640625,-1.0078125,-0.001410920509710552,0.031876492353186535,22.439527665976513,0.30959162697271475,728,0,6.947089878608913,0.10759647029091765,1.548799168731394,0.29625964743080674,0.004588466956694894,0.0859375,,
0.2142150000000838,1200,,,,-0.125,0.08203125,-0.84765625,-0.001410920509710552,0.031876492353186535,22.439745010550766,0.3017262912088549,739,0,6.77066103770589,0.10920334584392041,1.612890458343221,0.29190032692538753,0.004708032520852245,0.0859375,,
0.22160500000009778,1200,,,,0,0.021484375,-0.99609375,-0.001410920509710552,0.031876492353186535,22.439757481117624,0.2919976451744683,743,0,6.552356342772504,0.10984344964275208,1.6763961527201363,0.29019930143180706,0.0048648899244235246,0.0859375,,
0.22928999999997904,1200,,,,-0.0625,0.03125,-0.9140625,-0.001410920509710552,0.031876492353186535,22.439946384215922,0.28586891442490536,745,0,6.414883112608886,0.11008456484309105,1.716080603662324,0.28956368586842,0.004969146248437657,0.0859375,,
0.23657500000001164,1200,,,,-0.0625,0.06640625,-0.994140625,-0.001410920509710552,0.031876492353186535,22.44014519714925,0.2790952602938659,746,0,6.262938164830514,0.1101927457610975,1.7594417007002257,0.2892794088487105,0.005089702550823311,0.0859375,,
0.24327500000002328,1200,,,,0,0.05859375,-0.99609375,-0.001410920509710552,0.031876492353186535,22.44036154439165,0.2719024852278157,746,0,6.101590073330794,0.11023170188995747,1.806606156184844,0.28917717686159217,0.005224292679463058,0.0859375,,
0.2507850000000908,1200,,,,-0.0625,0.025390625,-0.94921875,-0.001410920509710552,0.031876492353186535,22.440433520647634,0.2650279684549274,767,0,5.947342507225096,0.1133018914751419,1.9050843521707002,0.2813412197993194,0.005359787554603011,0.087890625,,
0.25826000000006755,1200,,,,0,0.00390625,-1.04296875,-0.001410920509710552,0.031876492353186535,22.440414827510203,0.2591252755752437,796,0,5.814878676201365,0.11763421427269369,2.022986562972274,0.2709797702162745,0.005481884339848379,0.087890625,,
0.2677650000000722,1200,,,,-0.0625,0.029296875,-0.951171875,-0.001410920509710552,0.031876492353186535,22.440492587406897,0.2527133646797291,810,0,5.671012386834117,0.11966065678585451,2.1100404764352123,0.26639075206007695,0.005620952693947793,0.087890625,,
0.27870000000006984,1200,,,,-0.0625,0.05859375,-0.91796875,-0.001410920509710552,0.031876492353186535,22.44070364863008,0.2452274995857818,816,0,5.5030776446990854,0.12054480981953584,2.1904980740304887,0.2644368712423862,0.005792484571590953,0.087890625,,
0.2951149999999907,1200,,,,-0.15625,0.076171875,-0.814453125,-0.001410920509710552,0.09740307190003653,22.437394508846644,0.32682935920187944,818,0,7.3331992694861174,0.12093071185452485,1.6490853092963775,0.8054452868615277,0.013282479900053523,0.091796875,,
0.30135500000003956,1200,,,,-0.0625,0.1015625,-1.27734375,-0.001410920509710552,0.09740307190003653,22.435912214297876,0.3632566860061143,855,0,8.149995118489949,0.12626938716962097,1.5493185619602734,0.7713910242487549,0.011951304323981437,0.095703125,,
0.3088200000000652,1200,,,,-0.0625,0.15625,-0.90234375,0.005085544514004629,0.09740307190003653,22.43486839942662,0.394351424419206,871,0,8.84722230997132,0.46390881363659875,5.2435532575433,0.2099616757364236,0.011009452287669742,0.095703125,,
0.3154050000000279,1200,,,,-0.03125,-0.0625,-0.90625,0.005085544514004629,0.09740307190003653,22.433973163878385,0.41671836506519944,878,0,9.34864861876796,0.4676668761849851,5.002507798251358,0.20827447240781033,0.010418946723967584,0.095703125,,
0.32290499999996974,1200,,,,0.0625,0.02734375,-1.078125,0.005085544514004629,0.09740307190003653,22.433189134342875,0.43793341941352765,881,0,9.82424322595317,0.4693280572754274,4.777243869895049,0.2075372873837693,0.00991456233928759,0.095703125,,
0.3300599999999977,1200,,,,-0.09375,-0.0234375,-0.962890625,0.005085544514004629,0.09740307190003653,22.432701067983363,0.44999516908871373,883,0,10.094607110203743,0.4700474708564786,4.656421648955008,0.20721964894855688,0.009649020594529172,0.09765625,,
0.3380349999999744,1200,,,,0.1875,-0.0625,-0.921875,0.005085544514004629,0.09740307190003653,22.432341224323718,0.45972008532375047,1078,0,10.312597821657585,0.5741835826955074,5.567787987326132,0.16963750764655683,0.009445056772744438,0.099609375,,
0.3448300000000163,1200,,,,-0.0625,0.052734375,-0.96484375,0.005085544514004629,0.09740307190003653,22.432156732772633,0.46556249239956893,1150,0,10.443570798407398,0.612346257941519,5.8633801576267315,0.15906535009696884,0.009326606175245165,0.099609375,,
0.35233500000002094,1200,,,,0,0.01953125,-0.8828125,0.005085544514004629,0.09740307190003653,22.432149916154085,0.4686110060859809,1182,0,10.511952340880518,0.6294463050064569,5.987910566894107,0.1547440522333948,0.009265935455323584,0.099609375,,
0.36921000000007914,1200,,,,-0.03125,0.01171875,-0.966796875,0.005085544514004629,0.09740307190003653,22.43229212638486,0.468689282103495,1323,0,10.513774892651202,0.7046922879402844,6.702562068670901,0.13822071500843566,0.009264329215201117,0.09765625,,
0.37729000000003726,1200,,,,0,-0.046875,-0.96484375,0.005085544514004629,0.09740307190003653,22.432277802170073,0.4657126651739983,1385,0,10.446995881172146,0.7375628190054643,7.060046997191984,0.13206071318965837,0.009323548416016793,0.09765625,,
0.3852249999999767,1200,,,,-0.0625,0.078125,-0.95703125,0.005085544514004629,0.09740307190003653,22.43236246093642,0.46097315896030033,1409,0,10.340716986560318,0.750474803632564,7.257473583388322,0.1297885970702429,0.009419373146623188,0.09765625,,
0.3932600000000675,1200,,,,-0.0625,0.140625,-0.98046875,0.005085544514004629,0.09740307190003653,22.432475442128926,0.4547765325268591,1436,0,10.201763397565314,0.7647089189223573,7.49585036548542,0.12737274208505223,0.009547670153111188,0.09765625,,
0.40115000000002327,1200,,,,0,0.087890625,-0.98046875,0.005085544514004629,0.09740307190003653,22.432840448990223,0.44873039934446207,1481,0,10.066297453105985,0.7884954147878517,7.833023199056761,0.12353029589429289,0.009676156735263425,0.09765625,,
0.4091700000000419,1200,,,,0.03125,0.109375,-0.984375,0.005085544514004629,0.09740307190003653,22.433127779856267,0.44223590874430263,1499,0,9.920734649701796,0.7980466689163415,8.044229556531175,0.12205184946426635,0.009818130948897451,0.09765625,,
0.41753000000002793,1200,,,,0,0.08984375,-0.943359375,0.005085544514004629,0.09740307190003653,22.433369331546757,0.434745352290737,1506,0,9.75280305311151,0.8018085491819399,8.22131386038943,0.12147921345988867,0.009987187413669888,0.09765625,,
0.42537000000005354,1200,,,,-0.0625,0.06640625,-0.99609375,0.005085544514004629,0.09740307190003653,22.43362488635122,0.4286483975681692,1533,0,9.616137359179852,0.8166112857256363,8.492092565067978,0.11927715622186714,0.010129126515341697,0.09765625,,
0.4376500000000815,1200,,,,-0.03125,0.029296875,-0.962890625,0.005085544514004629,0.1443187200135925,22.43353452775717,0.42172052384565367,1545,0,9.460681932755312,0.8229758458616602,8.69890618574023,0.17536203612694126,0.015254579008086511,0.095703125,,
0.44597500000009316,1200,,,,-0.03125,0.03125,-0.984375,0.005085544514004629,0.1443187200135925,22.43390939177378,0.4114136287994131,1554,0,9.229616071026886,0.8274419141993401,8.965074038093537,0.17441553000519683,0.015636481398899144,0.095703125,,
0.4537200000000885,1200,,,,-0.0625,0.068359375,-0.96484375,0.015016537131633778,0.1443187200135925,22.434365516599623,0.40447129397935294,1566,0,9.074056850104824,2.4622837322985336,27.135423250848255,0.05861173435072467,0.01590454219073196,0.095703125,,
0.4619099999999744,1200,,,,-0.03125,0.060546875,-0.970703125,0.015016537131633778,0.1443187200135925,22.434739771463857,0.398274724704997,1570,0,8.935189806308014,2.4692070819589595,27.634634915262385,0.05844739433482283,0.016151724041912036,0.095703125,,
0.47044500000006517,1200,,,,-0.0625,0.03515625,-0.953125,0.015016537131633778,0.1443187200135925,22.43500201333648,0.3919568652203188,1572,0,8.793553060358908,2.47196398391299,28.111094195320597,0.05838220983508971,0.016411878000051793,0.09375,,
0.47939500000007684,1200,,,,-0.0625,0.029296875,-0.951171875,0.015016537131633778,0.1443187200135925,22.435276016919925,0.38380475134180936,1582,0,8.61076553295881,2.4876507709368187,28.89000706632896,0.058014059569641216,0.01676026590913364,0.09375,,
0.4875600000000559,1200,,,,-0.03125,0.0703125,-0.97265625,0.015016537131633778,0.1443187200135925,22.435410245878796,0.37570509788303463,1585,0,8.42909800247393,2.49299025780493,29.576002759408425,0.057889805049083774,0.017121490338733177,0.09375,,
0.49544000000006055,1200,,,,-0.0625,0.08984375,-0.96875,0.015016537131633778,0.1443187200135925,22.43576808796638,0.36896714282583765,1587,0,8.278061248520062,2.4950889739752906,30.140982279170238,0.05784111168735488,0.017433879223760704,0.09375,,
0.5033800000000046,1200,,,,-0.03125,0.05859375,-0.98046875,0.015016537131633778,0.1443187200135925,22.43577935332614,0.36378519580202684,1592,0,8.16180438502082,2.5033196676483653,30.67115492552912,0.05765093522760776,0.01768220765967602,0.09375,,
0.5112100000000209,1200,,,,0,0.03125,-0.98828125,0.015016537131633778,0.1443187200135925,22.435790300824685,0.35810220474035703,1594,0,8.034305971817638,2.5065979044411786,31.19868614954055,0.05757553684932444,0.0179628110405338,0.091796875,,
0.5186950000000652,1200,,,,-0.0625,0.037109375,-0.9296875,0.015016537131633778,0.1443187200135925,22.435799345365854,0.35522214302134075,1595,0,7.969692723857653,2.507787571646657,31.466552833831045,0.057548223639544684,0.018108442196468573,0.091796875,,
0.5263850000000093,1200,,,,0,0.0078125,-0.95703125,0.015016537131633778,0.1443187200135925,22.43600287427728,0.3529536908587237,1597,0,7.918870022593099,2.511277990777641,31.712579997054963,0.057468237504404225,0.01822466079148173,0.091796875,,
0.5343650000001071,1200,,,,-0.03125,0.05078125,-0.92578125,0.015016537131633778,0.1443187200135925,22.436002772990115,0.35182673963127675,1600,0,7.893585705979397,2.5156437792862887,31.869468109793083,0.05736850392011267,0.0182830370618857,0.091796875,,
0.5414000000000815,1200,,,,-0.0625,0.025390625,-1.029296875,0.015016537131633778,0.1443187200135925,22.43617548666099,0.34976421402056895,1601,0,7.847371284719537,2.5172344378117475,32.077422444804235,0.057332252350341256,0.018390708783540172,0.091796875,,
0.5493400000000256,1200,,,,-0.0625,0.0390625,-1,0.015016537131633778,0.1443187200135925,22.436362849559803,0.34422806886713303,1601,0,7.723225856106257,2.5179779037726275,32.60267083581175,0.05731532425179869,0.01868632650429211,0.091796875,,
0.5573350000000792,1200,,,,-0.03125,0.052734375,-0.966796875,0.015016537131633778,0.1443187200135925,22.43654103483225,0.3381197973457115,1609,0,7.586238707836221,2.5308998509740457,33.361721776033065,0.057022690944507265,0.019023751502113714,0.091796875,,
0.5650950000000303,1200,,,,0,0.12890625,-1,0.015016537131633778,0.1443187200135925,22.436839640838908,0.3321201156814062,1613,0,7.451725777040578,2.5359950723766196,34.03231879775076,0.05690812320007529,0.01936715390926638,0.091796875,,
0.5725100000000676,1200,,,,-0.03125,0.087890625,-0.984375,0.015016537131633778,0.1443187200135925,22.43714684583814,0.32770531905168115,1614,0,7.3527723657248085,2.5378746350552728,34.5158874615194,0.056865976758717775,0.019627796541932807,0.091796875,,
0.5805750000000699,1200,,,,-0.0625,0.048828125,-0.966796875,0.015016537131633778,0.4097932283863803,22.437410361114893,0.32112214906574366,1616,0,7.205149434631197,2.5406430493397822,35.26149002723394,0.16129508176792887,0.05687504917201707,0.091796875,,
0.5898699999999953,1200,,,,-0.0625,0.01953125,-0.97265625,0.015016537131633778,0.4097932283863803,22.437610634065372,0.3161189063967258,1617,0,7.092952935796291,2.543168298698329,35.8548593472772,0.16113492315712058,0.057774700057328786,0.091796875,,
0.5975600000000558,1200,,,,-0.03125,0.013671875,-0.984375,0.015016537131633778,0.4097932283863803,22.437931469312907,0.3103678264585059,1618,0,6.964012020355557,2.544449454932164,36.537120376800466,0.16105379008100815,0.058844417153297475,0.091796875,,
0.6054200000001001,1200,,,,-0.03125,0.064453125,-1.02734375,0.018227195733967375,0.4097932283863803,22.437843136767317,0.30531448948113116,1617,0,6.850598622359816,3.087120420576714,45.06351328919776,0.13274287120611436,0.05981860140643001,0.091796875,,
0.6129700000000302,1200,,,,-0.0625,0.15234375,-0.9921875,0.018227195733967375,0.4097932283863803,22.437557324917307,0.30047375280554367,1615,0,6.741897053207419,3.08278261212823,45.72574436836904,0.1329296547781796,0.060783074133625874,0.091796875,,
0.6233699999999953,1200,,,,-0.03125,0.052734375,-0.9765625,0.018227195733967375,0.4097932283863803,22.43782892103938,0.29661806250488004,1614,0,6.655465341374664,3.08087420185506,46.290890926925265,0.13301199644556572,0.06157243819434253,0.091796875,,
0.6316100000000442,1200,,,,-0.09375,0.044921875,-0.958984375,0.018227195733967375,0.4097932283863803,22.437935423178633,0.29506762937826053,1614,0,6.620708413459816,3.0803143269551008,46.52544916028715,0.13303617257510927,0.061895676836224336,0.091796875,,
0.6396950000000652,1200,,,,-0.0625,0.0234375,-0.9921875,0.018227195733967375,0.4097932283863803,22.438099134402417,0.2920556929780258,1611,0,6.553174591807539,3.0751032075051645,46.92539721663313,0.13326161781699877,0.06253354349793823,0.091796875,,
0.6472250000000349,1200,,,,-0.0625,0.109375,-0.9765625,0.018227195733967375,0.4097932283863803,22.438326836671735,0.28940844865318277,1610,0,6.493841360174245,3.0729776740187713,47.32141583970441,0.13335379291918575,0.0631049028853062,0.091796875,,
0.655655000000028,1200,,,,-0.03125,0.0703125,-0.96875,0.018227195733967375,0.4097932283863803,22.43821192913571,0.2865973949013732,1610,0,6.430733085135211,3.0721541977058617,47.773001258709016,0.1333895377687729,0.06372418555726203,0.091796875,,
0.6645450000001001,1200,,,,-0.0625,0.00390625,-0.9609375,0.018227195733967375,0.4097932283863803,22.43852390020048,0.2843807405937175,1609,0,6.381084044568842,3.0706448884679634,48.12105383694944,0.13345510251784226,0.06422000173076693,0.09375,,
0.6718250000000117,1200,,,,-0.0625,0.01171875,-0.94140625,0.018227195733967375,0.4097932283863803,22.438595657103374,0.28185975884080666,1608,0,6.3245371606375285,3.069567450709452,48.53426223524683,0.1335019461102466,0.06479418461430499,0.091796875,,
0.6797650000000722,1200,,,,-0.03125,0.087890625,-0.966796875,0.018227195733967375,0.4097932283863803,22.438745553034398,0.2793994607721524,1608,0,6.269373407921343,3.069162574176164,48.95485361102088,0.1335195573653763,0.06536430385030301,0.091796875,,
0.6875100000000676,1200,,,,-0.125,-0.0078125,-0.98828125,0.018227195733967375,0.4097932283863803,22.438741696462536,0.2766573129957203,1608,0,6.207841984748355,3.068418523049153,49.42810288322016,0.13355193410159708,0.06601218739026779,0.091796875,,
0.6947850000000326,1200,,,,-0.03125,0.07421875,-1.02734375,0.018227195733967375,0.4097932283863803,22.438796043698023,0.27531183604643117,1607,0,6.177666137461898,3.067627639061434,49.65674043890259,0.1335863659488216,0.0663346350009689,0.091796875,,
0.7032950000000419,1200,,,,-0.0625,0.04296875,-0.99609375,0.018227195733967375,0.4097932283863803,22.438935861405046,0.27199926941865543,1607,0,6.10337416083424,3.067235232788174,50.25474683283924,0.13360345630024298,0.06714207872361011,0.091796875,,
0.7116600000000326,1200,,,,-0.09375,0.078125,-1,0.018227195733967375,0.4097932283863803,22.439084553506515,0.27087143058169266,1607,0,6.078106933951872,3.0671035589847504,50.461493888041495,0.1336091920293774,0.0674211942697659,0.09375,,
0.7193600000000442,1200,,,,0,0.0703125,-0.96484375,0.018227195733967375,0.4097932283863803,22.439195761489476,0.26961691249040676,1606,0,6.049986679980615,3.065653667337812,50.67207300607867,0.13367238209338936,0.06773456704332668,0.091796875,,
0.7275850000000792,1200,,,,-0.03125,0.02734375,-0.955078125,0.018227195733967375,0.4097932283863803,22.439235301926658,0.26779186152121864,1606,0,6.009044592615584,3.0650865420639826,51.00788477806633,0.13369711515891874,0.06819607045185994,0.091796875,,
0.7356450000000768,1200,,,,-0.125,-0.00390625,-0.9453125,0.018227195733967375,0.5435424000486488,22.439273173730545,0.26658083657786946,1606,0,5.981880214852432,3.064862473145493,51.2357714140737,0.1773464241254541,0.09086480847595133,0.09375,,
0.7460450000001001,1200,,,,-0.03125,0.072265625,-0.974609375,0.018227195733967375,0.5435424000486488,22.4392115188641,0.26556044669971235,1606,0,5.9589670345388805,3.064775780533165,51.43132631493613,0.17735144068323697,0.091214198182036,0.091796875,,
0.7544149999999791,1200,,,,-0.03125,0.083984375,-0.982421875,0.016860216402349016,0.5435424000486488,22.43913004451579,0.2640988038106524,1606,0,5.926147403308292,2.8348904167232543,47.836987907871936,0.19173312550010646,0.09171935206087084,0.091796875,,
0.7617150000000839,1200,,,,-0.125,-0.03515625,-1.05859375,0.016860216402349016,0.5435424000486488,22.438994572024022,0.2624477127149032,1606,0,5.889062801049833,2.8348814481803837,48.13807466401979,0.19173373207459193,0.09229692710217872,0.09375,,
0.769585000000021,1200,,,,-0.03125,0.08984375,-0.98046875,0.016860216402349016,0.5435424000486488,22.439043005826598,0.26100444927669053,1607,0,5.8566900620317455,2.8365780810677568,48.43312606649563,0.1916190510236356,0.09280709654970001,0.09375,,
0.7777950000001002,1200,,,,-0.0625,0.03125,-0.98046875,0.016860216402349016,0.5435424000486488,22.439142055228963,0.25939784175507785,1607,0,5.820665019961995,2.838017789639711,48.75762099187494,0.19152184388444302,0.09338149475782714,0.09375,,
0.7859950000000535,1200,,,,-0.03125,0.01953125,-0.98046875,0.016860216402349016,0.5435424000486488,22.439194546452995,0.2589454470685276,1608,0,5.810527263688938,2.838767147669906,48.855586056877975,0.19147128727863255,0.09354441953062437,0.091796875,,
0.7932000000000698,1200,,,,-0.03125,0.08203125,-1.021484375,0.016860216402349016,0.5435424000486488,22.43922924612754,0.25668609785655255,1608,0,5.759838194097109,2.838371715332573,49.27867102658264,0.19149796241010023,0.09436765091868218,0.091796875,,
0.8015400000000372,1200,,,,0,0.060546875,-0.974609375,0.016860216402349016,0.5435424000486488,22.4392668650224,0.25486996617912167,1607,0,5.719095186972544,2.8375437993309736,49.61525742384178,0.1915538361652086,0.09503992891861238,0.091796875,,
0.8096649999999791,1200,,,,-0.125,-0.015625,-1.0390625,0.016860216402349016,0.5435424000486488,22.439431688383465,0.2537835148120423,1607,0,5.694757844262677,2.837216698641186,49.82155126226498,0.19157592027037093,0.09544609532365875,0.091796875,,
0.8176150000000489,1200,,,,0,0.052734375,-0.96875,0.016860216402349016,0.5435424000486488,22.439658061648363,0.2535341242686084,1607,0,5.689219055547036,2.837085060968762,49.86774165783932,0.19158480918547036,0.09553901770027479,0.091796875,,
0.8256550000000862,1200,,,,-0.0625,0.0078125,-0.96484375,0.016860216402349016,0.5435424000486488,22.439740587194343,0.2514291883814674,1606,0,5.642005763328946,2.8354863459423107,50.25670771859141,0.19169282928358258,0.0963385049305485,0.091796875,,
0.8335950000000885,1200,,,,-0.0625,0.080078125,-0.953125,0.016860216402349016,0.5435424000486488,22.439753374537236,0.2511371359036869,1606,0,5.635455392866375,2.8348580847047966,50.30397522608897,0.19173531224764986,0.09645048397272213,0.091796875,,
0.8422199999999721,1200,,,,0,0.078125,-0.984375,0.016860216402349016,0.5435424000486488,22.439957212863728,0.24961626387011202,1605,0,5.6013782808802155,2.8346137449012505,50.60564744532504,0.1917518395676813,0.09703725990154607,0.091796875,,
0.8599100000000326,1200,,,,-0.041015625,0.046875,-0.966796875,0.016860216402349016,0.5435424000486488,22.44018443146917,0.2481975176266383,1604,0,5.569598070974584,2.831415234817217,50.836976003221146,0.19196845215948605,0.09759095595807299,0.091796875,,
0.8680100000000093,1200,,,,0,0.10546875,-0.97265625,0.016860216402349016,0.5435424000486488,22.44017540163131,0.24742579270681045,1603,0,5.552278187228496,2.830941273385733,50.98702150583057,0.19200059187331217,0.09789538306976767,0.091796875,,
0.8758800000000628,1200,,,,-0.125,-0.0546875,-0.953125,0.016860216402349016,0.5435424000486488,22.44023081430269,0.2464000302124252,1604,0,5.529273550617978,2.83113645611287,51.202683864256436,0.1919873550690413,0.09830267847534871,0.091796875,,
0.8830300000000861,1200,,,,0,0.04296875,-0.970703125,0.016860216402349016,0.6015208665755395,22.440398303618718,0.24650433240442357,1604,0,5.531655402722891,2.831576629664836,51.18859407386487,0.21243319367512206,0.1087415651885054,0.091796875,,
0.8924600000000209,1200,,,,-0.03125,0.03515625,-0.99609375,0.016860216402349016,0.6015208665755395,22.440166913887012,0.24542397773991584,1604,0,5.507355025153802,2.831782112913693,51.418187133025995,0.2124177788370233,0.10922137102623794,0.091796875,,
0.9034250000001047,1200,,,,-0.0625,0.00390625,-0.94921875,0.016860216402349016,0.6015208665755395,22.440238618384832,0.2468934031443298,1604,0,5.540346879863845,2.832055169349118,51.1169287909048,0.2123972982891379,0.10857097572026428,0.091796875,,
0.9208300000000162,1200,,,,0.0625,0.015625,-0.9765625,0.015508017584151651,0.6015208665755395,22.44008304796476,0.24967809806822125,1604,0,5.602797255908774,2.605487978355174,46.5033421583727,0.2308668746786064,0.10736081266213383,0.091796875,,
0.9451450000000187,1200,,,,-0.041015625,0.09765625,-1.03125,0.015508017584151651,0.6015208665755395,22.44016955426124,0.24860058038422297,1609,0,5.578639175109714,2.6136061982016536,46.85024638020709,0.23014977045487128,0.10782573450158826,0.091796875,,
0.9525550000000512,1200,,,,-0.0625,0.044921875,-0.97265625,0.015508017584151651,0.6015208665755395,22.440197866769438,0.24706257605202916,1610,0,5.544133092081307,2.614953518650256,47.16613896562472,0.2300311888090549,0.1084968301779574,0.09375,,
0.9604400000000606,1200,,,,-0.0625,0.033203125,-0.98046875,0.015508017584151651,0.6015208665755395,22.440287014252714,0.2460188741577232,1612,0,5.520734147022629,2.6173524204136607,47.409499365681604,0.22982035658784986,0.10895668049872388,0.09375,,
0.9679650000000256,1200,,,,-0.125,0.0546875,-0.984375,0.015508017584151651,0.6015208665755395,22.440274646170693,0.24487185139403003,1612,0,5.49499159839833,2.6182241541646496,47.647464191352086,0.22974383824957725,0.10946711306180518,0.09375,,
0.975820000000007,1200,,,,-0.0625,0.078125,-0.994140625,0.015508017584151651,0.6015208665755395,22.440459806446494,0.2426377319238566,1612,0,5.4449022707646435,2.618634784159207,48.09332939214471,0.22970781195388276,0.11047413464246919,0.09375,,
0.984054999999993,1200,,,,0.0625,0.10546875,-0.95703125,0.015508017584151651,0.6015208665755395,22.440437405837024,0.2421418758193232,1612,0,5.433769607655484,2.617604430612856,48.17290057578053,0.2297982306038144,0.11070047315367838,0.09375,,
0.9933000000001048,1200,,,,-0.0625,0.0390625,-0.953125,0.015508017584151651,0.6015208665755395,22.44041126035133,0.24039423703254312,1612,0,5.394545543628647,2.617153148869529,48.514803104416806,0.22983785524181663,0.11150538292998186,0.09375,,
1.0003300000000745,1200,,,,-0.09375,0.03515625,-0.978515625,0.015508017584151651,0.6015208665755395,22.440393782592942,0.23875663610723238,1611,0,5.357792932453543,2.6170270814803147,48.84524494457974,0.22984892698752304,0.1122702713895439,0.09375,,
1.0082300000000395,1200,,,,0,0.10546875,-0.953125,0.015508017584151651,0.6015208665755395,22.440375221581995,0.23845853011283566,1610,0,5.351098890518942,2.6153331747263855,48.87469337111717,0.22999779622283503,0.11241071766423753,0.09375,,
1.0153450000000304,1200,,,,-0.03125,0.041015625,-0.92578125,0.015508017584151651,0.6015208665755395,22.440267532508297,0.23789234888554275,1609,0,5.338367952928381,2.613069835331693,48.94885212807941,0.23019701136276166,0.11267879469521636,0.09375,,
1.0235800000000164,1200,,,,-0.125,-0.01171875,-1.03125,0.015508017584151651,0.6015208665755395,22.44012279093876,0.23762486957522863,1608,0,5.332331251448938,2.6120734099892955,48.98558035530004,0.23028482441387607,0.11280635770932086,0.09375,,
1.0304700000000302,1200,,,,-0.03125,0.09375,-0.982421875,0.015508017584151651,0.6289405363255731,22.43994731277648,0.2376826351341502,1608,0,5.333585809572206,2.610910495864618,48.95225443225845,0.24088935155829458,0.1179207682750339,0.09375,,
1.0387800000000862,1200,,,,-0.125,-0.01171875,-1.01953125,0.015508017584151651,0.6289405363255731,22.440147048090665,0.2385492955072062,1606,0,5.353081269400141,2.6086126819851465,48.73104947792926,0.2411015405502634,0.11749131101759855,0.09375,,
1.047054999999993,1200,,,,-0.03125,0.0859375,-1.009765625,0.015508017584151651,0.6289405363255731,22.440205412894016,0.23782505678778407,1606,0,5.3368431266510585,2.6077116696413563,48.86243810725857,0.2411848455669459,0.1178487958892361,0.09375,,
1.058100000000093,1200,,,,-0.03125,0.029296875,-0.95703125,0.015127239895018704,0.6289405363255731,22.44019541398919,0.23788150937927696,1606,0,5.338107555845678,2.5433377069633902,47.64493184814572,0.24728943175874768,0.11782088122912215,0.095703125,,
1.0677850000000908,1200,,,,-0.03125,0.0546875,-0.98828125,0.015127239895018704,0.6289405363255731,22.440180158111062,0.23822596788004244,1606,0,5.345833637568531,2.5437359606417815,47.58352266642476,0.24725071550543012,0.11765060025542376,0.095703125,,
1.075725000000035,1200,,,,-0.0625,0.001953125,-0.99609375,0.015127239895018704,0.6289405363255731,22.440300857780638,0.23847330802502512,1606,0,5.351412778631757,2.54381867761866,47.53545994015174,0.24724267569036876,0.11752794305775455,0.095703125,,
1.083710000000021,1200,,,,-0.0625,0.078125,-0.98828125,0.015127239895018704,0.6289405363255731,22.44048648084789,0.23817215051474264,1606,0,5.344698923740551,2.5438521584530243,47.595799029081306,0.24723942161326173,0.11767557823171107,0.095703125,,
1.092005000000063,1200,,,,-0.0625,0.046875,-0.99609375,0.015127239895018704,0.6289405363255731,22.440073881666702,0.24833543769674596,1608,0,5.572665569351018,2.5473199303341154,45.7109779625762,0.24690284437223364,0.11286170477996554,0.095703125,,
1.100195000000007,1200,,,,-0.03125,0.0703125,-0.96875,0.015127239895018704,0.6289405363255731,22.4398730329198,0.2568684398010406,1609,0,5.764095175299555,2.5487077847027964,44.21696219771982,0.24676839773489906,0.10911348914235923,0.095703125,,
1.1078700000000536,1200,,,,-0.0625,0.05078125,-0.94921875,0.015127239895018704,0.6289405363255731,22.439879160253486,0.2594504478333107,1609,0,5.822036697453144,2.549245580596726,43.7861475815138,0.2467163387916323,0.10802758021101169,0.095703125,,
1.1153250000000698,1200,,,,-0.0625,-0.05078125,-0.9609375,0.015127239895018704,0.6289405363255731,22.44007893156093,0.2562510270845521,1622,0,5.7502932740709065,2.5692991598317674,44.681184721780944,0.24479069863034358,0.10937538423676192,0.095703125,,
1.1240300000000862,1200,,,,-0.0625,0.130859375,-1.02734375,0.015127239895018704,0.6289405363255731,22.440272414562813,0.25186537572848344,1627,0,5.651927643143385,2.5773648478275644,45.601518819057866,0.24402464278804026,0.1112789434041269,0.095703125,,
1.1320750000000117,1200,,,,0,-0.025390625,-0.98046875,0.015127239895018704,0.6289405363255731,22.440257583518253,0.24974085313536246,1629,0,5.604249073485136,2.580700991042649,46.04900598105963,0.24370918541456832,0.11222565736794626,0.095703125,,
1.1399949999999954,1200,,,,0,0.1484375,-0.97265625,0.015127239895018704,0.6289405363255731,22.44024606164341,0.24663221180997166,1631,0,5.53448751974312,2.583942584874654,46.688019001885586,0.24340344867069977,0.11364024836662114,0.095703125,,
1.1485,1200,,,,-0.03125,-0.0234375,-0.958984375,0.015127239895018704,0.6289405363255731,22.44043667246031,0.24459101351176435,1634,0,5.488729149363632,2.5877191996897935,47.14605383633871,0.24304821651474717,0.11458764300630377,0.095703125,,
1.1569850000001025,1200,,,,-0.03125,0.095703125,-1.046875,0.015127239895018704,0.6289405363255731,22.44062322902583,0.2425932310656023,1634,0,5.443943296255186,2.589191103162033,47.560949155056456,0.2429100484539297,0.1155303246376965,0.095703125,,
1.1651100000000443,1200,,,,-0.125,0.09765625,-0.9921875,0.015127239895018704,0.6289405363255731,22.440722302060585,0.24231296702198482,1631,0,5.437678003128726,2.5842856231497318,47.5255361141794,0.24337113927794843,0.11566343868903123,0.095703125,,
1.173850000000035,1200,,,,-0.03125,0.03515625,-1.00390625,0.015127239895018704,0.6289405363255731,22.44090412769674,0.24068367147361672,1626,0,5.401159196641491,2.576378082113131,47.70046555404542,0.2441181054489175,0.11644547280084917,0.09765625,,
1.1810850000000792,1200,,,,0,0.05859375,-0.9609375,0.015127239895018704,0.644330491951154,22.440922901430355,0.23919455066624382,1625,0,5.367746469943454,2.5739066589505804,47.95134556676807,0.2503317242334876,0.12003743015044853,0.095703125,,
1.1890650000000023,1200,,,,-0.0625,0.009765625,-0.986328125,0.015127239895018704,0.644330491951154,22.44107290422595,0.23727893426650146,1624,0,5.324793862511596,2.572764619410911,48.31669893409528,0.25044284544720113,0.1210057156367057,0.09765625,,
1.1978099999999976,1200,,,,-0.09375,0.115234375,-0.953125,0.015127239895018704,0.644330491951154,22.441378648225225,0.23677910722728981,1619,0,5.313649601276333,2.5650853663019335,48.27351366348663,0.2511926115270312,0.12125949964717031,0.09765625,,
1.210195000000007,1200,,,,-0.03125,-0.0390625,-0.947265625,0.015355310621006653,0.644330491951154,22.44130236844393,0.23582047040858692,1617,0,5.292118481107784,2.6009334602331626,49.147302153535996,0.2477304790001789,0.12175284704061995,0.09765625,,
1.2283050000001094,1200,,,,-0.03125,0.052734375,-0.986328125,0.015355310621006653,0.644330491951154,22.441127812494976,0.2335429576468068,1613,0,5.2409673622600925,2.5941928862944588,49.49835988247311,0.2483741649879839,0.1229411380408398,0.09765625,,
1.2369550000000744,1200,,,,-0.0625,0.021484375,-0.9765625,0.015355310621006653,0.644330491951154,22.441066386524398,0.2331298109961495,1612,0,5.231681565242476,2.5925038011348045,49.55392962672888,0.24853598736060264,0.12315934827376881,0.09765625,,
1.2454200000001001,1200,,,,-0.0625,0.107421875,-0.982421875,0.015355310621006653,0.644330491951154,22.4412820219459,0.23265786980821038,1611,0,5.221140870991221,2.590719780635278,49.61980235065821,0.24870713412052453,0.1234079883825907,0.09765625,,
1.2531350000000676,1200,,,,0.0625,0.03515625,-0.96875,0.015355310621006653,0.644330491951154,22.441158007573655,0.23264903059112335,1609,0,5.220913655804236,2.5877442639675476,49.56496955452768,0.24899310991545276,0.12341335912246582,0.09765625,,
1.2611950000000651,1200,,,,-0.09375,0.0390625,-0.9921875,0.015355310621006653,0.644330491951154,22.44129799296181,0.23264027521909644,1609,0,5.220749741356392,2.5865123967683816,49.54293013279708,0.24911169679920653,0.12341723389785621,0.09765625,,
1.2690300000000279,1200,,,,0.0625,0.1484375,-0.96875,0.015355310621006653,0.644330491951154,22.441105958067947,0.23179154724355025,1608,0,5.2016586718770235,2.5860327791384408,49.71554156599953,0.24915789820955725,0.12387019844934323,0.09765625,,
1.2768850000000094,1200,,,,-0.09375,0.080078125,-1.01953125,0.015355310621006653,0.644330491951154,22.44114970989262,0.23182478625291614,1607,0,5.202414734765548,2.5844343003494203,49.677590736446554,0.24931200296484202,0.12385219648971171,0.09765625,,
1.2849950000001118,1200,,,,-0.0625,0.03125,-0.9765625,0.015355310621006653,0.644330491951154,22.441191984783703,0.23185688258752715,1607,0,5.203144815140151,2.5837972665926965,49.65837696991141,0.24937347069835905,0.12383481814234273,0.09765625,,
1.2929800000000395,1200,,,,-0.0625,0.0390625,-0.97265625,0.015355310621006653,0.644330491951154,22.441068845360768,0.2320983996417303,1607,0,5.208536165258127,2.5835505432805292,49.60223873481529,0.2493972853083799,0.123706636856811,0.09765625,,
1.301195000000007,1200,,,,-0.03125,-0.01171875,-0.962890625,0.015355310621006653,0.644330491951154,22.441114633392086,0.23195678855351906,1606,0,5.20536888192301,2.581734072704572,49.59752385023685,0.24957275761409717,0.12378190798134563,0.09765625,,
1.3091900000000605,1200,,,,-0.09375,0.099609375,-1.01953125,0.015355310621006653,0.644330491951154,22.44105966218557,0.23305295571464263,1605,0,5.229955283640987,2.580154407730818,49.33415809120586,0.2497255551918022,0.12320000019246521,0.099609375,,
1.317179999999993,1200,,,,0.0625,0.0390625,-0.98828125,0.015355310621006653,0.644330491951154,22.441007814369947,0.23472425188567014,1604,0,5.267448770788463,2.579537615109889,48.97129003731665,0.24978526700945408,0.12232306757768557,0.099609375,,
1.3251700000001,1200,,,,-0.0625,0.037109375,-1.037109375,0.015355310621006653,0.644330491951154,22.440761509789695,0.23797419994922406,1605,0,5.340322266543544,2.580153174934906,48.314559424610856,0.24972567451054906,0.1206538594099095,0.099609375,,
1.3344450000000652,1200,,,,0,0.01171875,-0.88671875,0.015355310621006653,0.650776563173981,22.440574744213627,0.24228617563847452,1606,0,5.437041033904858,2.5822196853191652,47.49310643816544,0.25202215244267423,0.11969314910735485,0.099609375,,
1.342475000000035,1200,,,,-0.03125,0.064453125,-0.984375,0.015355310621006653,0.650776563173981,22.440181071169878,0.24482037874833548,1606,0,5.493813629025039,2.5829658940714624,47.01589949147673,0.25194934422776244,0.11845625045155951,0.099609375,,
1.349375,1200,,,,-0.0625,0.064453125,-0.98046875,0.015355310621006653,0.650776563173981,22.44034457739642,0.24484912113491478,1606,0,5.494498647740164,2.5832031873779377,47.01435659539902,0.2519262001354788,0.11844148208893261,0.099609375,,
1.3592000000000117,1200,,,,-0.0625,-0.015625,-0.99609375,0.015580323273548472,0.650776563173981,22.440505695318166,0.24258042675407968,1612,0,5.443627448147636,2.6297389862544427,48.308577530398296,0.2474681200588987,0.11954832864167222,0.099609375,,
1.3678700000000537,1200,,,,-0.0625,0.060546875,-0.98828125,0.015580323273548472,0.650776563173981,22.44029369416012,0.24480490062881152,1615,0,5.493493867880214,2.6343034555790843,47.95315183623912,0.2470393309456159,0.11846314546358046,0.099609375,,
1.374890000000072,1200,,,,0,0.08203125,-0.9140625,0.015580323273548472,0.650776563173981,22.440164585708875,0.24682291583450136,1615,0,5.538746854850779,2.6354177526285967,47.58148046286904,0.2469348787397705,0.11749527108357324,0.099609375,,
1.3830850000000792,1200,,,,-0.0625,0.08203125,-1.01171875,0.015580323273548472,0.650776563173981,22.439869531298008,0.24675916505883141,1619,0,5.537243469572207,2.6416514560194204,47.70697677527818,0.24635216795580042,0.117527171552068,0.099609375,,
1.3914349999999978,1200,,,,0.0625,0.03515625,-0.91796875,0.015580323273548472,0.650776563173981,22.440070756472494,0.24352593601883485,1621,0,5.464739235298848,2.644180184194757,48.38620966788283,0.24611657218517602,0.11908648064492547,0.099609375,,
1.3982550000000629,1200,,,,-0.0625,0.056640625,-1,0.015580323273548472,0.650776563173981,22.440067350313008,0.2414120852872376,1621,0,5.417303453025119,2.645180905165007,48.82836872813338,0.2460234617236455,0.1201292430481397,0.099609375,,
1.4051000000000349,1200,,,,-0.0625,-0.01171875,-0.984375,0.015580323273548472,0.650776563173981,22.44041157199635,0.240176035193543,1622,0,5.389649079473385,2.6471426074346023,49.115305438276344,0.24584114257624423,0.1207456280692708,0.099609375,,
1.4136749999999885,1200,,,,-0.03125,0.064453125,-0.96484375,0.015580323273548472,0.650776563173981,22.440393702961803,0.2389920094667771,1623,0,5.363074784296452,2.6479956190992495,49.374579426951314,0.24576194857729833,0.12134392850152141,0.099609375,,
1.4221350000000093,1200,,,,-0.0625,0.015625,-1.03125,0.015580323273548472,0.650776563173981,22.44022460676712,0.23815286471924582,1623,0,5.344203775044901,2.6484155068253505,49.556783728799694,0.24572298474194684,0.12177240812051805,0.099609375,,
1.4300250000000232,1200,,,,-0.03125,-0.01953125,-0.921875,0.015580323273548472,0.650776563173981,22.440213631558674,0.23572658469173505,1622,0,5.289754919120243,2.6457617609488477,50.01671724687149,0.24596944924496658,0.12302584394254203,0.099609375,,
1.4383800000000628,1200,,,,-0.03125,0.041015625,-0.9609375,0.015580323273548472,0.650776563173981,22.44039945096726,0.2342897820191951,1619,0,5.257556295790784,2.6419390954678534,50.25032442511359,0.24632534651929092,0.12377928576722892,0.099609375,,
1.446320000000007,1200,,,,0,0.046875,-0.921875,0.015580323273548472,0.650776563173981,22.440380134602574,0.23398994996742298,1618,0,5.250823424945609,2.640438194657889,50.286173823970095,0.2464653649120159,0.1239380018155385,0.099609375,,
1.4620550000000512,1200,,,,-0.125,-0.04296875,-1.01953125,0.015580323273548472,0.650776563173981,22.440063582626443,0.23443900883450078,1615,0,5.26082626449412,2.6355892992873544,50.098390761832015,0.24691880610911063,0.12370234834899259,0.099609375,,
1.4700800000000744,1200,,,,-0.03125,0.0234375,-0.951171875,0.015580323273548472,0.650776563173981,22.44025453158453,0.23371198873881618,1614,0,5.244556514381852,2.633368601485271,50.2114639105124,0.2471270306811323,0.12408609982357766,0.099609375,,
1.4782050000000162,1200,,,,0,0.01171875,-0.970703125,0.015580323273548472,0.6601627880841044,22.440176309996897,0.23461392797454686,1613,0,5.264777908529744,2.6324769001951482,50.001670458503746,0.2507762890664552,0.12539233364707367,0.099609375,,
1.4860350000000326,1200,,,,-0.03125,0.064453125,-0.984375,0.015580323273548472,0.6601627880841044,22.44016756878018,0.23418388018489797,1612,0,5.25512551325625,2.630356374910045,50.05315987743534,0.2509784584253079,0.12562264905354195,0.099609375,,
1.4941849999999977,1200,,,,-0.0625,0.00390625,-0.94921875,0.015580323273548472,0.6601627880841044,22.440289028800066,0.23388956549192208,1611,0,5.248549450459193,2.6286645985375268,50.083639743692345,0.2511399850902964,0.12578004538498672,0.099609375,,
1.5032449999999953,1200,,,,-0.0625,0.02734375,-1.015625,0.015580323273548472,0.6601627880841044,22.44049400747597,0.23201431841796008,1611,0,5.206515922106854,2.6279471326166592,50.474197561912796,0.2512085497803669,0.1267954997085584,0.099609375,,
1.5136300000000629,1200,,,,0,0.171875,-0.96484375,0.015917950706403686,0.6601627880841044,22.440666486766272,0.231609786851762,1610,0,5.197477981811415,2.684159194902982,51.64349333073084,0.24594770285521975,0.1270159855211211,0.099609375,,
1.5294200000001001,1200,,,,0,0,-1.00390625,0.015917950706403686,0.6601627880841044,22.44064143477564,0.23174552346570093,1610,0,5.200518196208178,2.683039237451451,51.59176713212384,0.24605036663987662,0.12694173218458207,0.099609375,,
1.5369800000000977,1200,,,,-0.03125,0.017578125,-0.94921875,0.015917950706403686,0.6601627880841044,22.44070654410362,0.2317802754020395,1609,0,5.2013131430086865,2.6818990789627235,51.561961474432316,0.24615497028301125,0.12692233094472657,0.09765625,,
1.5439200000001,1200,,,,-0.0625,0.04296875,-1,0.015917950706403686,0.6601627880841044,22.44073349746355,0.23208880217306463,1607,0,5.208242957311283,2.679510621497015,51.44749665980045,0.24637438746754375,0.1267534547629684,0.09765625,,
1.5504700000000302,1200,,,,-0.0625,0.041015625,-0.998046875,0.015917950706403686,0.6601627880841044,22.44070236025058,0.23265819607356059,1607,0,5.221013329759593,2.678468644670413,51.301700943823214,0.2464702319355834,0.12644342130314046,0.09765625,,
1.558015000000072,1200,,,,0,0.08203125,-0.890625,0.015917950706403686,0.6601627880841044,22.440846026159335,0.2330754778888817,1607,0,5.2304109117778985,2.6780021690251505,51.20060764240903,0.24651316407425378,0.1262162379245467,0.09765625,,
1.5652100000000793,1200,,,,-0.0625,-0.0078125,-1.02734375,0.015917950706403686,0.6601627880841044,22.440634954333223,0.23248193403157072,1606,0,5.217042215079856,2.676890696909616,51.31050481385919,0.24661551883543137,0.12653966766377783,0.09765625,,
1.5733800000000628,1200,,,,-0.03125,0.0625,-0.94921875,0.015917950706403686,0.6601627880841044,22.44060389736796,0.23359688971731649,1605,0,5.242055273803446,2.6754073352593633,51.03737361621111,0.246752253155539,0.1259358693494115,0.09765625,,
1.581179999999993,1200,,,,-0.0625,0.029296875,-0.97265625,0.015917950706403686,0.6601627880841044,22.44050955707158,0.23290733575282707,1605,0,5.226559293873395,2.6748226850128396,51.1775057856568,0.24680618711028152,0.12630925068772325,0.09765625,,
1.5882450000000536,1200,,,,0,0.05078125,-0.94140625,0.015917950706403686,0.6601627880841044,22.440399618191385,0.2328882521474115,1604,0,5.226105444570032,2.674452124717375,51.17485961742608,0.24684038348746573,0.1263202197288268,0.09765625,,
1.5959200000001001,1200,,,,-0.0625,-0.0078125,-0.95703125,0.015917950706403686,0.6601627880841044,22.44047697534412,0.23444121980387764,1604,0,5.260972795080506,2.673962753471099,50.8263938557428,0.2468855586066561,0.12548302639036973,0.09765625,,
1.6032999999999884,1200,,,,0,0.08203125,-0.94921875,0.015917950706403686,0.6601627880841044,22.44051417672443,0.23454391391624468,1604,0,5.263286025301923,2.6737789383208708,50.80056309817387,0.2469025313284447,0.12542787621849505,0.09765625,,
1.6113250000000698,1200,,,,-0.0625,0.046875,-0.962890625,0.015917950706403686,0.6601627880841044,22.440488648951813,0.23444090960748704,1604,0,5.260968570896751,2.6736927516181277,50.8213024956807,0.24691049025157125,0.12548312714431922,0.09765625,,
1.6194649999999675,1200,,,,-0.125,0.03125,-0.9921875,0.015917950706403686,0.6601627880841044,22.440399922912228,0.23603545786606808,1603,0,5.296730070502266,2.67269407603059,50.4593218921037,0.24700275052225937,0.12463591296837674,0.09765625,,
1.6285000000000582,1200,,,,-0.03125,0.064453125,-0.974609375,0.015917950706403686,0.664272159503001,22.440377899313177,0.23547961874816656,1603,0,5.2842516322950495,2.6722720508683793,50.57049203593209,0.24857954087688777,0.12570789692210307,0.095703125,,
1.6363800000000046,1200,,,,-0.03125,0.025390625,-0.974609375,0.015917950706403686,0.664272159503001,22.44035961764451,0.23470308055552042,1603,0,5.266821531034867,2.672130924593377,50.735171276409964,0.24859266938953767,0.1261239165953815,0.095703125,,
1.6525200000000768,1200,,,,0.0625,0.0703125,-1,0.015917950706403686,0.664272159503001,22.4404871445796,0.23559618391627365,1604,0,5.2868931364851495,2.6731666977008346,50.56214734610691,0.24849634707567442,0.12564508915809575,0.095703125,,
1.6693450000000303,1200,,,,-0.0625,0.033203125,-0.9765625,0.014998662575278652,0.664272159503001,22.4404529116557,0.23812439086335033,1604,0,5.34361918028571,2.519103373047482,47.142269837290165,0.2636938867258149,0.12431128362472194,0.09765625,,
1.679240000000049,1200,,,,-0.01953125,0.03515625,-0.96484375,0.014998662575278652,0.664272159503001,22.440305294526848,0.23708466327762975,1604,0,5.32025222460011,2.519398026498123,47.354860637034754,0.2636630466946569,0.12485726831361463,0.09765625,,
1.6878300000000745,1200,,,,-0.0625,0.037109375,-1.00390625,0.014998662575278652,0.664272159503001,22.440290293609294,0.23600303894286748,1604,0,5.295976704051926,2.5195251891698773,47.574325378776706,0.26364973938675434,0.1254295848761513,0.095703125,,
1.6962600000000676,1200,,,,-0.0625,0.111328125,-1.013671875,0.014998662575278652,0.664272159503001,22.440463034419945,0.23583870495424467,1604,0,5.2923297406111995,2.5194997576920657,47.60662848269719,0.2636524006303114,0.12551601885378474,0.095703125,,
1.7044850000001024,1200,,,,-0.03125,0.05859375,-0.99609375,0.014998662575278652,0.664272159503001,22.440366410129826,0.23589105742555325,1604,0,5.293481761502391,2.5193287709674794,47.59303771082506,0.26367029470627823,0.12548870279180258,0.095703125,,
1.712655000000028,1200,,,,-0.0625,-0.03515625,-0.9453125,0.014998662575278652,0.664272159503001,22.440348149876648,0.23626192656961945,1604,0,5.301799886782852,2.5192687379081162,47.51723549937332,0.26367657785273907,0.12529182045497445,0.09765625,,
1.7204100000000326,1200,,,,-0.03125,0.07421875,-0.953125,0.014998662575278652,0.664272159503001,22.440331153695347,0.2376681810611079,1604,0,5.333352687707686,2.5192456439717503,47.235684408760534,0.26367899497713687,0.1245505779195919,0.095703125,,
1.7285500000000467,1200,,,,-0.0625,0.03515625,-0.970703125,0.014998662575278652,0.664272159503001,22.44031494903002,0.23677473501428484,1603,0,5.313299625693678,2.518323792310223,47.3966079408037,0.2637755166874792,0.12502064748819375,0.095703125,,
1.736125,1200,,,,0,0.09765625,-0.96875,0.014998662575278652,0.664272159503001,22.440299679451815,0.2369871826076422,1603,0,5.318063397904462,2.517961849733665,47.3473454777889,0.26381343290537296,0.12490865749452178,0.095703125,,
1.7442300000000395,1200,,,,-0.0625,0.04296875,-0.921875,0.014998662575278652,0.664272159503001,22.44028486563727,0.23579564371263553,1603,0,5.291321414987853,2.5178162600099965,47.58388429926396,0.26382868760263056,0.1255399374571023,0.095703125,,
1.7516350000000676,1200,,,,-0.0625,-0.00390625,-1.00390625,0.014998662575278652,0.664272159503001,22.440272504902797,0.2352741190448895,1603,0,5.279615344718262,2.517656884768575,47.6863695626471,0.263845388750843,0.12581828715372992,0.095703125,,
1.7606800000001095,1200,,,,-0.03125,0.080078125,-0.978515625,0.014998662575278652,0.664272159503001,22.440257717365554,0.23441329260251675,1603,0,5.260294698376696,2.517458663079886,47.857749564045584,0.2638661636216593,0.1262804077703085,0.095703125,,
1.7677500000001165,1200,,,,-0.0625,0.03515625,-0.9921875,0.014998662575278652,0.664272159503001,22.44018109628208,0.23411063816881136,1603,0,5.253485117074295,2.5173913148340543,47.918500932881834,0.2638732228830263,0.12644409276882831,0.095703125,,
1.7755000000000583,1200,,,,0,0.08984375,-0.9609375,0.014998662575278652,0.6680166806207443,22.44008449741179,0.23432634956242157,1603,0,5.258303084150792,2.5176889558711384,47.88025558016577,0.2653293128457982,0.12704035311966577,0.095703125,,
1.783594999999972,1200,,,,-0.0625,0.037109375,-1.005859375,0.014998662575278652,0.6680166806207443,22.43998194300903,0.23391483833809548,1603,0,5.249044748508739,2.5181665414641277,47.97380594211056,0.265278991528631,0.12726442860113332,0.095703125,,
1.791695000000007,1200,,,,-0.0625,0.15625,-0.98828125,0.014998662575278652,0.6680166806207443,22.439982846439534,0.23447743997856882,1603,0,5.2616697309961395,2.518353322209579,47.86224622526439,0.2652593163673447,0.1269590671351916,0.095703125,,
1.7992900000000374,1200,,,,-0.03125,0.037109375,-0.974609375,0.014998662575278652,0.6680166806207443,22.44024701385864,0.23416411382277527,1603,0,5.254700555964388,2.518428223359745,47.92715011136427,0.26525142722930856,0.12712744970072687,0.095703125,,
1.8063699999999954,1200,,,,-0.125,0.09375,-0.984375,0.01483147943619452,0.6680166806207443,22.440408824861212,0.23479283532386816,1603,0,5.268847213815916,2.4897534909808594,47.25423588773373,0.2683063536372725,0.12678611724953381,0.095703125,,
1.814304999999993,1200,,,,0,0.02734375,-0.9765625,0.01483147943619452,0.6680166806207443,22.44029233063147,0.23468064813096642,1603,0,5.266302348400948,2.489472951756702,47.2717437598812,0.2683365891360084,0.1268473848303791,0.095703125,,
1.824240000000049,1200,,,,-0.09375,0.02734375,-0.96875,0.01483147943619452,0.6680166806207443,22.44027968919619,0.23458486975835682,1603,0,5.264150088231188,2.4893676645346376,47.28907084355364,0.2683479383691695,0.12689924668261218,0.095703125,,
1.8332000000000117,1200,,,,-0.0625,0.080078125,-0.99609375,0.01483147943619452,0.6680166806207443,22.44026076007102,0.2351035280769336,1603,0,5.275784475659068,2.48931070689822,47.1837073402671,0.268354078407962,0.1266194029916837,0.095703125,,
1.8404000000000234,1200,,,,0,0.02734375,-0.94921875,0.01483147943619452,0.6680166806207443,22.44037553413564,0.2355993620242465,1603,0,5.2869381594268665,2.4892963592112825,47.08389400720995,0.26835562513432554,0.1263522781006315,0.095703125,,
1.8486250000000581,1200,,,,-0.03125,0.060546875,-1.01171875,0.01483147943619452,0.6680166806207443,22.440356863264405,0.23609191703589186,1603,0,5.297986870817627,2.4892904516453616,46.985591175336275,0.26835626199393536,0.12608877615388478,0.095703125,,
1.8562200000000302,1200,,,,-0.03125,-0.01171875,-0.92578125,0.01483147943619452,0.6680166806207443,22.440145181887324,0.2362323495760618,1603,0,5.301088221145185,2.4894377533612113,46.96088141735213,0.2683403831723832,0.1260150091364512,0.095703125,,
1.863375,1200,,,,-0.0625,-0.01953125,-1.0078125,0.01483147943619452,0.6680166806207443,22.440138941416933,0.23635096680092857,1603,0,5.303748533951058,2.4897724591538237,46.943636999679796,0.26830430956239953,0.12595180113547,0.095703125,,
1.8703700000001118,1200,,,,0,0.15625,-0.94921875,0.01483147943619452,0.6680166806207443,22.440246716889305,0.23655564046829072,1603,0,5.308366934380208,2.4899176186735663,46.905529505644154,0.2682886677096616,0.1258422201928549,0.095703125,,
1.8779249999999883,1200,,,,-0.0625,-0.048828125,-0.955078125,0.01483147943619452,0.6680166806207443,22.440331930379475,0.23540945707350167,1603,0,5.282666356279796,2.489986263905466,47.13502795696121,0.26828127138861435,0.12645445227231436,0.095703125,,
1.8863750000000583,1200,,,,-0.03125,0.0546875,-0.955078125,0.01483147943619452,0.6680166806207443,22.440515556743815,0.23689274138291408,1604,0,5.315995248282973,2.4907745552220093,46.8543412642536,0.2681963645486181,0.1256616399039312,0.095703125,,
1.8944850000000442,1200,,,,0,0.0078125,-0.93359375,0.01483147943619452,0.6680166806207443,22.4403598120161,0.2358264166475633,1604,0,5.292029642749744,2.491452917376296,47.07934546038813,0.26812334118849035,0.12623071405806452,0.095703125,,
1.9124250000001048,1200,,,,-0.03125,0.02734375,-0.978515625,0.01483147943619452,0.6680166806207443,22.440464274772374,0.23664101353081138,1604,0,5.310334210084099,2.491554178956483,46.91897120571296,0.26811244413738744,0.12579560046375404,0.09375,,
1.9196350000000675,1200,,,,-0.03125,0.1015625,-0.947265625,0.01483147943619452,0.6680166806207443,22.44044400317773,0.23645887027717147,1604,0,5.306242037509533,2.4909011299129684,46.94284791958085,0.26818273619880073,0.12589261400037371,0.09375,,
1.9272750000000234,1200,,,,-0.1875,-0.06640625,-1.02734375,0.01483147943619452,0.669623162147168,22.44042237335889,0.23674086586453577,1604,0,5.312565023034884,2.490600971852239,46.88132683653149,0.26886007422103225,0.12604517012850328,0.095703125,,
1.935429999999993,1200,,,,-0.03125,0.1015625,-0.953125,0.01483147943619452,0.669623162147168,22.44032062197931,0.23710842307994864,1604,0,5.320789036085967,2.49049175466223,46.8068126319525,0.26887186472054186,0.12585034993978084,0.095703125,,
1.944079999999958,1200,,,,-0.125,0.05859375,-1.01953125,0.01483147943619452,0.669623162147168,22.440450774684813,0.23685134501605717,1604,0,5.31505094875072,2.4913967692665566,46.874372292746294,0.26877419542624625,0.12598621699093215,0.095703125,,
1.9516350000000093,1200,,,,-0.03125,0.02734375,-0.962890625,0.01483147943619452,0.669623162147168,22.440623048808707,0.23706020279712695,1604,0,5.319778650844473,2.491697461365204,46.838367249916814,0.26874176039826303,0.12587425268922997,0.095703125,,
1.9594950000000535,1200,,,,0,0.05078125,-0.951171875,0.014764137978073478,0.669623162147168,22.440492984090206,0.23586504573052788,1604,0,5.292927903908026,2.4805044784260346,46.864505307063745,0.2699544257916708,0.126512806201791,0.09375,,
1.9677700000000768,1200,,,,-0.125,0.05078125,-0.98046875,0.014764137978073478,0.669623162147168,22.440601031917016,0.2359121203016412,1605,0,5.294009770282741,2.481004683612668,46.86437674406035,0.2698999992100414,0.12648695246200972,0.09375,,
1.978960000000021,1200,,,,0,-0.017578125,-0.982421875,0.014764137978073478,0.669623162147168,22.44066928903458,0.23637909489350897,1605,0,5.304505095346558,2.481197943612048,46.77529569702382,0.2698789767544109,0.12623668940097788,0.09375,,
1.995320000000007,1200,,,,-0.0625,0.03515625,-0.9921875,0.014764137978073478,0.669623162147168,22.44059911279387,0.23513965348840896,1605,0,5.276674699454648,2.482238689192076,47.041722876125355,0.26976582270785504,0.1269024907327288,0.095703125,,
2.0033000000001047,1200,,,,-0.0625,-0.046875,-0.95703125,0.014764137978073478,0.669623162147168,22.440668970224785,0.23662753792680682,1606,0,5.310080247854782,2.4825887753542863,46.752377732092214,0.2697277812559219,0.12610415114116005,0.095703125,,
2.011700000000012,1200,,,,0,0.056640625,-0.998046875,0.014764137978073478,0.669623162147168,22.44063618819541,0.2362108479512555,1606,0,5.300721702579267,2.4827241027551,46.837473122707735,0.2697130790344692,0.126326790901197,0.09375,,
2.019815000000002,1200,,,,-0.0625,0.068359375,-0.96484375,0.014764137978073478,0.669623162147168,22.440802878144726,0.23763852145271377,1607,0,5.3327992161741165,2.4847450819027697,46.593636497070065,0.26949370662779765,0.12556691804863646,0.09375,,
2.027960000000021,1200,,,,-0.0625,0.01171875,-1.05859375,0.014764137978073478,0.669623162147168,22.44089324261146,0.2365464539113419,1608,0,5.308313719142736,2.4864987722105623,46.841594219343136,0.2693036367566172,0.12614611674746845,0.09375,,
2.0366200000001116,1200,,,,0,0.00390625,-0.953125,0.014764137978073478,0.669623162147168,22.44062418434881,0.23596399154264594,1609,0,5.295179255247379,2.4872437478486527,46.971851715574346,0.2692229753221252,0.12645901675256596,0.09375,,
2.044590000000084,1200,,,,-0.0625,0.033203125,-0.9296875,0.014764137978073478,0.669623162147168,22.440724126280085,0.2356869502750529,1609,0,5.288985831286754,2.487721038287333,47.035880178981245,0.2691713226046313,0.12660710077649343,0.09375,,
2.0526700000000417,1200,,,,0,-0.0625,-0.9609375,0.014764137978073478,0.669623162147168,22.440820164689182,0.23681458458658275,1609,0,5.314313505083078,2.488137818610264,46.81955282145831,0.26912623454322254,0.12600369953836585,0.09375,,
2.0607650000000723,1200,,,,-0.0625,0.0859375,-0.982421875,0.014764137978073478,0.669623162147168,22.440878621911445,0.23772790285155557,1609,0,5.334823012933314,2.488301468618141,46.64262455541082,0.2691085347142595,0.12551928349333946,0.09375,,
2.0687600000000095,1200,,,,-0.03125,0.044921875,-0.955078125,0.014764137978073478,0.669623162147168,22.440965742029693,0.23905758958844883,1609,0,5.364683178326574,2.4879144024941837,46.375793682381975,0.2691504022308233,0.12482063523386781,0.09375,,
2.0767850000000907,1200,,,,-0.0625,0.04296875,-0.96875,0.014764137978073478,0.6677554054680109,22.441016530864395,0.23873458250657162,1608,0,5.357446712518984,2.486855714489615,46.418673818602215,0.2685139316999163,0.12464060611328846,0.09375,,
2.0847399999999907,1200,,,,-0.03125,-0.01171875,-0.994140625,0.014764137978073478,0.6677554054680109,22.440966612465697,0.2388532816366097,1608,0,5.3600985184850245,2.486437668166647,46.38790984142979,0.26855907711548405,0.12457894256330665,0.09375,,
2.0927300000000977,1200,,,,-0.0625,0.08984375,-1.01171875,0.014764137978073478,0.6677554054680109,22.441311851330237,0.23822023555011354,1608,0,5.345974595277443,2.486273173632559,46.50738849056441,0.2685768452757706,0.1249080768281047,0.09375,,
2.099990000000049,1200,,,,0.0625,0.0390625,-0.953125,0.014764137978073478,0.6677554054680109,22.441377097693014,0.23815241730594608,1608,0,5.344468203489888,2.4864327142272993,46.52348221669055,0.26855961218943625,0.1249432834181655,0.09375,,
2.1097300000000394,1200,,,,-0.0625,0.03515625,-0.998046875,0.014815641058347127,0.6677554054680109,22.441522679950005,0.2387401152862805,1608,0,5.357691711810943,2.4951752642827016,46.57183351520822,0.267618637867498,0.12463490648331914,0.09375,,
2.1178700000000537,1200,,,,-0.0625,0.03515625,-0.97265625,0.014815641058347127,0.6677554054680109,22.44157921096257,0.23939529736634954,1608,0,5.372408528578872,2.495198374792459,46.44468791826033,0.2676161591855606,0.1242934899525684,0.09375,,
2.1276250000000583,1200,,,,-0.03125,0.021484375,-0.98046875,0.014815641058347127,0.6677554054680109,22.441567216520372,0.23862674803445524,1607,0,5.355158205674898,2.4931644232659944,46.55631687265506,0.26783448345266575,0.12469387081046193,0.09375,,
2.135039999999979,1200,,,,-0.0625,0.0703125,-1.001953125,0.014815641058347127,0.6677554054680109,22.441553373294553,0.23877779957385728,1606,0,5.358544733494548,2.4922852360731187,46.51048670909923,0.2679289656749466,0.1246150659700731,0.09375,,
2.1432849999999743,1200,,,,-0.0625,0.033203125,-0.962890625,0.014815641058347127,0.6677554054680109,22.441572915121537,0.23907070329548422,1606,0,5.365122619874995,2.4920364605150005,46.44882581589652,0.267955712546041,0.12446228218425495,0.09375,,
2.1503250000000698,1200,,,,0.0625,0.04296875,-0.87890625,0.014815641058347127,0.6677554054680109,22.441561287419827,0.24023636098147857,1606,0,5.391279018432565,2.4913949618843594,46.21157527492791,0.26802470731615996,0.12385843937681247,0.09375,,
2.1576849999999976,1200,,,,-0.09375,0.021484375,-0.990234375,0.014815641058347127,0.6677554054680109,22.44149414019211,0.2418618090601172,1605,0,5.427740370758883,2.490178931970783,45.87874072581362,0.2681555919114352,0.12302640875481821,0.09375,,
2.165630000000063,1200,,,,0.0625,0.14453125,-0.9453125,0.014815641058347127,0.6677554054680109,22.441354069308765,0.24118144817686207,1605,0,5.412438273485605,2.4896041863765075,45.997830563215,0.26821749783442284,0.12337423019477266,0.09375,,
2.1741950000000654,1200,,,,-0.0625,0.02734375,-0.98828125,0.014815641058347127,0.6677554054680109,22.441287768878468,0.24107363568918225,1605,0,5.410002831990709,2.4893807689359275,46.01440787083497,0.2682415698717876,0.1234297700399351,0.09375,,
2.1828900000000724,1200,,,,-0.0625,0.029296875,-0.9609375,0.014815641058347127,0.6677554054680109,22.441290399379383,0.23964886192624937,1606,0,5.378029704367735,2.4912012116907705,46.32181948841889,0.2680455526170876,0.12416357703002222,0.09375,,
2.1910050000000045,1200,,,,-0.0625,0.03125,-0.97265625,0.014815641058347127,0.6677554054680109,22.441226986646946,0.23961606653315778,1606,0,5.37727853871809,2.491819157624723,46.33978209763255,0.26797908003265186,0.12418092175437125,0.09375,,
2.198804999999993,1200,,,,-0.03125,0.029296875,-0.978515625,0.014815641058347127,0.6677554054680109,22.441069772566962,0.2395851485877025,1606,0,5.376547035927454,2.492061346836717,46.350591377405046,0.26795303667609227,0.12419781711308382,0.09375,,
2.207804999999993,1200,,,,-0.0625,0.09765625,-0.994140625,0.014815641058347127,0.6677554054680109,22.441017493670078,0.23987378976541804,1606,0,5.383011912398684,2.4912548050543144,46.27994226273604,0.2680397862608247,0.12404865832267076,0.09375,,
2.2179700000000304,1200,,,,-0.03125,0.017578125,-0.923828125,0.014815641058347127,0.6677554054680109,22.440944350502637,0.23887272731532946,1605,0,5.3605295805361,2.490874811333066,46.466953943829495,0.2680806768890331,0.12456892466233337,0.09375,,
2.225115000000049,1200,,,,0,0.01171875,-0.931640625,0.014815641058347127,0.6669767562957017,22.441076464861894,0.2385959797558789,1605,0,5.354350625910318,2.4907913368758865,46.5190181013298,0.2677770499765218,0.1245672543497851,0.09375,,
2.2326199999999954,1200,,,,-0.0625,-0.09765625,-0.94140625,0.014815641058347127,0.6669767562957017,22.44094113934048,0.23875612409041283,1606,0,5.357912127370026,2.492458901748019,46.51921947386364,0.26759789532655304,0.1244844522343991,0.09375,,
2.2407500000000584,1200,,,,-0.0625,0.080078125,-0.947265625,0.014815641058347127,0.6669767562957017,22.440993356313133,0.2365240419286276,1607,0,5.307834453528661,2.493221526793388,46.97248093590953,0.26751604264925544,0.12565892213392113,0.09375,,
2.249850000000035,1200,,,,-0.0625,0.013671875,-0.947265625,0.014815641058347127,0.6669767562957017,22.440865917907587,0.23606421613242343,1607,0,5.297485422243671,2.493538238167852,47.07022368948306,0.2674820646768058,0.12590440617262022,0.09375,,
2.2577700000000767,1200,,,,0,0.0625,-0.98828125,0.014634976339494066,0.6669767562957017,22.440954517359113,0.23481993899257242,1607,0,5.26958357070136,2.462342687405778,46.727462509491055,0.27087080921234435,0.12657105582385325,0.09375,,
2.2659600000000792,1200,,,,-0.03125,0.021484375,-0.9453125,0.014634976339494066,0.6669767562957017,22.441103888547755,0.23438520493034734,1606,0,5.25986273378048,2.461138855744223,46.79093315378786,0.27100330188156524,0.1268049738279611,0.09375,,
2.2739000000000233,1200,,,,-0.0625,-0.01953125,-0.94921875,0.014634976339494066,0.6669767562957017,22.441049546306022,0.2349322455996625,1606,0,5.272126163526961,2.4606627632576954,46.67306295287051,0.2710557359809374,0.12651001429174938,0.09375,,
2.284625,1200,,,,-0.0625,0.087890625,-0.994140625,0.014634976339494066,0.6669767562957017,22.441192141858334,0.2370156795390513,1605,0,5.318914405168972,2.4604776028028934,46.25901857739576,0.2710761339733002,0.12539715917359517,0.09375,,
2.2934200000001,1200,,,,-0.03125,0.021484375,-0.94921875,0.014634976339494066,0.6669767562957017,22.441109181802176,0.23624604727356704,1605,0,5.301623340635317,2.4590808208208665,46.38354448858647,0.2712301078713867,0.12580613775096572,0.09375,,
2.301780000000028,1200,,,,-0.03125,0.0234375,-0.95703125,0.014634976339494066,0.6669767562957017,22.441050813209664,0.23536178908699049,1604,0,5.28176586838909,2.4587237398608255,46.55116870242344,0.2712694986763562,0.12627912196704888,0.09375,,
2.3101750000000467,1200,,,,0,0.044921875,-1,0.014634976339494066,0.6669767562957017,22.44119528564929,0.23490158769465522,1604,0,5.27147240236483,2.4585217336763425,46.63823588592492,0.2712917877273918,0.12652570389944373,0.09375,,
2.3184550000000743,1200,,,,0,0.12890625,-1.0546875,0.014634976339494066,0.6669767562957017,22.44107168325584,0.23414566942679468,1604,0,5.254479751930624,2.458293659586494,46.784720384225615,0.2713169574736213,0.12693487990902205,0.09375,,
2.326435000000056,1200,,,,-0.0625,0.048828125,-0.990234375,0.014634976339494066,0.6669767562957017,22.441086185973088,0.235603524957506,1604,0,5.287199009290454,2.4581979601991586,46.49338819816904,0.2713275200349058,0.12614935717829365,0.09375,,
2.334380000000005,1200,,,,-0.03125,0.041015625,-1.001953125,0.014634976339494066,0.6669767562957017,22.441033104566046,0.23449543003259396,1604,0,5.262319708230892,2.4581656063223423,46.712585753341436,0.2713310911926575,0.1267457686488472,0.09375,,
2.341730000000098,1200,,,,0,0.09375,-0.90234375,0.014634976339494066,0.6669767562957017,22.44098731669679,0.2341172373927447,1603,0,5.253821954950675,2.4573111277448088,46.7718767178489,0.271425440907769,0.12695077260225954,0.091796875,,
2.349765000000072,1200,,,,-0.0625,0.021484375,-1.013671875,0.014634976339494066,0.6669767562957017,22.44100407875522,0.23414246477035638,1603,0,5.2543920069213685,2.456928889939025,46.75952777605146,0.27146766804156647,0.12693699964089544,0.09375,,
2.357765000000072,1200,,,,0,0.09765625,-0.98046875,0.014634976339494066,0.6669767562957017,22.440954622374775,0.23555738421960945,1603,0,5.286132570237555,2.4567736661920834,46.475823932688044,0.27148481989775364,0.12617480689965524,0.09375,,
2.3658400000000257,1200,,,,-0.0625,-0.00390625,-0.966796875,0.014634976339494066,0.6669767562957017,22.440712709305792,0.2358837748711978,1603,0,5.293400024671115,2.4570464343720277,46.41716898251397,0.27145468110217774,0.12600157803814227,0.091796875,,
2.3739650000000254,1200,,,,-0.03125,0.056640625,-0.953125,0.014634976339494066,0.6669767562957017,22.44077629226853,0.23635786859192345,1604,0,5.304054053988756,2.45748988409333,46.33229335672489,0.2714056975830756,0.12574848399105618,0.09375,,
2.3819650000000254,1200,,,,0.0625,0.01953125,-0.953125,0.014634976339494066,0.6671755508957816,22.440672924069208,0.2369119343226955,1604,0,5.316463229944175,2.4576633419977303,46.22741164004132,0.2714674298528874,0.12549236626673466,0.09375,,
2.39147000000003,1200,,,,-0.0625,0.072265625,-0.955078125,0.014634976339494066,0.6671755508957816,22.440415427865652,0.23702594941983093,1604,0,5.318960772165278,2.458682828465081,46.22487237228079,0.27135486658614255,0.1254334407554172,0.09375,,
2.4009799999999815,1200,,,,-0.09375,0.03515625,-0.986328125,0.014634976339494066,0.6671755508957816,22.440507107615122,0.23676265495231377,1606,0,5.3130740412752235,2.4609932787876536,46.319574311766516,0.2711001109375028,0.1255724173449781,0.09375,,
2.409920000000042,1200,,,,-0.03125,0.08984375,-0.98828125,0.014628935368137409,0.6671755508957816,22.440825842891666,0.2365135660696903,1606,0,5.307559745651171,2.4607707119437126,46.3635046964847,0.2711246308555068,0.12570288096001972,0.09375,,
2.417935000000056,1200,,,,0,0.01171875,-0.9765625,0.014628935368137409,0.6671755508957816,22.44085087711717,0.23652820334410488,1606,0,5.307894139477504,2.4604242814096837,46.35405712239547,0.2711628055115469,0.1256949617615126,0.09375,,
2.4368850000000677,1200,,,,-0.03125,0.10546875,-0.98828125,0.014628935368137409,0.6671755508957816,22.44112868098005,0.23904453388760802,1606,0,5.3644291454567075,2.459803232602279,45.85396070867221,0.271231268441729,0.1243702792609037,0.09375,,
2.4532100000000208,1200,,,,-0.0625,0.044921875,-0.931640625,0.014628935368137409,0.6671755508957816,22.44135383811956,0.23487464506726485,1605,0,5.270905017557234,2.4594505019089477,46.660876902858014,0.27127016802246723,0.12657703917513954,0.09375,,
2.4611350000000094,1200,,,,-0.0625,-0.03515625,-0.953125,0.014628935368137409,0.6671755508957816,22.441622734980523,0.23475305281414421,1605,0,5.268239447139982,2.459381740570116,46.683180695312984,0.2712777524082625,0.12664108334293298,0.09375,,
2.4682600000000092,1200,,,,-0.03125,0.09375,-1,0.014628935368137409,0.6671755508957816,22.44155010763586,0.23465084811355053,1605,0,5.2659287657394955,2.4592154646655766,46.70050762299343,0.27129609441786323,0.12669665325449764,0.09375,,
2.4762299999999815,1200,,,,-0.0625,-0.03125,-0.96484375,0.014628935368137409,0.6671755508957816,22.441351404924617,0.23557150209962277,1605,0,5.286542859603572,2.4588517852917486,46.5115265418681,0.2713362207867359,0.12620261834892452,0.09375,,
2.4857350000001026,1200,,,,0,0.07421875,-0.966796875,0.014628935368137409,0.6671755508957816,22.441386743198244,0.2366412987713493,1605,0,5.310558905140573,2.4586924477639935,46.29818615483206,0.2713538049472314,0.12563188975268907,0.09375,,
2.4953700000001118,1200,,,,-0.0625,0.025390625,-0.95703125,0.014628935368137409,0.6671755508957816,22.441297499171014,0.23707160231879912,1605,0,5.320194356241332,2.458630159722047,46.213164314903835,0.2713606795465354,0.12540435672488007,0.09375,,
2.502390000000014,1200,,,,-0.0625,0.0625,-1.00390625,0.014628935368137409,0.6671755508957816,22.44112654334379,0.23752819595452793,1604,0,5.330400303027721,2.457163390049257,46.0971643847004,0.271522664547923,0.1251642490183747,0.09375,,
2.50922000000003,1200,,,,0,0.07421875,-0.96484375,0.014628935368137409,0.6671755508957816,22.441079521899177,0.2382680412822896,1604,0,5.346992061943016,2.4565343633608077,45.942360394455875,0.27159219135978724,0.12477586335771369,0.09375,,
2.5199949999999953,1200,,,,-0.03125,0.0078125,-0.9765625,0.014628935368137409,0.6671755508957816,22.440922453181873,0.2388800131909273,1603,0,5.360687851632663,2.456183046805438,45.81843067130607,0.27163103815227607,0.12445707889754955,0.09375,,
2.5368250000000114,1200,,,,0.03125,0.0390625,-0.98828125,0.014628935368137409,0.6745801422844239,22.44115280955353,0.23808975965334414,1604,0,5.343008678770568,2.457166427397715,45.98844162766944,0.27453579650233306,0.12625473452153282,0.09375,,
2.5451800000000513,1200,,,,0,0.015625,-0.998046875,0.014628935368137409,0.6745801422844239,22.44099854983032,0.23861116819802944,1604,0,5.354672879505297,2.457366731635593,45.89200473928152,0.2745134186118942,0.1259797110793342,0.09375,,
2.5533649999999906,1200,,,,-0.1875,0.04296875,-1.05078125,0.014628935368137409,0.6745801422844239,22.441016539650292,0.23944202777178633,1604,0,5.373322505514062,2.4575659552976035,45.73643128205442,0.2744911650612178,0.12554246308353445,0.095703125,,
2.5621950000000653,1200,,,,-0.03125,0.068359375,-0.982421875,0.014484424762707502,0.6745801422844239,22.44126917230679,0.2399136568885862,1604,0,5.383966952349218,2.4334720816454065,45.19849588942211,0.2772089095956682,0.12529425760870994,0.095703125,,
2.5698200000000653,1200,,,,-0.03125,0.02734375,-0.990234375,0.014484424762707502,0.6745801422844239,22.441206575935862,0.23997475466132703,1604,0,5.385323042364368,2.4335413545086926,45.18840068394992,0.2772010186038588,0.12526270698670228,0.095703125,,
2.578185000000056,1200,,,,0,0.0703125,-0.94140625,0.014484424762707502,0.6745801422844239,22.441081890799772,0.2397128781555887,1605,0,5.3794163289688735,2.434563373110967,45.25701719721001,0.27708465088030254,0.12540024809972783,0.09375,,
2.589890000000072,1200,,,,-0.03125,0.033203125,-0.958984375,0.014484424762707502,0.6745801422844239,22.441126736266398,0.23935967996473698,1606,0,5.371500913640827,2.4359565224908133,45.34964364065818,0.2769261832286943,0.12558503724188896,0.09375,,
2.608290000000037,1200,,,,-0.09375,0.033203125,-0.986328125,0.014484424762707502,0.6745801422844239,22.44106314366226,0.238466598205991,1607,0,5.3514439879949816,2.4377491471715356,45.55310963994381,0.2767225426238478,0.12605572323988165,0.09375,,
2.6159800000000395,1200,,,,-0.03125,0.07421875,-0.974609375,0.014484424762707502,0.6745801422844239,22.441076428151995,0.23648185614512632,1608,0,5.306907407624025,2.4385429922264135,45.95035874798092,0.27663245816655696,0.12711360694089113,0.09375,,
2.6242200000000304,1200,,,,0,0.03515625,-0.96484375,0.014484424762707502,0.6745801422844239,22.441089382342042,0.23823333367740515,1608,0,5.346215534907966,2.4388619852966182,45.61847477663661,0.27659627578408474,0.12617900230167894,0.09375,,
2.632164999999979,1200,,,,-0.03125,0.099609375,-0.9609375,0.014484424762707502,0.6745801422844239,22.441228921868067,0.24232642604412583,1609,0,5.4381028006743595,2.4400791537973996,44.870044632014206,0.2764583030983242,0.12404696398912718,0.09375,,
2.6401300000000045,1200,,,,-0.09375,0.03515625,-0.96875,0.014484424762707502,0.6745801422844239,22.44077719022771,0.24502940209565396,1610,0,5.498650217483285,2.441683165913868,44.40513706710041,0.2762766896629455,0.12268104272927859,0.095703125,,
2.6481750000000464,1200,,,,-0.125,-0.0546875,-0.9609375,0.014484424762707502,0.6745801422844239,22.44060751581204,0.2427007624106801,1610,0,5.44635255304642,2.4423188011753165,44.843200607885805,0.27620478618917227,0.1238590663593926,0.095703125,,
2.6561700000001003,1200,,,,-0.03125,0.078125,-0.9921875,0.014484424762707502,0.6745801422844239,22.440577367245155,0.24154523860843383,1610,0,5.420414614682251,2.442570000664355,45.06242002315059,0.2761763806568265,0.12445176065631436,0.09765625,,
2.6666750000000468,1200,,,,0,0.0390625,-0.92578125,0.014484424762707502,0.6745801422844239,22.440791091766737,0.23881189818288515,1614,0,5.359127917350394,2.448440873222034,45.68730045228268,0.2755141648148962,0.12587498426757895,0.09765625,,
2.673945000000007,1200,,,,-0.0625,0.04296875,-0.970703125,0.014484424762707502,0.6786465740576055,22.440691441951696,0.2389217636977168,1615,0,5.361569577907359,2.4500747899971853,45.69696903856014,0.2769901461083093,0.1265761013069766,0.095703125,,0.2707849999999744,4380,
2.683570000000007,1200,,,,0.0625,-0.02734375,-0.8984375,0.014484424762707502,0.6786465740576055,22.440655210567748,0.2372178724362781,1615,0,5.323324485126959,2.4493949835585744,46.012505726487895,0.2770670221066763,0.12748547941304392,0.09765625,,
2.6903300000000163,1500,,,,-0.03125,0.09765625,-1.01171875,0.014484424762707502,0.6786465740576055,22.440622009748825,0.23785722486908276,1614,0,5.3376640755749145,2.447780700128534,45.858650253573444,0.2772497446450042,0.12714299072567792,0.09765625,,
2.6996650000000955,1500,,,,-0.125,0.12109375,-0.984375,0.014484424762707502,0.6786465740576055,22.440728398098702,0.23757687174988432,1613,0,5.3313980526090825,2.4471535965543145,45.90078573024059,0.27732079221065886,0.12729242261802026,0.09765625,,
2.706994999999995,1500,,,,0,0.015625,-0.955078125,0.014330727278578733,0.6786465740576055,22.44056884082838,0.23794873847507134,1613,0,5.339705046338107,2.4209653665848685,45.3389343713869,0.2803206454022667,0.1270943934483819,0.09765625,,
2.716105000000098,1500,,,,-0.0625,0.078125,-0.953125,0.014330727278578733,0.6786465740576055,22.440538109707937,0.23694900004409805,1611,0,5.31726306554677,2.418089510385894,45.47620609658973,0.28065403333613687,0.12763080661833323,0.09765625,,
2.724195000000007,1500,,,,0.25,0.037109375,-1.1953125,0.014330727278578733,0.6786465740576055,22.434881300959407,0.44105125954525926,1611,0,9.89493265553653,2.4170817256446018,24.427470199023208,0.28077105000519587,0.06858526456750377,0.099609375,,
2.732420000000042,1500,,,,-0.75,0.453125,-0.453125,0.014330727278578733,0.6786465740576055,22.416877630501315,0.927546486654385,1610,0,20.792696087932768,2.4166962048465117,11.622813100457249,0.2808158396974466,0.03263870020451385,0.109375,,
2.7427800000000278,1500,,,,0.03125,-0.126953125,-0.833984375,0.014330727278578733,0.6786465740576055,22.402727591340433,1.2837267062946303,1698,0,28.75897970284729,2.5476139778154354,8.858499168394378,0.2663851666568187,0.023597727773020265,0.11328125,,
2.752355000000098,1500,,,,-0.03125,-0.41796875,-1.52734375,0.014330727278578733,0.6786465740576055,22.387858807681646,1.6974024000121206,1739,0,38.00120527129132,2.609163879693685,6.86600296245031,0.2601011685541494,0.01785855393829577,0.12109375,,
2.7594700000000887,1500,,,,-0.03125,0.1640625,-0.779296875,0.014330727278578733,0.6786465740576055,22.380275085158022,1.9173633645926145,2115,0,42.911119537786846,3.173637038357108,7.395838357380664,0.21383874899850536,0.01581516822137442,0.12890625,,
2.7667200000000887,1500,,,,0,0.013671875,-1.13671875,0.014330727278578733,0.6786465740576055,22.3750374893105,2.0529242819557125,2367,0,45.93425777147491,3.5519005838070647,7.732574240075755,0.19106575706299916,0.014774301512259197,0.134765625,,
2.774975000000035,1500,,,,0.125,-0.08984375,-0.82421875,0.014330727278578733,0.6786465740576055,22.371066888816248,2.1667045955142608,2603,0,48.47149343455508,3.906284471352736,8.05893153803255,0.17373198983191104,0.014000942120215383,0.134765625,,
2.783240000000107,1500,,,,-0.40625,0.12109375,-1.064453125,0.014330727278578733,0.6786465740576055,22.3676357737823,2.2532712636729326,2813,0,50.40035092536634,4.222019201456527,8.376963897946984,0.16073981232095857,0.013465116047754438,0.138671875,,
2.7913100000000557,1500,,,,0,0.28125,-1.09375,0.014330727278578733,0.6786465740576055,22.365456655160944,2.317841377433437,3575,0,51.83958086052607,5.365404986943572,10.350016141872647,0.1264856195774701,0.013091282043415786,0.140625,,
2.799265000000014,1500,,,,-0.34375,0.083984375,-0.994140625,0.014330727278578733,0.6786465740576055,22.36406661846376,2.3586063486580713,4471,0,52.748029508120666,6.709240702478212,12.719414857848502,0.1011510250045034,0.01286581850328886,0.142578125,,
2.807405000000028,1500,,,,0.0625,0.23828125,-0.98828125,0.014330727278578733,0.6786465740576055,22.363279217593256,2.387141648909172,3759,0,53.38431522650178,5.6409296936134306,10.566642411127308,0.12030757533212269,0.012712471278843012,0.14453125,,
2.8164550000000164,1500,,,,0.03125,0,-0.921875,0.014330727278578733,0.6786465740576055,22.362654529214268,2.405194185277172,3483,0,53.786526641028374,5.227000631614809,9.718048288374977,0.12983479855596405,0.012617408418782963,0.14453125,,
2.824255000000005,1500,,,,-0.03125,0.091796875,-0.974609375,0.014330727278578733,0.6879564721986491,22.362526355114234,2.4082660849706463,3435,0,53.854913795283856,5.154401878294145,9.570903590872561,0.13346969996571728,0.012774256306745668,0.14453125,,
2.832165000000037,1500,,,,-0.09375,-0.171875,-0.94921875,0.014330727278578733,0.6879564721986491,22.362500391380415,2.408201291345749,3458,0,53.85340232024213,5.1893714764305665,9.636107010605741,0.13257028819834074,0.012774614835060545,0.14453125,,
2.839305000000109,1500,,,,0.125,0.125,-0.90625,0.014330727278578733,0.6879564721986491,22.362507614529452,2.4023793007465577,3477,0,53.72322540593284,5.218167892295844,9.713057719203107,0.13183870017182758,0.012805569043936735,0.146484375,,
2.847195000000065,1500,,,,-0.09375,0.083984375,-0.88671875,0.014330727278578733,0.6879564721986491,22.362977196696963,2.3881235450202425,3509,0,53.4055523801828,5.266630478956327,9.86157851427938,0.1306255441591147,0.01288174059695578,0.146484375,,
2.855225000000035,1500,,,,-0.0625,-0.07421875,-1.01953125,0.01459120630698282,0.6879564721986491,22.36335439594793,2.3716988123892278,3538,0,53.03914106190912,5.405554651910244,10.191633091495003,0.1272684333985108,0.012970731773269906,0.146484375,,
2.8631450000000185,1500,,,,-0.0625,0.22265625,-0.947265625,0.01459120630698282,0.6879564721986491,22.36397501687602,2.353620712000727,3557,0,52.63631480238621,5.434572806397518,10.324759297455884,0.12658887767384303,0.013069996917175163,0.1484375,,
2.8713500000000347,1500,,,,0,-0.14453125,-1.04296875,0.01459120630698282,0.6879564721986491,22.364560872802038,2.3356038302111815,3584,0,52.234754035507564,5.475831885976903,10.483119882702239,0.1256350608499216,0.013170474043603185,0.15234375,,
2.8801500000000817,1500,,,,-0.125,0.1015625,-0.89453125,0.01459120630698282,0.6879564721986491,22.365242883032224,2.3165872904257196,3610,0,51.81103741011673,5.516535075410548,10.647412889542679,0.12470807541225512,0.013278183695745056,0.15234375,,
2.8883300000000163,1500,,,,-0.09375,0.01953125,-0.94921875,0.01459120630698282,0.6879564721986491,22.366131737454147,2.2933000334782085,3628,0,51.29225066228162,5.543426194908746,10.807531592652792,0.12410311746018907,0.013412483626976937,0.15234375,,
2.899530000000028,1500,,,,-0.03125,0.041015625,-0.97265625,0.01459120630698282,0.6879564721986491,22.366923220623736,2.2723283840469937,3642,0,50.824994498023116,5.565688797452523,10.950692375714878,0.1236067083940328,0.01353579039197747,0.15234375,,
2.9174000000000233,1500,,,,-0.1875,-0.064453125,-0.998046875,0.01459120630698282,0.6879564721986491,22.36861601389729,2.2205051590320632,3667,0,49.669627259266164,5.603809204522973,11.28216480319479,0.1227658628426147,0.013850646967967868,0.154296875,,
2.9245500000000466,1500,,,,0,-0.052734375,-0.94921875,0.01459120630698282,0.6879564721986491,22.369180958984874,2.204730354394191,3677,0,49.31801226321051,5.618259679105716,11.391902108951658,0.12245010225446794,0.013949395781140196,0.154296875,,
2.9323100000000557,1500,,,,-0.1875,0.078125,-0.92578125,0.01459120630698282,0.6879564721986491,22.37016569803492,2.180890531049337,3681,0,48.78688254884904,5.625197709191342,11.530143791333618,0.12229907423068108,0.014101259114267368,0.154296875,,
2.9395500000000467,1500,,,,0,0.0546875,-0.98046875,0.01459120630698282,0.6879564721986491,22.371029714302534,2.159257279419668,3693,0,48.30480875872144,5.642110694612795,11.680225715817807,0.12193246631185814,0.01424198728608854,0.154296875,,
2.9474800000000396,1500,,,,-0.09375,-0.111328125,-0.97265625,0.01459120630698282,0.6879564721986491,22.3717621897995,2.138899502591888,3697,0,47.85095101986616,5.648738908039765,11.804862364584128,0.12178939111869573,0.014377069996227076,0.154296875,,
2.955395000000077,1500,,,,0,0.291015625,-1.00390625,0.01459120630698282,0.6879564721986491,22.372493176836656,2.1171232676958613,3699,0,47.365325861047786,5.651362263189535,11.93143330158548,0.12173285663877756,0.014524474595970416,0.15625,,
2.9635000000000584,1500,,,,-0.125,0.0078125,-0.8359375,0.01459120630698282,0.6879564721986491,22.37316050686435,2.0960753978647984,3703,0,46.89583131091869,5.658344188613736,12.065772224185546,0.12158264843326803,0.01466988542409042,0.15625,,
2.9714700000000884,1500,,,,0.03125,0.056640625,-1.01953125,0.01459120630698282,0.6879564721986491,22.37394508621981,2.0769321559682146,3705,0,46.469166005436946,5.661056570783617,12.18239331026786,0.12152439453602218,0.014804579710299888,0.15625,,
2.9798450000000885,1500,,,,-0.125,-0.046875,-0.892578125,0.01459120630698282,2.2020209233629338,22.374634823139544,2.0584630578943,3706,0,46.05735921730812,5.66253687062409,12.294532224279454,0.3888753351499573,0.04781040339228623,0.158203125,,
2.9878150000000607,1500,,,,0.4375,0.12890625,-1.12109375,0.01459120630698282,2.2020209233629338,22.37541476856633,2.0414194652791076,3707,0,45.677607252244925,5.663906628889689,12.399744578589598,0.38878128960162645,0.0482078868799484,0.16015625,,
2.9965950000000885,1500,,,,-0.15625,-0.208984375,-0.921875,0.01459120630698282,2.2020209233629338,22.376044274228285,2.0223005351419094,3709,0,45.251086310130916,5.667875853525116,12.525391798729435,0.3885090252979685,0.04866227759199541,0.162109375,,
3.004679999999993,1500,,,,0.09375,0.298828125,-1.02734375,0.01459120630698282,2.2020209233629338,22.376686543887484,2.0050081238242785,3711,0,44.86543830476382,5.66966532354057,12.637044321349164,0.38838640337730285,0.04908056193288371,0.1640625,,
3.0120400000000953,1500,,,,-0.1875,-0.0625,-0.890625,0.05534159886883236,2.2020209233629338,22.377275684571813,1.9928404216697206,3709,0,44.594339511061676,21.497653237339264,48.20713452209949,0.10243075832752965,0.04937893345895884,0.166015625,,
3.019489999999991,1500,,,,-0.03125,-0.0625,-1.052734375,0.05534159886883236,2.2020209233629338,22.377913591266978,1.9794640800199246,3711,0,44.296276139702655,21.507630340322546,48.55403707637018,0.10238324206430964,0.04971119731189474,0.166015625,,
3.0288150000000025,1500,,,,-0.375,0.12109375,-0.9296875,0.05534159886883236,2.2020209233629338,22.37846513991487,1.9659421817013312,3712,0,43.99476858029142,21.512228271317444,48.89724157102259,0.10236135911122322,0.05005188103999676,0.166015625,,
3.0365500000000467,1500,,,,-0.01953125,0.044921875,-1.001953125,0.05534159886883236,2.2020209233629338,22.379195628744718,1.950247539791198,3713,0,43.64497121746532,21.51593250853872,49.29762102793811,0.1023437363214004,0.05045302727755622,0.16796875,,
3.043755000000005,1500,,,,-0.3125,-0.0390625,-0.9453125,0.05534159886883236,2.2020209233629338,22.379667979176023,1.9369143273367593,3713,0,43.34749954990574,21.519803775383796,49.64485610204151,0.10232532537688818,0.0507992605393019,0.169921875,,
3.053405000000028,1500,,,,0,0.24609375,-1.0546875,0.05534159886883236,2.2020209233629338,22.38021742399311,1.9262465086116876,3713,0,43.10981567493718,21.517213037772592,49.912560981517,0.10233764565593953,0.051079339795069595,0.169921875,,
3.0617950000001,1500,,,,-0.0625,0.03125,-0.94921875,0.05534159886883236,2.2020209233629338,22.380750802346224,1.9121453944835347,3711,0,42.79524957179001,21.509245441845096,50.26082487441239,0.1023755542385982,0.051454798030070914,0.169921875,,
3.0694000000000816,1500,,,,-0.0625,0.056640625,-1.0078125,0.05534159886883236,2.2020209233629338,22.380906598162504,1.8994983880072618,3711,0,42.51249600535076,21.503948471302092,50.58265331820445,0.10240077194667863,0.0517970274689536,0.169921875,,
3.07770000000007,1500,,,,-0.0625,0.0390625,-0.88671875,0.05534159886883236,2.2020209233629338,22.381388573514602,1.8885520762092662,3713,0,42.26841785895735,21.51689658520348,50.905374923191516,0.10233915075267858,0.052096128383861205,0.169921875,,
3.0866849999999975,1500,,,,0.03125,0.09375,-1.060546875,0.05534159886883236,2.2020209233629338,22.381863146494435,1.881959261816545,3715,0,42.1217546452556,21.527046933114498,51.10671935301063,0.1022908962016347,0.052277521245448856,0.169921875,,
3.0939400000000608,1500,,,,-0.125,-0.01953125,-0.8515625,0.05534159886883236,2.2020209233629338,22.382222830569194,1.8790249044513274,3715,0,42.0567541156186,21.528945120671917,51.19022039001512,0.10228187730612825,0.052358318412051914,0.171875,,
3.1023549999999815,1500,,,,0,0.01953125,-0.984375,0.05534159886883236,2.2020209233629338,22.382311352767427,1.8719226491776753,3717,0,41.89795556219196,21.543401011613376,51.418740419529676,0.10221324488997316,0.05255676306435348,0.173828125,,
3.1106300000000044,1500,,,,-0.1875,-0.0859375,-0.8828125,0.05534159886883236,2.2020209233629338,22.38291664873038,1.8619939739034725,3718,0,41.676855918319674,21.544460791627422,51.69406452792721,0.10220821698256101,0.05283558163980894,0.173828125,,
3.1185900000000255,1500,,,,0.125,0.28515625,-0.98046875,0.05534159886883236,2.2020209233629338,22.383265275351267,1.8506767401992819,3719,0,41.42418841480286,21.55093805468397,52.02500973316059,0.1021774976929293,0.05315785311984641,0.17578125,,
3.126625,1500,,,,-0.25,-0.23828125,-0.9375,0.05534159886883236,3.2982176939479144,22.38362685605522,1.8421277428161769,3721,0,41.23350001638456,21.565534524908024,52.30100407760373,0.15293929719843016,0.07998878806400946,0.177734375,,
3.134710000000021,1500,,,,0.09375,0.109375,-1.017578125,0.05534159886883236,3.2982176939479144,22.383842787672275,1.8314424701636727,3720,0,40.99472032680982,21.557693724559623,52.58651248917358,0.15299492311602964,0.08045469435221243,0.177734375,,
3.1426250000000584,1500,,,,-0.125,-0.1171875,-0.9765625,0.05534159886883236,3.2982176939479144,22.384144818656704,1.8251799645259053,3719,0,40.85509264605857,21.55009862146218,52.74764350226284,0.1530488445497485,0.08072965890743376,0.1796875,,
3.150614999999991,1500,,,,0,0.28515625,-1.16796875,0.05534159886883236,3.2982176939479144,22.38426732073287,1.8162354966434788,3717,0,40.65510087427166,21.542620193095082,52.98872645702425,0.15310197480086807,0.08112678662753417,0.181640625,,
3.1588649999999907,1500,,,,-0.15625,-0.05078125,-0.861328125,0.07101566491917277,3.2982176939479144,22.384516094266143,1.809326410773079,3719,0,40.500896161730786,27.65761188595723,68.2888886594338,0.11925171658159461,0.08143567196086869,0.181640625,,
3.1663800000000046,1500,,,,0.09375,0.08984375,-1.02734375,0.07101566491917277,3.2982176939479144,22.384688643025857,1.8024899696787628,3719,0,40.34817675343623,27.659097205661954,68.55104599814757,0.11924531265151897,0.08174390912637765,0.18359375,,
3.173489999999991,1500,,,,-0.25,0.109375,-0.890625,0.07101566491917277,3.2982176939479144,22.384830130923326,1.7979967201471871,3719,0,40.24785115645207,27.657838592599212,68.71879565715753,0.11925073909537039,0.08194767171859763,0.18359375,,
3.1817900000000954,1500,,,,0.1875,0.0078125,-1.037109375,0.07101566491917277,3.2982176939479144,22.385085652152725,1.7939853908555548,3716,0,40.158516633012276,27.633923180695803,68.81211134671085,0.11935394306415191,0.08212996819799408,0.185546875,,
3.189565000000002,1500,,,,-0.5,-0.0078125,-0.9921875,0.07101566491917277,3.2982176939479144,22.385227385445596,1.7891793066117936,3717,0,40.05118561183888,27.640039111653177,69.01178751493178,0.11932753353295254,0.08235006388857016,0.1875,,
3.1978400000000256,1500,,,,0.15625,0.125,-0.9609375,0.07101566491917277,3.2982176939479144,22.385431713397185,1.7826645079151282,3718,0,39.9057146098309,27.65029466576517,69.28906031657289,0.11928327469260416,0.08265026014934182,0.1875,,
3.2085750000000117,1500,,,,-0.21875,-0.11328125,-0.998046875,0.07101566491917277,3.2982176939479144,22.385462596922522,1.7773334661826878,3716,0,39.78643182949122,27.63614209787944,69.46122290211126,0.11934436008711186,0.08289805198120706,0.189453125,,
3.2172450000000534,1500,,,,-0.03125,0.275390625,-0.9375,0.07101566491917277,3.2982176939479144,22.385700699807796,1.7689929564161475,3714,0,39.60014686240002,27.623771361212974,69.75673968381541,0.11939780599903894,0.08328801671893654,0.19140625,,
3.22572000000003,1500,,,,0,-0.033203125,-0.982421875,0.07101566491917277,3.2982176939479144,22.38601058563246,1.7657852915861496,3715,0,39.528888229401645,27.624450903972136,69.8842090970447,0.11939486889397906,0.0834381598290107,0.19140625,,
3.232895000000077,1500,,,,-0.3125,0.078125,-0.8828125,0.07101566491917277,3.2982176939479144,22.38603875798827,1.7604270887874292,3715,0,39.40898904020785,27.63008289711408,70.11111822463629,0.11937053197521924,0.08369201479852321,0.193359375,,
3.2408099999999975,1500,,,,-0.03125,0.07421875,-0.8984375,0.07101566491917277,3.2982176939479144,22.386330327397754,1.7589329100742928,3717,0,39.37605314865413,27.640464663054686,70.19612798343512,0.1193256963713942,0.08376201854198907,0.19140625,,
3.248780000000028,1500,,,,0,-0.00390625,-1.02734375,0.07101566491917277,3.2982176939479144,22.38641288499159,1.7542808221992714,3715,0,39.27205480197541,27.62711329883215,70.34802084621884,0.11938336294032342,0.08398383304817582,0.19140625,,
3.2566600000000325,1500,,,,-0.125,-0.064453125,-0.955078125,0.07101566491917277,3.2982176939479144,22.386392959428584,1.7471010573827797,3715,0,39.11129081040409,27.629625031885865,70.64360306036241,0.11937251012786525,0.08432904221792004,0.19140625,,
3.264795000000042,1500,,,,0.125,0.265625,-1.0078125,0.07101566491917277,3.2982176939479144,22.3866055352256,1.7411718152376292,3718,0,38.97892659677751,27.646232855277272,70.92610102188617,0.119300799903316,0.08461540585934417,0.19140625,,
3.2724900000000487,1500,,,,-0.15625,-0.072265625,-0.8984375,0.07101566491917277,3.2982176939479144,22.386673614501575,1.7374404854609535,3716,0,38.89551307263554,27.633348919744158,71.04508139059685,0.11935642341168871,0.08479686815773964,0.193359375,,
3.279850000000035,1500,,,,0.0625,0.30078125,-0.994140625,0.07101566491917277,3.8012807125981323,22.386732094434443,1.734093872812128,3715,0,38.82069495724539,27.627614623563208,71.16723349231765,0.1375898992508775,0.09791892486171662,0.193359375,,
3.287784999999974,1500,,,,-0.125,-0.203125,-0.86328125,0.07101566491917277,3.8012807125981323,22.386859530512822,1.730697834945138,3716,0,38.74488932067947,27.633696816835975,71.32217255318608,0.13755961563138314,0.09811050642411459,0.1953125,,
3.2960050000000627,1500,,,,0.03125,0.12890625,-1.013671875,0.07101566491917277,3.8012807125981323,22.387108265841803,1.7267200048981883,3717,0,38.656267694450634,27.63896733357063,71.49931688189956,0.13753338417897581,0.09833543017252624,0.1953125,,
3.305065000000002,1500,,,,-0.125,0.07421875,-0.8828125,0.07101566491917277,3.8012807125981323,22.387156724586163,1.7242992230505458,3717,0,38.602156946514725,27.640178021439006,71.6026776942436,0.1375273599775545,0.09847327230613051,0.1953125,,
3.3130550000000514,1500,,,,0.09375,0.076171875,-1.095703125,0.07297383505823182,3.8012807125981323,22.38739406665271,1.7194666036926538,3716,0,38.494376441316405,28.394801617723243,73.76350584873175,0.13387241664070929,0.09874898787860813,0.1953125,,
3.32057500000007,1500,,,,-0.21875,-0.119140625,-0.974609375,0.07297383505823182,3.8012807125981323,22.387555943155913,1.7159043829703338,3715,0,38.414905366854775,28.38583112530944,73.89275296718904,0.13391472301153887,0.09895327546161185,0.197265625,,
3.328695000000065,1500,,,,0.09375,-0.033203125,-0.986328125,0.07297383505823182,3.8012807125981323,22.387381481513597,1.7146726766779234,3716,0,38.387031328716695,28.394261083730264,73.96836926665125,0.1338749651342835,0.09902512856612743,0.19921875,,
3.336785000000091,1500,,,,-0.3125,-0.09375,-1.0390625,0.07297383505823182,3.8012807125981323,22.3874118209017,1.7137161525889182,3717,0,38.36566925213933,28.403540205158443,74.03374099508147,0.1338312296686091,0.0990802659433907,0.201171875,,
3.344834999999963,1500,,,,0.15625,0.30859375,-0.9921875,0.07297383505823182,3.8012807125981323,22.387440796283087,1.7157942290491324,3716,0,38.41224172144163,28.395258630279674,73.92241993111665,0.13387026200721358,0.0989601372438585,0.203125,,
3.352810000000114,1500,,,,-0.3125,-0.0390625,-0.91796875,0.07297383505823182,3.8012807125981323,22.387206844674093,1.719036748714552,3718,0,38.484431267068715,28.415878265063963,73.83733455190631,0.13377312068765562,0.09877450666266968,0.205078125,,
3.362979999999981,1500,,,,0.03125,0.029296875,-1,0.07297383505823182,3.8012807125981323,22.38695070733265,1.7211708282158258,3720,0,38.53176649016661,28.426029003023906,73.77297121915832,0.1337253512333277,0.09865316487808123,0.205078125,,
3.370445000000007,1500,,,,-0.15625,-0.078125,-1.005859375,0.07297383505823182,3.8012807125981323,22.386933542682613,1.7163095234819619,3721,0,38.42290724086394,28.434865167412386,74.00498090673116,0.13368379593916865,0.09893266766017522,0.205078125,,
3.3776200000001118,1500,,,,-0.0625,0.3203125,-1.0390625,0.07297383505823182,3.8012807125981323,22.38692211823241,1.7125153126444044,3723,0,38.337946930450705,28.4539817147103,74.21884579873038,0.1335939817039007,0.09915191127720213,0.205078125,,
3.385975000000035,1500,,,,-0.09375,-0.064453125,-0.951171875,0.07297383505823182,3.8012807125981323,22.38697584134651,1.7091633328390745,3724,0,38.262998241183645,28.455015197393294,74.36692498071487,0.13358912958677174,0.09934612778218453,0.205078125,,
3.404285000000091,1500,,,,0.0625,0.083984375,-0.943359375,0.07297383505823182,3.8012807125981323,22.386968880064437,1.7056565119691884,3722,0,38.184479253533475,28.44379279418769,74.49045620166626,0.13364183673053967,0.09955041385686499,0.20703125,,
3.4121750000000466,1500,,,,-0.1875,0.013671875,-0.916015625,0.07297383505823182,3.8012807125981323,22.38721563036372,1.7020567271388332,3721,0,38.1043109655682,28.43502997127399,74.6241809672623,0.13368302113408398,0.09975985961360234,0.20703125,,
3.4206450000000186,1500,,,,0.0625,0.2421875,-0.94921875,0.07297383505823182,3.8012807125981323,22.387326640770823,1.6999872362920876,3721,0,38.058169544012216,28.431453553900027,74.70525749017064,0.1336998372380683,0.09988080767263798,0.20703125,,
3.4285950000000884,1500,,,,-0.125,-0.044921875,-0.953125,0.07297383505823182,4.003247145518145,22.387166014367335,1.698128831903511,3720,0,38.01629207360758,28.43017236879487,74.78418019765853,0.1408098091558577,0.10530346141509571,0.20703125,,
3.4377600000000093,1500,,,,0.0625,0.15234375,-1.044921875,0.07297383505823182,4.003247145518145,22.38713825955271,1.69554891246542,3719,0,37.958487929197595,28.423256645436503,74.87984426158711,0.14084406989164933,0.10546382018654792,0.20703125,,
3.445860000000044,1500,,,,-0.1875,-0.15625,-0.87109375,0.07297383505823182,4.003247145518145,22.38724593148239,1.6937198025187838,3717,0,37.9177217580098,28.403055208331697,74.90707218540047,0.14094424406652703,0.10557720664408042,0.208984375,,
3.453975000000035,1500,,,,0,0.119140625,-1.03125,0.07297383505823182,4.003247145518145,22.387282959642803,1.6932569907552457,3717,0,37.907423375430966,28.401052446798833,74.92213903730128,0.14095418305420448,0.10560588900676324,0.208984375,,
3.462039999999979,1500,,,,-0.0625,0.234375,-0.87890625,0.07375593775922695,4.003247145518145,22.387515010717696,1.6923896118281414,3718,0,37.88839783878521,28.716724180311775,75.79292294834207,0.13940472876996104,0.10565891866296183,0.208984375,,
3.4698800000000047,1500,,,,0.0625,-0.099609375,-0.978515625,0.07375593775922695,4.003247145518145,22.387344656790354,1.6916815937204472,3716,0,37.87225888816805,28.703148745573223,75.78937615083896,0.13947066159894916,0.10570394433929127,0.2109375,,
3.478780000000028,1500,,,,-0.1875,0.162109375,-0.935546875,0.07375593775922695,4.003247145518145,22.387234544119956,1.6894922360942584,3717,0,37.82305894991185,28.706965412023845,75.8980532220828,0.13945211860816867,0.10584144320054989,0.2109375,,
3.486740000000049,1500,,,,0.125,0.072265625,-1.10546875,0.07375593775922695,4.003247145518145,22.387272176822904,1.6889166275176213,3717,0,37.81023622419882,28.70927023939817,75.9298885866892,0.1394409231630147,0.10587733760192797,0.2109375,,
3.4948150000000022,1500,,,,-0.4375,-0.0703125,-0.93359375,0.07375593775922695,4.003247145518145,22.387441307159598,1.6880376631185188,3715,0,37.79084410734068,28.693970279359664,75.9283656058532,0.1395152746916235,0.10593166784386629,0.212890625,,
3.50295000000007,1500,,,,0.09375,0.08203125,-1.048828125,0.07375593775922695,4.003247145518145,22.38746873100776,1.688811951181266,3714,0,37.8082247496228,28.688064316207353,75.87784008952593,0.13954399646463794,0.10588297049197169,0.21484375,,
3.5138750000001164,1500,,,,-0.1875,-0.21875,-0.86328125,0.07375593775922695,4.003247145518145,22.387429950784416,1.6885933656964947,3715,0,37.803265689889564,28.694728122124378,75.90542139273101,0.13951159002031238,0.1058968602966174,0.21484375,,
3.530375000000058,1500,,,,-0.3125,0.04296875,-0.93359375,0.07375593775922695,4.003247145518145,22.387544826611506,1.6888442287626928,3716,0,37.80907587658892,28.698537120795432,75.90383117130175,0.13949307341583367,0.1058805869412144,0.21875,,
3.537410000000033,1500,,,,-0.03125,-0.03125,-1.0234375,0.07375593775922695,4.003247145518145,22.387761068862606,1.6881489979092783,3715,0,37.79387641383276,28.689912210611155,75.91153629351048,0.13953500854692463,0.10592316865525164,0.216796875,,
3.5447999999999884,1500,,,,-0.125,-0.009765625,-0.966796875,0.07375593775922695,4.003247145518145,22.38785568440928,1.6871604599388614,3714,0,37.771904893552815,28.68951132202926,75.95463189606356,0.13953695831843077,0.10598478304972775,0.216796875,,
3.552710000000021,1500,,,,0.0625,0.23046875,-1.07421875,0.07375593775922695,4.003247145518145,22.387929142254468,1.6866944557584405,3715,0,37.76159596015343,28.69234803038081,75.98287969782152,0.13952316280561347,0.10601371694518494,0.216796875,,
3.5607050000000746,1500,,,,-0.15625,-0.0546875,-0.923828125,0.07375593775922695,4.003247145518145,22.38773707047851,1.6872137395374358,3716,0,37.772897582462925,28.701471951209868,75.98430035331812,0.13947880973921248,0.10598199772147633,0.21875,,
3.5678700000001116,1500,,,,0.0625,0.3671875,-1.046875,0.07375593775922695,4.003247145518145,22.387806289933884,1.6858641157037704,3716,0,37.7427992535267,28.70109410114615,76.04389358710407,0.13948064597851964,0.10606651400251083,0.21875,,
3.575325000000012,1500,,,,-0.09375,-0.212890625,-0.884765625,0.07375593775922695,4.081058241323089,22.38781572118593,1.685471699673048,3715,0,37.73402981555424,28.6969188125295,76.05050123933601,0.14221241897026377,0.10815325745147018,0.21875,,
3.5822100000000208,1500,,,,0,0.265625,-1.109375,0.07375593775922695,4.081058241323089,22.387992350569597,1.6837743628379322,3714,0,37.696327555300826,28.684319723233497,76.0931411187293,0.14227488330558338,0.10826142773022498,0.21875,,
3.5892300000000397,1500,,,,0.03125,0.185546875,-0.82421875,0.07375593775922695,4.081058241323089,22.38799270238438,1.6846412276892413,3713,0,37.7157355116426,28.675843854251788,76.03151168933123,0.14231693623614106,0.10820571801027966,0.220703125,,
3.5961849999999975,1500,,,,0.125,-0.08984375,-1.16796875,0.07375593775922695,4.081058241323089,22.387993038053573,1.6846262645343966,3712,0,37.71540108211827,28.669363353875227,76.0150032382077,0.1423491059410447,0.10820667749064485,0.22265625,,
3.6037850000000327,1500,,,,-0.1875,0.125,-1.08984375,0.07375593775922695,4.081058241323089,22.387903356055393,1.685490304047468,3713,0,37.73459403458313,28.677951745691708,75.9990997104907,0.14230647563371351,0.10815164031135108,0.22265625,,
3.6110050000001213,1500,,,,-0.09375,-0.0234375,-0.94140625,0.07388220303849236,4.081058241323089,22.387907773936135,1.6848432538474414,3715,0,37.72011538067498,28.742283416459973,76.1988215740862,0.1419879618536491,0.10819315370954363,0.22265625,,
3.6183800000000046,1500,,,,0.25,0.203125,-1.10546875,0.07388220303849236,4.081058241323089,22.388031116989445,1.6840426115025398,3714,0,37.70239838865503,28.731393065866335,76.20574364975108,0.14204178098734432,0.10824399549475648,0.224609375,,
3.6258200000000653,1500,,,,-0.21875,-0.001953125,-0.919921875,0.07388220303849236,4.081058241323089,22.388029762479572,1.6834779172497396,3713,0,37.68975371586429,28.72490884439382,76.21410599003991,0.14207384480941812,0.10828031066717475,0.224609375,,
3.6340100000000093,1500,,,,0.09375,0.173828125,-0.978515625,0.07388220303849236,4.081058241323089,22.38793150639176,1.683833089757589,3712,0,37.69753988168891,28.7179939270995,76.18002134152232,0.14210805433286314,0.10825794611879727,0.224609375,,
3.6424800000000976,1500,,,,-0.25,-0.28515625,-0.91796875,0.07388220303849236,4.081058241323089,22.387934887402157,1.684706084827961,3715,0,37.717090131538605,28.739332060400425,76.19710842000751,0.14200254316092228,0.10820183177149592,0.224609375,,
3.6514150000000374,1500,,,,0.09375,0.28125,-1.03125,0.07388220303849236,4.081058241323089,22.38771888143464,1.6850409390807006,3715,0,37.72422284784736,28.741869659405577,76.18942814363547,0.14199000585849472,0.10818137348470162,0.2265625,,
3.6597450000000538,1500,,,,-0.0625,-0.06640625,-1,0.07388220303849236,4.081058241323089,22.387883963186663,1.685850725422136,3714,0,37.74263042000484,28.736333438607677,76.13760121863808,0.14201736105414647,0.10812861202063948,0.2265625,,
3.6700250000000234,1500,,,,0,0.12109375,-1.16796875,0.07388220303849236,4.081058241323089,22.387888955354992,1.6854121607825254,3713,0,37.73282029960409,28.72346439507816,76.12329045910077,0.14208098943741582,0.10815672427660832,0.2265625,,
3.6779949999999952,1500,,,,-0.25,-0.021484375,-0.9140625,0.07388220303849236,4.081058241323089,22.38803378862967,1.684888654366572,3712,0,37.72134412403759,28.71636398985356,76.12762656449007,0.14211612036833987,0.108189629401951,0.228515625,,
3.686184999999998,1500,,,,0.03125,-0.109375,-0.931640625,0.07388220303849236,4.081058241323089,22.388032200257513,1.6857919179362262,3713,0,37.7415637416901,28.723518819409747,76.10579947348913,0.1420807202272633,0.10813166802665013,0.228515625,,
3.6964000000000232,1500,,,,-0.09375,0.189453125,-0.998046875,0.07388220303849236,4.081058241323089,22.388030288356607,1.683869920772319,3714,0,37.698530787903316,28.73675843268392,76.22779411314606,0.14201526072897191,0.10825510055772827,0.23046875,,
3.7051750000000467,1500,,,,-0.03125,0.07421875,-0.904296875,0.07388220303849236,4.081058241323089,22.3881020867651,1.683415386918614,3715,0,37.688475536765104,28.740950527210863,76.25925463388423,0.14199454668206937,0.10828398292050888,0.23046875,,
3.712875000000058,1500,,,,-0.0625,0.00390625,-1.0546875,0.07388220303849236,4.081058241323089,22.388097094984033,1.6837786660928535,3714,0,37.6966002629495,28.736325452040212,76.2305493110582,0.14201740052444123,0.10826064453706719,0.23046875,,
3.7212800000000863,1500,,,,-0.125,-0.01953125,-0.81640625,0.07388220303849236,4.081058241323089,22.388092371536636,1.6823184013254655,3714,0,37.66389976721037,28.737523188630384,76.29991415187666,0.142011481453548,0.10835463843486536,0.23046875,,
3.7292399999999906,1500,,,,0.03125,0.091796875,-1.08203125,0.07388220303849236,4.1142573984917155,22.387989209323255,1.6801685719661756,3714,0,37.615595859022804,28.73699122585714,76.3964801556215,0.14316938632008783,0.10937637180895099,0.23046875,,
3.737080000000016,1500,,,,-0.3125,0.02734375,-0.73046875,0.07388220303849236,4.1142573984917155,22.387989754727673,1.6800531877363405,3713,0,37.61301355443876,28.728800695162853,76.37994933211762,0.14321020366104054,0.10938388099472521,0.23046875,,
3.7451500000000815,1500,,,,0.09375,0.078125,-0.97265625,0.07388220303849236,4.1142573984917155,22.38808954727636,1.6781653479828937,3713,0,37.57091608577721,28.728523555923374,76.46479391222191,0.1432115851858116,0.10950644347075694,0.23046875,,
3.7532700000000188,1500,,,,-0.15625,-0.251953125,-0.935546875,0.07388220303849236,4.1142573984917155,22.38808520350169,1.6787822082177488,3713,0,37.584719115701674,28.72941733711532,76.43909017564829,0.14320712982844022,0.10946622710751915,0.232421875,,
3.7624400000000606,1500,,,,0.0625,0.359375,-1.11328125,0.07411221436458723,4.1142573984917155,22.387971356991457,1.6765945252883185,3713,0,37.535550209443564,28.814976307669422,76.76716112295023,0.14278191155051065,0.10960962009440879,0.232421875,,
3.7700500000000465,1500,,,,-0.03125,0.140625,-0.892578125,0.07411221436458723,4.1142573984917155,22.38803894402428,1.6762228867610973,3713,0,37.52734326767225,28.819728842705846,76.79661370415332,0.1427583660119348,0.10963359087654687,0.232421875,,
3.778170000000042,1500,,,,0,0.09375,-1.07421875,0.07411221436458723,4.1142573984917155,22.388135265494626,1.67725920108014,3714,0,37.550705869077625,28.8215764096547,76.75375400436556,0.14274921468603344,0.10956538108328177,0.234375,,
3.78625,1500,,,,-0.3125,-0.02734375,-0.91015625,0.07411221436458723,4.1142573984917155,22.388128679779044,1.6776031769737783,3714,0,37.558395799695084,28.82230205704566,76.73997103273419,0.14274562074704153,0.10954294801177628,0.236328125,,
3.7941100000001025,1500,,,,0.15625,0.009765625,-1.025390625,0.07411221436458723,4.1142573984917155,22.388417727429857,1.6760097980615707,3715,0,37.52320747426781,28.834724643260024,76.84504226626665,0.14268412302849587,0.10964567464849957,0.236328125,,
3.802060000000056,1500,,,,-0.3125,0.03125,-0.828125,0.07411221436458723,4.1142573984917155,22.388074263023324,1.6765162810457923,3715,0,37.53397100322088,28.833549655146413,76.81987512771335,0.14268993751025635,0.10961423181519114,0.236328125,,
3.8101999999999534,1500,,,,0.03125,0.166015625,-0.9921875,0.07411221436458723,4.1142573984917155,22.3879721180382,1.6772204421380608,3715,0,37.54956449439061,28.833077218057053,76.7867153888411,0.14269227552011388,0.10956871148549084,0.236328125,,
3.8200050000000045,1500,,,,-0.1875,-0.2109375,-0.982421875,0.07411221436458723,4.1142573984917155,22.387777945022393,1.6774602040010815,3715,0,37.55460655878818,28.83289236012066,76.77591380164108,0.14269319037108555,0.10955400084011624,0.23828125,,
3.8357850000000324,1500,,,,-0.1875,0,-0.90234375,0.07411221436458723,4.1142573984917155,22.387658834863245,1.6757417690293965,3716,0,37.51593502036033,28.83752357427988,76.8673993028014,0.14267027430057178,0.10966692943302254,0.23828125,,
3.845560000000056,1500,,,,-0.09375,0.03125,-1.11328125,0.07411221436458723,4.1142573984917155,22.387608991766328,1.6757353432499442,3715,0,37.51570763836308,28.834608588934802,76.86009515504621,0.14268469730747618,0.10966759412221584,0.240234375,,
3.854859999999986,1500,,,,-0.0625,-0.130859375,-0.88671875,0.07411221436458723,4.1142573984917155,22.387475237004036,1.6809611833776477,3719,0,37.632476867232086,28.859913169718837,76.68884849524261,0.1425595903319829,0.1093273082451329,0.240234375,,
3.861370000000112,1500,,,,0,0.107421875,-1.00390625,0.07411221436458723,4.1142573984917155,22.38724261280881,1.6845898278838796,3719,0,37.713321179906245,28.861646133791503,76.52904923464831,0.1425510305067008,0.10909294832097158,0.240234375,,
3.8684299999999348,1500,,,,-0.0625,0.1640625,-0.8671875,0.07411221436458723,4.1142573984917155,22.387275628182337,1.6833006965235728,3720,0,37.684516658184535,28.867981989330513,76.6043578352777,0.14251974384674093,0.10917633456227858,0.23828125,,
3.8764600000000793,1500,,,,0.1875,-0.0859375,-1.015625,0.07411221436458723,4.126045883581577,22.387040736846533,1.6816057363816612,3721,0,37.64617612369106,28.876515506392735,76.70504279509146,0.14288586455897512,0.10960066355809829,0.23828125,,
3.88557500000007,1500,,,,-0.1875,-0.072265625,-0.916015625,0.07411221436458723,4.126045883581577,22.387381864490777,1.678695235890078,3725,0,37.5815912799726,28.906145909006405,76.91570506864254,0.14273939862373725,0.10978901486218776,0.240234375,,
3.893420000000042,1500,,,,0.125,0.1484375,-1.03515625,0.07411221436458723,4.126045883581577,22.38751007913766,1.6764182924078814,3725,0,37.53083141813219,28.90825035249252,77.02533959459832,0.14272900757640708,0.10993750278572753,0.23828125,,
3.9013699999999956,1500,,,,-0.1875,-0.060546875,-0.9453125,0.07411221436458723,4.126045883581577,22.38760000592216,1.6749874534944575,3724,0,37.498949123772064,28.90501476901482,77.08219948673386,0.14274498444486375,0.11003097366709708,0.240234375,,
3.9090600000000557,1500,,,,-0.03125,-0.00390625,-0.927734375,0.0739503019719766,4.126045883581577,22.38752161486337,1.6744857188750815,3723,0,37.48758522509591,28.828472342406613,76.90138527009606,0.14312398640396123,0.11006432819843014,0.23828125,,
3.92882500000007,1500,,,,0.0625,0.19921875,-0.9765625,0.0739503019719766,4.126045883581577,22.387578846691255,1.67107118998057,3717,0,37.41123802412419,28.78826133391083,76.95083844952435,0.14332389982584132,0.11028894261454128,0.23828125,,
3.936130000000005,1500,,,,-0.03125,-0.16015625,-0.966796875,0.0739503019719766,4.126045883581577,22.387687502218334,1.6713724802889662,3719,0,37.41816478851695,28.800643942061473,76.96968599299115,0.1432622788532778,0.11026852617977129,0.23828125,,
3.9435600000000557,1500,,,,-0.09375,0.208984375,-0.85546875,0.0739503019719766,4.126045883581577,22.387701897237974,1.670619354584772,3719,0,37.40132809419998,28.800113138571742,77.00291568800715,0.14326491926365384,0.11031816499108289,0.240234375,,
3.950590000000084,1500,,,,0.125,-0.16015625,-1.125,0.0739503019719766,4.126045883581577,22.387714833028472,1.6705066738105692,3718,0,37.398827039941935,28.794255528318825,76.99240272312971,0.14329406362055994,0.11032554254107921,0.240234375,,
3.9585250000000234,1500,,,,-0.0625,0.33203125,-1.10546875,0.0739503019719766,4.126045883581577,22.387919878548185,1.6688819828685826,3718,0,37.36279611921445,28.791560710789703,77.05943800063496,0.14330747558382037,0.11043193529778914,0.240234375,,
3.966070000000065,1500,,,,-0.15625,-0.142578125,-0.93359375,0.0739503019719766,4.126045883581577,22.387923634270265,1.6732372183307795,3716,0,37.4603070660083,28.778733436133393,76.82460633710978,0.14337135067942508,0.1101444757596655,0.2421875,,
3.9785800000000746,1500,,,,0.03125,0.068359375,-0.97265625,0.0739503019719766,4.126045883581577,22.387823413464133,1.6789090687082846,3718,0,37.587119757504595,28.789788808179665,76.59482555172782,0.14331629561691325,0.10977286661497324,0.2421875,,
3.998225000000093,1500,,,,-0.21875,-0.150390625,-0.97265625,0.0739503019719766,4.126045883581577,22.3876998548532,1.6828276955102852,3721,0,37.674641354518556,28.817586219963413,76.49067166635984,0.14317805287672755,0.10951785432422476,0.244140625,,
4.015210000000079,1500,,,,-0.25,-0.142578125,-1.01953125,0.0739503019719766,4.126045883581577,22.387795303883905,1.6792323872242085,3722,0,37.5943109528279,28.825243571268278,76.67448302866156,0.1431400179977746,0.10975186880692676,0.248046875,,
4.023239999999991,1500,,,,-0.03125,0.138671875,-0.966796875,0.0739503019719766,4.132474552982078,22.388194098666727,1.6791620471943833,3720,0,37.593405835702434,28.80987408533862,76.6354456184385,0.14343952148979014,0.10992551648665652,0.25,,
4.03120000000007,1500,,,,-0.25,-0.21875,-1.00390625,0.0739503019719766,4.132474552982078,22.38808689892146,1.6779798355095727,3719,0,37.56675837202626,28.803746848464513,76.67349565597057,0.14347003446193576,0.11000349064079182,0.25,,
4.039370000000112,1500,,,,-0.0625,0.23828125,-0.912109375,0.0739503019719766,4.132474552982078,22.388279168858247,1.6770105967077964,3719,0,37.5453814082277,28.801317430927906,76.71068011741221,0.14348213629090714,0.1100661225957472,0.25,,
4.047345000000089,1500,,,,-0.125,0.0234375,-0.921875,0.0739503019719766,4.132474552982078,22.388134735718108,1.6791784440426811,3720,0,37.59367325054104,28.806417823132165,76.62570675430763,0.14345673170315584,0.10992473455417406,0.248046875,,
4.055400000000024,1500,,,,-0.03125,0.037109375,-0.94921875,0.0739503019719766,4.132474552982078,22.388128135806745,1.6791099267285332,3719,0,37.59212819370348,28.796321595297027,76.60199881984944,0.14350702881638144,0.1099292525203255,0.248046875,,
4.063430000000051,1500,,,,0.0625,0.162109375,-0.958984375,0.07383858997854799,4.132474552982078,22.38812188322791,1.6790449796242992,3717,0,37.590663651250736,28.742818670247228,76.46265289942782,0.14377415800419593,0.10993353539382324,0.248046875,,
4.0713699999999955,1500,,,,0,0.01171875,-1.08203125,0.07383858997854799,4.132474552982078,22.387985334879755,1.678132253185488,3718,0,37.57000027430543,28.750938323705437,76.52631917431351,0.14373355423933454,0.1099939984777782,0.24609375,,
4.079569999999949,1500,,,,-0.09375,-0.15625,-0.9375,0.07383858997854799,4.132474552982078,22.387986078950902,1.6758760312906666,3717,0,37.51948925858293,28.738036335296425,76.5949561232962,0.14379808365356261,0.11014207908058705,0.248046875,,
4.087944999999949,1500,,,,-0.03125,-0.03515625,-0.9140625,0.07383858997854799,4.132474552982078,22.388052211617467,1.6761824590211272,3717,0,37.52646040876235,28.741006735527836,76.58864284684007,0.1437832220356349,0.11012161839855149,0.248046875,,
4.095859999999986,1500,,,,-0.0625,-0.09375,-1.00390625,0.07383858997854799,4.132474552982078,22.388121547351393,1.6781488196542997,3718,0,37.57059974896473,28.750703119637915,76.52447209185195,0.14373473009637205,0.10999224341889696,0.248046875,,
4.1044100000000325,1500,,,,0.03125,0.283203125,-0.96875,0.07383858997854799,4.132474552982078,22.387915763849524,1.6769933777102266,3716,0,37.54438647671004,28.729716980402006,76.52200415693024,0.14383972371886042,0.11006903936346334,0.248046875,,
4.1135,1500,,,,0.0625,-0.23046875,-0.97265625,0.07383858997854799,4.132474552982078,22.387846879797102,1.6771567296881742,3716,0,37.5479280576801,28.73394279270652,76.52604092712178,0.14381856965452772,0.11005865747462504,0.248046875,,
4.1220749999999535,1500,,,,-0.125,0.158203125,-0.884765625,0.07383858997854799,4.132474552982078,22.387854321445136,1.676083214597615,3717,0,37.52390683903087,28.737352411904702,76.58411618806508,0.14380150591987603,0.11012911237386515,0.248046875,,
4.133610000000102,1500,,,,0.125,0.03125,-1.01953125,0.07383858997854799,4.132474552982078,22.387862307839708,1.6771252987173098,3716,0,37.54725026067767,28.73029281766891,76.51770134485042,0.14383684075926428,0.11006064423604192,0.248046875,,
4.150574999999954,1500,,,,0.15625,0.08203125,-1.07421875,0.07383858997854799,4.132474552982078,22.38808473060707,1.6774142776298526,3714,0,37.55409297590719,28.717856806005823,76.47064415702904,0.14389912801981258,0.11004059013309854,0.25,,
4.158445000000065,1500,,,,-0.28125,-0.201171875,-0.943359375,0.07383858997854799,4.132474552982078,22.387984247252216,1.679315162995049,3713,0,37.59648141530494,28.712978794945982,76.37145209885885,0.14392357485770407,0.10991652403141672,0.251953125,,
4.166170000000042,1500,,,,0.125,0.3203125,-1.02734375,0.07383858997854799,4.132474552982078,22.38791922555195,1.680096710653762,3714,0,37.613869449231956,28.719078583920574,76.3523641796098,0.1438930062086252,0.10986571212939804,0.25390625,,
4.1731950000000655,1500,,,,-0.09375,0.1640625,-0.923828125,0.07383858997854799,4.131694519972918,22.387749232152217,1.679996304901566,3717,0,37.6113359850786,28.74009620219583,76.41338827633717,0.14376063639123254,0.10985237327416579,0.25390625,,
4.181255000000121,1500,,,,-0.03125,-0.146484375,-1.05078125,0.07383858997854799,4.131694519972918,22.38756506147596,1.6794077951394062,3714,0,37.597851278433346,28.719679934903574,76.38649273390149,0.14386283305865089,0.10989177252113118,0.25390625,,
