Time (s),ESC signal (µs),Servo 1 (µs),Servo 2 (µs),Servo 3 (µs),AccX (g),AccY (g),AccZ (g),Torque (N·m),Thrust (N),Voltage (V),Current (A),Motor Electrical Speed (RPM),Motor Optical Speed (RPM),Electrical Power (W),Mechanical Power (W),Motor Efficiency (%),Propeller Mech. Efficiency (N/W),Overall Efficiency (N/W),Vibration (g),App message,90% settling time (s),Max acceleration (RPM/s),
0,1000,,,,-0.09375,0.029296875,-0.978515625,0.02288949816810476,0.1684684633104573,23.038851955467614,0.07942670621343559,0,0,1.8299001257617622,0,0,0,0,0.087890625,,
0,1140,,,,0.03125,0.01953125,-0.970703125,0.02288949816810476,0.1684684633104573,23.03867204512127,0.07719703079788091,0,0,1.7785170754095048,0,0,0,0,0.08984375,,
0.007385000000009313,1140,,,,-0.0625,0.060546875,-0.99609375,0.02288949816810476,0.1684684633104573,23.038836937179333,0.0765034999982531,0,0,1.7625516615832524,0,0,0,0,0.091796875,,
0.014639999999897554,1140,,,,-0.125,0.0546875,-0.98046875,0.02288949816810476,0.1684684633104573,23.039057383878365,0.07649145510434442,0,0,1.7622910235253468,0,0,0,0,0.091796875,,
0.02281000000005588,1140,,,,-0.0625,0.076171875,-0.978515625,0.02288949816810476,0.16335039972473786,23.039103713719182,0.07775690623944219,0,0,1.7914494273084467,0,0,0,0,0.091796875,,
0.03171499999985099,1140,,,,-0.0625,0,-0.953125,0.018378738091988915,0.16335039972473786,23.03893557747477,0.07696804296467932,0,0,1.7732617833875572,0,0,0,0,0.091796875,,
0.039875,1140,,,,-0.03125,0.048828125,-0.994140625,0.018378738091988915,0.16335039972473786,23.039053640103155,0.07586377444510158,0,0,1.7478295687813823,0,0,0,0,0.091796875,,
0.049915000000037256,1140,,,,-0.03125,0.00390625,-1.04296875,0.018378738091988915,0.16335039972473786,23.036174333726834,0.14486580939329494,0,0,3.3371540401803843,0,0,0,0,0.09375,,
0.05819499999983236,1140,,,,0.21875,-0.0234375,-1.00390625,0.018378738091988915,0.16335039972473786,23.033367838707658,0.24769599838347414,0,0,5.705273042942498,0,0,0,0,0.103515625,,
0.0667750000001397,1140,,,,-0.25,0.146484375,-0.966796875,0.018378738091988915,0.16335039972473786,23.030852703118025,0.3000018951029978,0,0,6.909299456773407,0,0,0,0,0.115234375,,
0.0748200000000652,1140,,,,-0.375,0.12890625,-0.98828125,0.018378738091988915,0.16335039972473786,23.02921092144614,0.3613246035875901,0,0,8.321020507126526,0,0,0,0,0.119140625,,
0.08308000000007451,1140,,,,0.03125,0.07421875,-1.01171875,0.018378738091988915,0.16335039972473786,23.027782788225455,0.40993428983671787,0,0,9.439877783805397,0,0,0,0,0.119140625,,
0.09110499999998137,1140,,,,-0.125,-0.171875,-0.95703125,0.018378738091988915,0.16335039972473786,23.02657828025463,0.4496655367967787,0,0,10.354258682983742,0,0,0,0,0.123046875,,
0.10755500000016764,1140,,,,0,0.171875,-0.8125,0.018378738091988915,0.16335039972473786,23.025232970657818,0.5027717437516305,0,0,11.576436530945166,0,0,0,0,0.125,,
0.11674500000011176,1140,,,,-0.078125,0.177734375,-0.974609375,0.018378738091988915,0.16335039972473786,23.021497357606034,0.6030873672948054,0,0,13.883974232582942,0,0,0,0,0.1328125,,
0.1249550000000745,1140,,,,-0.125,0.091796875,-1.06640625,0.018378738091988915,0.16335039972473786,23.020843527003795,0.6436098784667605,0,0,14.816442304617224,0,0,0,0,0.138671875,,
0.13495999999996275,1140,,,,0.0625,-0.078125,-1.109375,0.018378738091988915,0.16335039972473786,23.02006359651281,0.6615404527854509,1,0,15.22870329478696,0.0011923744039361824,0.00782978288338149,0,0.01072648120872218,0.138671875,,
0.14338000000012108,1140,,,,-0.09375,0.041015625,-0.921875,0.018378738091988915,0.16335039972473786,23.019555519992547,0.6714258649079694,1,0,15.455924974808017,0.0027102495561435753,0.01753534363398552,0,0.010568788344339572,0.138671875,,
0.15107500000018625,1140,,,,-0.03125,0.03515625,-0.96875,0.018378738091988915,0.16335039972473786,23.019575223420905,0.6756312102570906,2,0,15.552743467804003,0.0032064526277044204,0.02061663676471069,0,0.01050299582597066,0.138671875,,
0.1612249999998603,1140,,,,-0.03125,0.064453125,-1.001953125,0.018378738091988915,0.16335039972473786,23.019732640974762,0.6806751411429764,2,0,15.66895976446908,0.003462733055350648,0.022099316785551642,0,0.01042509535924338,0.13671875,,
0.1761700000001583,1140,,,,-0.0625,-0.005859375,-0.96875,0.01820986898137269,0.16871088894162709,23.019752433969266,0.677968173733312,2,0,15.606659517451106,0.003525331047536039,0.02258863303575036,0,0.010810185789789121,0.13671875,,
0.1839650000000838,1140,,,,-0.0625,0.0390625,-0.9609375,0.01820986898137269,0.16871088894162709,23.019954281822315,0.6705608576086213,2,0,15.436280285330024,0.0035366012905501767,0.022910968349746864,0,0.010929504117773934,0.134765625,,
0.19161499999999068,1140,,,,-0.03125,0.046875,-0.98046875,0.01820986898137269,0.16871088894162709,23.020238358551214,0.6606843874643777,2,0,15.209112079203381,0.003541129900947319,0.023282949606173168,0,0.011092750718322261,0.134765625,,
0.19857499999995343,1140,,,,-0.03125,0.107421875,-0.974609375,0.01820986898137269,0.16871088894162709,23.02056745843592,0.6530247931726924,2,0,15.033001303263129,0.0035428743985917383,0.023567312522102334,0,0.011222701677342765,0.134765625,,
0.20620999999996276,1140,,,,-0.0625,0.0078125,-0.9765625,0.01820986898137269,0.16871088894162709,23.020852905951678,0.644006772581733,375,0,14.825585182040749,0.7156078336163333,4.826843762519393,0.23575886262877316,0.011379711955383603,0.1328125,,
0.214,1140,,,,-0.03125,0.06640625,-0.97265625,0.01820986898137269,0.16871088894162709,23.02110415234196,0.6328187644349466,532,0,14.568186685613256,1.0143088810649556,6.962492333151054,0.16633088015998843,0.011580774778801862,0.1328125,,
0.22175500000012108,1140,,,,-0.0625,0.0859375,-0.95703125,0.01820986898137269,0.16871088894162709,23.021426968078266,0.6225119865296093,593,0,14.331114234644721,1.1298654924295317,7.884003113296948,0.14931944560838897,0.011772349740523129,0.130859375,,
0.2407050000000745,1140,,,,-0.0625,0.01171875,-0.94140625,0.01820986898137269,0.16871088894162709,23.022645564805483,0.5984170741423158,629,0,13.77714419790646,1.1988423594640867,8.701675341731994,0.14072816797785256,0.012245708291799978,0.130859375,,
0.26123500000010247,1140,,,,-0.125,0.03125,-1.01953125,0.01820986898137269,0.16871088894162709,23.023626738450552,0.566985607299392,674,0,13.054064988534906,1.2844729014986047,9.83963924361284,0.131346398000916,0.012924011722770041,0.12890625,,
0.27017000000015834,1140,,,,-0.01953125,0.07421875,-0.98046875,0.01820986898137269,0.16871088894162709,23.023897351834055,0.5507171662173145,732,0,12.679655504880381,1.3950279861139632,11.002096906946871,0.12093727912340584,0.01330563664578194,0.126953125,,
0.2782150000000838,1140,,,,0,0.078125,-0.98828125,0.01820986898137269,0.16871088894162709,23.02409839994362,0.5384237915188957,748,0,12.396722356801785,1.426902314586568,11.510319207912733,0.1182357665391478,0.013609314146578387,0.126953125,,
0.28590500000002794,1140,,,,-0.0625,0.01953125,-1.001953125,0.01820986898137269,0.16871088894162709,23.024578107658375,0.5256518624463918,755,0,12.102912364333045,1.4394150317690668,11.89312942569909,0.11720795268775148,0.01393969351036644,0.125,,
0.2935,1140,,,,-0.0625,0.052734375,-0.962890625,0.01820986898137269,0.16871088894162709,23.02514139820064,0.5151541582094713,757,0,11.861497334644099,1.444449342340562,12.177630712117024,0.11679945014080642,0.014223405711930653,0.125,,
0.30091999999992547,1140,,,,-0.0625,0.09375,-0.96875,0.01820986898137269,0.16871088894162709,23.025521467940752,0.5024678488004848,758,0,11.56958423950557,1.4462770240339597,12.500682773850194,0.1166518489459635,0.014582277586565807,0.125,,
0.3088599999998696,1140,,,,-0.125,0.076171875,-1.0078125,0.01820986898137269,0.16871088894162709,23.024474426959266,0.5319538542852242,759,0,12.247957914312561,1.447136537289327,11.815329113747614,0.11658256466777096,0.01377461370474478,0.125,,
0.31580499999993483,1140,,,,0,0.0234375,-0.93359375,0.01820986898137269,0.16871088894162709,23.02340383632886,0.5583258292675647,786,0,12.854561039480341,1.4994684054642418,11.664874443078293,0.112513800442093,0.013124593552705819,0.125,,
0.32408000000007453,1140,,,,-0.0625,0.009765625,-0.94921875,0.01820986898137269,0.3164576592397369,23.02264753336616,0.5853222609732481,799,0,13.475668107820056,1.5235378970727835,11.305843130617474,0.2077123646531904,0.023483634110585846,0.126953125,,
0.3319400000001769,1140,,,,0.0625,0.125,-1.03125,0.06846444386316806,0.3164576592397369,23.022130167765116,0.6061530789174524,804,0,13.95493508442919,5.763620317999304,41.30166341246766,0.054906055878015794,0.022677114391799497,0.126953125,,
0.34038999999989755,1140,,,,-0.125,0.083984375,-0.994140625,0.06846444386316806,0.3164576592397369,23.02163915383959,0.6243209462244521,806,0,14.372891540163028,5.7777021866030465,40.198607012778666,0.05477223453529986,0.022017675312962625,0.126953125,,
0.34833499999996276,1140,,,,0,-0.02734375,-0.986328125,0.06846444386316806,0.3164576592397369,23.021112823832656,0.6364671579031288,807,0,14.652182250752043,5.783663852901373,39.4730542790274,0.054715776588742444,0.021597988192065678,0.126953125,,
0.356125,1140,,,,-0.0625,0.06640625,-0.95703125,0.06846444386316806,0.3164576592397369,23.020887977248712,0.6425605745728522,842,0,14.792315005838198,6.034469316001573,40.79462419249389,0.05244167178058022,0.021393382923148817,0.126953125,,
0.3637600000000093,1140,,,,-0.0625,0.05859375,-0.998046875,0.06846444386316806,0.3164576592397369,23.020648877170885,0.6482970716779218,894,0,14.924219255195524,6.412769485675666,42.96887747372921,0.04934804844406381,0.021204302471606307,0.126953125,,
0.3711699999999255,1140,,,,0.0625,0.01171875,-0.8828125,0.06846444386316806,0.3164576592397369,23.020620625077033,0.6523847000931371,914,0,15.018300682448766,6.552704765764706,43.6314660647497,0.04829420377568407,0.02107146913162867,0.126953125,,
0.37933499999996273,1140,,,,-0.0625,0.0703125,-0.9921875,0.06846444386316806,0.3164576592397369,23.020491787479777,0.6541465602812514,923,0,15.058775518762692,6.617803335793247,43.94649038726756,0.047819139249444705,0.021014833433531305,0.126953125,,
0.38996999999997206,1140,,,,0,0.078125,-0.982421875,0.06846444386316806,0.3164576592397369,23.02032564367345,0.6544638414606958,927,0,15.06597075243469,6.647326135040451,44.121459176244784,0.04760675989275967,0.02100479713121683,0.126953125,,
0.3969350000000559,1140,,,,-0.03125,0.013671875,-0.9765625,0.06846444386316806,0.3164576592397369,23.020482294478423,0.6531275406051015,946,0,15.035310984535975,6.783869855492403,45.11958457307406,0.04664854514912669,0.02104762978066885,0.125,,
0.4049150000000373,1140,,,,0,0.08203125,-0.96484375,0.06846444386316806,0.3164576592397369,23.020653337937773,0.6504010112267986,994,0,14.972656210096304,7.127348761647874,47.60243380758177,0.04440047341903478,0.02113570596954897,0.125,,
0.4140250000001397,1140,,,,-0.0625,0.064453125,-0.96875,0.06846444386316806,0.3164576592397369,23.020816976428303,0.6474744013284096,1013,0,14.905389689903805,7.264195161548172,48.73535890489726,0.04356403596021948,0.02123108927867147,0.125,,
0.4220799999998417,1140,,,,-0.03125,0.009765625,-0.94921875,0.06846444386316806,0.3164576592397369,23.021070016665636,0.6434354059855253,1021,0,14.812571532394458,7.322148677713222,49.43198864356535,0.0432192342942932,0.02136412698819092,0.125,,
0.42961000000010247,1140,,,,-0.0625,0.03515625,-0.92578125,0.06846444386316806,0.3164576592397369,23.02134449120795,0.6377550099525326,1024,0,14.68197778511101,7.341263661167041,50.00187146865059,0.04310670122280142,0.021554157339800397,0.123046875,,
0.43714000000013037,1140,,,,-0.0625,0.064453125,-1.021484375,0.06846444386316806,0.3164576592397369,23.02163190360329,0.6323439461362694,1035,0,14.557589564421141,7.421901247140616,50.98303681592864,0.04263835487728381,0.02173832816479191,0.123046875,,
0.44517499999981375,1140,,,,0,0.08203125,-0.9921875,0.06846444386316806,0.3164576592397369,23.021748827729795,0.6244945550157222,1063,0,14.376956789856841,7.6182939662217715,52.989614405717575,0.04153917670319059,0.022011449562330365,0.123046875,,
0.45436000000010246,1140,,,,-0.0625,0.05078125,-1.015625,0.06846444386316806,0.3164576592397369,23.021871504388194,0.6168502445408004,1074,0,14.201047067268743,7.6993956433019095,54.21709826628099,0.04110162328325591,0.022284107484519488,0.123046875,,
0.4619900000002235,1140,,,,0,0.0546875,-1.00390625,0.06846444386316806,0.3164576592397369,23.02207390227059,0.6066262460431457,1078,0,13.965794267462284,7.727123791238597,55.32892468021934,0.04095413348994778,0.02265948167208969,0.123046875,,
0.4703200000000652,1140,,,,-0.125,0.0390625,-0.93359375,0.06846444386316806,0.4903859113117109,23.022299691833428,0.5962336099749295,1079,0,13.726668855186551,7.73808536311236,56.372638145113875,0.06337302941233919,0.035725048552214554,0.123046875,,
0.4786400000001304,1140,,,,-0.03125,0.0703125,-1.015625,0.0973346971383685,0.4903859113117109,23.022482097406535,0.5869695902827547,1090,0,13.51349688400677,11.105379844964677,82.17991198198224,0.04415750907737372,0.036288602093221545,0.123046875,,
0.4874000000001397,1140,,,,-0.03125,-0.0078125,-0.94140625,0.0973346971383685,0.4903859113117109,23.022895686654792,0.5775042110733527,1104,0,13.29581921014567,11.252507959325815,84.63192663404553,0.04358014347417462,0.03688271505207525,0.12109375,,
0.495410000000149,1140,,,,-0.0625,0.0703125,-1.009765625,0.0973346971383685,0.4903859113117109,23.02308107541578,0.5693967940315262,1109,0,13.109268553069649,11.302304855246089,86.21613638847575,0.0433881334464353,0.03740757230859252,0.12109375,,
0.5033400000000838,1140,,,,0,0.046875,-0.9609375,0.0973346971383685,0.4903859113117109,23.02338722672974,0.5610782427705823,1111,0,12.917921647800192,11.321872408269094,87.64469019826505,0.04331314588508792,0.03796167252610789,0.119140625,,
0.5114799999999814,1140,,,,-0.0625,0.0625,-0.98828125,0.0973346971383685,0.4903859113117109,23.0239017046935,0.552412918458468,1112,0,12.718700734990632,11.32955392717916,89.07791891046098,0.043283779261184686,0.03855628979166103,0.119140625,,
0.5192749999999069,1140,,,,-0.0625,0.009765625,-0.96875,0.0973346971383685,0.4903859113117109,23.02416921164074,0.5431694936093215,1122,0,12.506026331462232,11.440687793558634,91.48139857003615,0.04286332431759996,0.03921196855935085,0.119140625,,
0.5274199999999255,1140,,,,-0.0625,0.1171875,-0.953125,0.0973346971383685,0.4903859113117109,23.02448823120534,0.5356967978797231,1127,0,12.33414461827607,11.484307065945105,93.10987848260088,0.04270052241687901,0.03975840453379179,0.119140625,,
0.5351350000000094,1140,,,,-0.03125,-0.001953125,-0.919921875,0.0973346971383685,0.4903859113117109,23.024661081454333,0.5275010089266727,1128,0,12.145531950661857,11.5015195188196,94.69753622600975,0.04263661949269457,0.04037582818964038,0.1171875,,
0.5421950000000652,1140,,,,-0.0625,0.05078125,-1.01171875,0.0973346971383685,0.4903859113117109,23.02480601069525,0.5200681520329923,1129,0,11.974468312900413,11.507832071635592,96.10307339690313,0.04261323142874234,0.04095262507675645,0.1171875,,
0.5513700000001117,1140,,,,-0.03125,0.00390625,-0.97265625,0.0973346971383685,0.4903859113117109,23.024981667319825,0.5121372304781657,1129,0,11.791950342911713,11.51094067861637,97.61693650224484,0.042601723438875014,0.04158649731818859,0.1171875,,
0.5602900000000373,1140,,,,0,0.046875,-0.96875,0.0973346971383685,0.4903859113117109,23.025219400620312,0.5019608094485508,1137,0,11.557757768065848,11.591292867090282,100.29015229162435,0.04230640334384119,0.04242915634264719,0.1171875,,
0.572,1140,,,,-0.0625,0.0546875,-0.9921875,0.0973346971383685,0.4903859113117109,23.02551868002306,0.4939559898504804,1140,0,11.373592871411516,11.620331388532627,102.16939818323645,0.04220068214196042,0.043116182973661495,0.115234375,,
0.5884599999999628,1140,,,,-0.0625,0.07421875,-0.9609375,0.0973346971383685,0.4903859113117109,23.026185375837173,0.47842226723149495,1141,0,11.016239813200713,11.634651327710063,105.61363518764644,0.04214874150493592,0.04451481808920714,0.115234375,,
0.5974350000000559,1140,,,,0,0.03125,-0.966796875,0.0973346971383685,0.4903859113117109,23.026652630371977,0.47049269592809423,1146,0,10.833871874263453,11.685588874213623,107.86161226415717,0.0419650149077071,0.045264141666346784,0.115234375,,
0.6054500000001862,1140,,,,0,0.013671875,-0.9765625,0.0973346971383685,0.4903859113117109,23.02711139045199,0.46392008747104146,1148,0,10.682739530463902,11.702774945393385,109.5484441235383,0.04190338732479374,0.0459045088493715,0.115234375,,
0.6134550000000745,1140,,,,0,0.03515625,-0.984375,0.0973346971383685,0.4903859113117109,23.0272881535628,0.45706320564352976,1149,0,10.524926140744691,11.709592566666783,111.2558170012799,0.04187899011172023,0.04659281260067955,0.11328125,,
0.62125,1140,,,,-0.0625,0.041015625,-1.0546875,0.0973346971383685,0.8315432448779262,23.027322768485128,0.4512183499074006,1149,0,10.390350582380975,11.712224853921382,112.72213349356971,0.07099788940608635,0.08003033567394566,0.11328125,,
0.6291350000000093,1140,,,,-0.0625,-0.00390625,-0.931640625,0.0905061574326055,0.8315432448779262,23.027646269881277,0.44692904669319333,1152,0,10.291723994986109,10.916205938622836,106.06780694799977,0.07617511519600663,0.08079727412851674,0.115234375,,
0.6373899999998975,1140,,,,-0.0625,0.01171875,-0.96484375,0.0905061574326055,0.8315432448779262,23.02799147267423,0.44119030950768023,1153,0,10.159726685169366,10.926516610495032,107.54734796601355,0.0761032334933917,0.08184700933852573,0.11328125,,
0.645469999999972,1140,,,,-0.0625,0.015625,-0.9609375,0.0905061574326055,0.8315432448779262,23.028188853981163,0.43668495118100814,1153,0,10.0560635254878,10.93057862288859,108.69639591261797,0.07607495207405378,0.08269073109674788,0.11328125,,
0.653405000000028,1140,,,,-0.03125,0.0234375,-0.99609375,0.0905061574326055,0.8315432448779262,23.02831128535874,0.4312098003153334,1153,0,9.93003351095888,10.932178848987157,110.09206400887066,0.07606381640517772,0.0837402254443781,0.11328125,,
0.6615400000000372,1140,,,,-0.125,0.08984375,-0.98828125,0.0905061574326055,0.8315432448779262,23.028492026682333,0.4260490240855922,1154,0,9.81126655413085,10.932803872539134,111.43111658643177,0.0760594678705053,0.08475391431780237,0.115234375,,
0.6692600000000093,1140,,,,-0.03125,0.015625,-0.970703125,0.0905061574326055,0.8315432448779262,23.028662044834885,0.42077451141807937,1156,0,9.689874020527467,10.952217935965498,113.0274543586823,0.07592464373332625,0.08581569204267749,0.11328125,,
0.6875699999998324,1140,,,,-0.0625,0.015625,-0.96484375,0.0905061574326055,0.8315432448779262,23.02927592318919,0.41033322619934615,1157,0,9.449677086597145,10.96355705149045,116.02044123857421,0.07584611827827185,0.08799700108878188,0.11328125,,
0.696155000000028,1140,,,,-0.0625,0.0546875,-1.01171875,0.0905061574326055,0.8315432448779262,23.029398342161898,0.40829177108769515,1157,0,9.402713836205312,10.96443921078672,116.60930452406153,0.07584001597271488,0.08843651517672,0.11328125,,
0.7031800000001677,1140,,,,-0.09375,0.064453125,-0.931640625,0.0905061574326055,0.8315432448779262,23.029525386426467,0.4057464302933996,1157,0,9.344147716893762,10.96769432506327,117.37501008502056,0.07581750732947502,0.08899080687418251,0.11328125,,
0.710625,1140,,,,0,-0.03125,-1.01953125,0.0905061574326055,0.8315432448779262,23.029630798005275,0.4030815433206462,1158,0,9.282819124164652,10.971539909835585,118.19189583555413,0.07579093287829888,0.08957874044031378,0.11328125,,
0.7180300000000279,1140,,,,-0.0625,0.044921875,-0.95703125,0.0905061574326055,0.8315432448779262,23.029844051860785,0.3998408188974641,1158,0,9.208271704776909,10.973367776222187,119.16859241381432,0.0757783081580268,0.09030394318692318,0.11328125,,
0.7284600000001956,1140,,,,-0.0625,0.0546875,-1.09375,0.0905061574326055,0.8315432448779262,23.029818798904053,0.39530301619789404,1158,0,9.103756833697734,10.974098858239993,120.54472739890363,0.07577325989309411,0.09134066957939306,0.11328125,,
0.7365649999999441,1140,,,,-0.0625,0.02734375,-0.978515625,0.0905061574326055,0.8315432448779262,23.02978923288007,0.38999610170321863,1158,0,8.981528023869986,10.977616002935243,122.22436954781305,0.07574898271679248,0.09258371656448149,0.11328125,,
0.7449450000000651,1140,,,,0,0.015625,-0.96484375,0.0905061574326055,0.8315432448779262,23.02989649956297,0.38625467169725974,1159,0,8.895405111660565,10.987217406817788,123.51564958424619,0.07568278792425978,0.09348008712811691,0.11328125,,
0.7529849999998696,1140,,,,-0.09375,0.021484375,-0.998046875,0.0905061574326055,0.8315432448779262,23.03030499152336,0.3841261909374715,1160,0,8.846543332522105,10.991295245164126,124.24395418668644,0.07565470914301778,0.09399640216772187,0.11328125,,
0.762125,1140,,,,-0.03125,0.0078125,-0.939453125,0.0905061574326055,0.8315432448779262,23.030388699375923,0.38210307002656124,1160,0,8.799982225936564,10.99268111325922,124.91708313750931,0.07564517121077316,0.09449374141087276,0.11328125,,
0.7703600000001024,1140,,,,-0.03125,0.009765625,-0.984375,0.0905061574326055,1.0228435452930673,23.0302575019893,0.3787690963088353,1160,0,8.723149821788262,10.993255681293068,126.02392376472366,0.09304282324967782,0.11725621664072056,0.111328125,,
0.7786799999999348,1140,,,,-0.125,0.02734375,-0.91015625,0.0739591424880202,1.0228435452930673,23.03034324069644,0.3763777700085159,1160,0,8.668109231464022,8.98531580637976,103.65946674696163,0.11383501340785677,0.1180007678699166,0.111328125,,
0.7876149999999907,1140,,,,0,-0.05078125,-0.984375,0.0739591424880202,1.0228435452930673,23.030435230518155,0.37477788039316823,1160,0,8.63129770022574,8.986122003705816,104.11090331724738,0.11382480060600707,0.11850402810996963,0.111328125,,
0.7987550000001211,1140,,,,-0.0625,-0.015625,-0.984375,0.0739591424880202,1.0228435452930673,23.03026084668238,0.370332259769914,1160,0,8.528848542442459,8.986442396616678,105.3652477458953,0.1138207424195096,0.11992750723653364,0.111328125,,
0.8074550000000745,1140,,,,-0.0625,0.00390625,-0.96484375,0.0739591424880202,1.0228435452930673,23.030297529022274,0.36866471171291776,1160,0,8.49045799919972,8.986518691754783,105.84256694517329,0.1138197760865435,0.12046977270124615,0.111328125,,
0.8154899999999907,1140,,,,-0.03125,-0.001953125,-0.96484375,0.0739591424880202,1.0228435452930673,23.030185144793002,0.36614078222180424,1161,0,8.432290003627486,8.990083997288915,106.61497639931112,0.11377463721156778,0.12130080261151482,0.111328125,,
0.8236950000000652,1140,,,,-0.0625,-0.04296875,-0.94921875,0.0739591424880202,1.0228435452930673,23.030143198553855,0.36372137641905294,1161,0,8.376555383305899,8.991497316132604,107.3412268490728,0.1137567536674759,0.12210789501034625,0.111328125,,
0.8325549999999348,1140,,,,0,-0.015625,-0.970703125,0.0739591424880202,1.0228435452930673,23.030099280550445,0.3640183986876817,1161,0,8.383379861724304,8.99207986853235,107.26079477308627,0.11374938392979504,0.12200849325258746,0.111328125,,
0.8404699999999721,1140,,,,-0.03125,0.017578125,-1.005859375,0.0739591424880202,1.0228435452930673,23.030094457972737,0.36427635628819804,1161,0,8.389318894123331,8.992281925925427,107.18727037810505,0.11374682797078818,0.12192212004356673,0.111328125,,
0.8487949999999255,1140,,,,0,0.015625,-0.953125,0.0739591424880202,1.0228435452930673,23.03025162844772,0.36325154003960813,1162,0,8.365774371533327,8.995883842415752,107.531992173092,0.11370128418847983,0.1222652560142612,0.111328125,,
0.8570949999999721,1140,,,,0,0.029296875,-1.0390625,0.0739591424880202,1.0228435452930673,23.030237977142363,0.35929450182069783,1162,0,8.27463788080948,9.001160727553989,108.78011651034856,0.11363462738333069,0.12361188006368756,0.111328125,,
0.8661299999998883,1140,,,,-0.03125,0.0390625,-0.935546875,0.0739591424880202,1.0228435452930673,23.030454707566708,0.3563793916795027,1162,0,8.207579438784963,9.002949944936033,109.69068300932356,0.11361204400213232,0.12462182704679219,0.109375,,
0.8742700000000186,1140,,,,-0.0625,0.0390625,-0.94140625,0.0739591424880202,1.0228435452930673,23.03054198968834,0.3548998814844035,1163,0,8.17353662266197,9.003709511532046,110.1568381864019,0.11360245951771307,0.12514087750669992,0.109375,,
0.8855650000001769,1140,,,,-0.03125,0.078125,-1.009765625,0.0739591424880202,1.0228435452930673,23.03073928557029,0.35330123648954254,1163,0,8.136788666860268,9.003954310247122,110.65734503980262,0.11359937090407052,0.12570604782436248,0.109375,,
0.8954750000000932,1140,,,,-0.041015625,0.068359375,-0.97265625,0.0739591424880202,1.0228435452930673,23.030836517495477,0.3525188431135021,1163,0,8.118803845083704,9.006236847330989,110.93058804203855,0.11357058032469892,0.12598451259694426,0.109375,,
0.9037349999998696,1140,,,,0,0.033203125,-0.916015625,0.0739591424880202,1.0228435452930673,23.030976647018175,0.35101942425664756,1163,0,8.084320162704614,9.006764544095034,111.41029007789587,0.11356392634507786,0.12652189976489928,0.109375,,
0.9107400000002235,1140,,,,-0.0625,0.0703125,-1.1015625,0.0739591424880202,1.0228435452930673,23.030935004468063,0.3492924810644286,1163,0,8.044532428944247,9.00692513099812,111.96331434492303,0.11356190158313427,0.12714766884559675,0.109375,,
0.9181450000000186,1140,,,,0,0.05078125,-0.935546875,0.0739591424880202,1.0228435452930673,23.030893630074196,0.348730577909943,1163,0,8.031576845398199,9.006997243771803,112.14481809923147,0.11356099237183041,0.12735276832707135,0.107421875,,
0.9262050000000746,1140,,,,0,0.0078125,-0.94140625,0.0739591424880202,1.1078950183899778,23.030752144176862,0.34654774298609264,1163,0,7.981255174836606,9.006438787458084,112.84489206476806,0.1230114415403319,0.13881212843350282,0.107421875,,
0.934589999999851,1140,,,,0,0.046875,-0.970703125,0.06354309169285578,1.1078950183899778,23.030878955911742,0.3455283545461517,1163,0,7.957821709387777,7.737825040742103,97.23546622832545,0.14317912495521148,0.13922088969183655,0.107421875,,
0.9425600000000559,1140,,,,-0.0625,0.0859375,-0.99609375,0.06354309169285578,1.1078950183899778,23.030934243048076,0.3438089341715085,1163,0,7.918240955076457,7.737749933436617,97.72056669323601,0.14318051473885268,0.13991681039709913,0.107421875,,
0.9500400000000373,1140,,,,-0.0625,0.109375,-0.9296875,0.06354309169285578,1.1078950183899778,23.030921575953666,0.3419035257113628,1163,0,7.874353287200455,7.737720820838957,98.2648420590477,0.14318105344486376,0.14069663602607604,0.107421875,,
0.9577150000000838,1140,,,,-0.03125,0.04296875,-0.966796875,0.06354309169285578,1.1078950183899778,23.030876863200085,0.3425980470942626,1163,0,7.890333436200786,7.740752544923422,98.104251328707,0.14312497550597494,0.14041168568453197,0.10546875,,
0.9648350000001956,1140,,,,-0.0625,0.0234375,-0.94921875,0.06354309169285578,1.1078950183899778,23.03074902689034,0.3432010656439338,1164,0,7.904177608606757,7.744786885180988,97.98346227377013,0.14305042021360764,0.1401657545224699,0.10546875,,
0.9723400000000838,1140,,,,-0.03125,0.025390625,-0.990234375,0.06354309169285578,1.1078950183899778,23.03071666692853,0.3409408260556048,1164,0,7.852111565075198,7.746487772791832,98.65483581826369,0.14301901079367388,0.1410951702874038,0.10546875,,
0.9807200000002049,1140,,,,-0.0625,0.0546875,-0.8984375,0.06354309169285578,1.1078950183899778,23.03068188129799,0.3394617094709217,1164,0,7.818034641706399,7.747274940745375,99.09491701938047,0.14300447923478316,0.14171017003170552,0.10546875,,
0.9896999999999534,1140,,,,-0.0625,0.046875,-0.970703125,0.06354309169285578,1.1078950183899778,23.030608850088438,0.33754351682892,1164,0,7.7738327059701,7.747604855251983,99.662613646188,0.14299838970736262,0.14251593265431908,0.10546875,,
0.9970949999999721,1140,,,,-0.0625,0.04296875,-0.96484375,0.06354309169285578,1.1078950183899778,23.03061173881806,0.336549786136825,1165,0,7.750947455299469,7.751273001554841,100.00420008337368,0.14293071836945279,0.14293672157879087,0.103515625,,
1.0049099999999163,1140,,,,-0.03125,0.021484375,-0.982421875,0.06354309169285578,1.1078950183899778,23.030854768516594,0.3344987251958556,1165,0,7.703791560239693,7.75267107236398,100.63448643102653,0.14290494308978252,0.1438116555629534,0.103515625,,
1.0146800000001677,1140,,,,-0.09375,0.068359375,-0.96484375,0.06354309169285578,1.1078950183899778,23.030918070781407,0.33425742901851974,1165,0,7.69825546227556,7.753326464951403,100.71536990355429,0.14289286326303582,0.14391507580114657,0.103515625,,
1.0233349999999628,1140,,,,-0.0625,0.05078125,-0.97265625,0.06354309169285578,1.1078950183899778,23.03115729098494,0.3334430627463406,1165,0,7.679579625698731,7.753567164775269,100.9634321497097,0.14288842733228446,0.14426506037941825,0.103515625,,
1.0313349999999628,1140,,,,-0.0625,0.046875,-1.00390625,0.06354309169285578,1.1078950183899778,23.031199171937487,0.3313406958614019,1165,0,7.631173560152311,7.753813537758242,101.60709197136231,0.1428838871343673,0.1451801626128741,0.103515625,,
1.042594999999972,1140,,,,-0.0625,0,-0.9453125,0.06354309169285578,1.1078950183899778,23.03123916578137,0.3297694985647991,1165,0,7.595000191025684,7.754252876289911,102.09680949649483,0.14287579165461262,0.1458716248222187,0.1015625,,
1.0599600000001956,1140,,,,-0.09375,0.017578125,-0.96484375,0.06354309169285578,1.1078950183899778,23.03133012699682,0.3251679768733045,1165,0,7.489051022096744,7.754502933789237,103.54453335822211,0.14287118437501256,0.14793530116447187,0.1015625,,
1.0695799999998417,1140,,,,-0.09375,0.087890625,-0.939453125,0.06354309169285578,1.1440569612432723,23.03152909893027,0.3267580537862309,1165,0,7.5257376240874,7.751715457570181,103.00273335014364,0.147587584645668,0.15201924627049498,0.1015625,,
1.0775200000000187,1140,,,,-0.0625,0.060546875,-0.974609375,0.06354309169285578,1.1440569612432723,23.031551758569147,0.32723197065749055,1164,0,7.536660069256574,7.748359248082401,102.80892566309825,0.14765151235423277,0.1517989335767035,0.1015625,,
1.0855800000000746,1140,,,,-0.0625,0.046875,-1.03125,0.05922907781352637,1.1440569612432723,23.031574311474195,0.32802965878244134,1164,0,7.555039462615321,7.2210292396486295,95.57897447631508,0.1584340574279327,0.15142964731083416,0.1015625,,
1.0941149999999906,1140,,,,0,-0.03125,-0.88671875,0.05922907781352637,1.1440569612432723,23.03153001131023,0.3277076158337957,1164,0,7.54760778901099,7.220537547449562,95.66657077706623,0.15844484620779736,0.1515787509399962,0.1015625,,
1.1027099999999628,1140,,,,-0.0625,0.021484375,-0.998046875,0.05922907781352637,1.1440569612432723,23.031408842265538,0.32664323359496117,1164,0,7.523053858485197,7.220330920368044,95.97606312793157,0.15844938048697577,0.15207347744199637,0.1015625,,
1.1112899999998045,1140,,,,-0.09375,0.015625,-0.970703125,0.05922907781352637,1.1440569612432723,23.03143783689314,0.32808686899918127,1164,0,7.5563123284555465,7.217891907309764,95.52135477683527,0.1585029224508964,0.15140413888597282,0.1015625,,
1.1194499999999534,1140,,,,0,0.015625,-1.03125,0.05922907781352637,1.1440569612432723,23.031465675169578,0.3262634796855045,1164,0,7.514326133438084,7.216924540037802,96.04220540712397,0.15852416841776756,0.15225010745172748,0.1015625,,
1.1265200000000186,1140,,,,-0.03125,0.005859375,-0.958984375,0.05922907781352637,1.1440569612432723,23.03162912372147,0.3249107719881698,1163,0,7.483224398733557,7.216535913561118,96.43618217278673,0.15853270529609526,0.15288288848278955,0.1015625,,
1.1345999999998604,1140,,,,0,0.033203125,-0.974609375,0.05922907781352637,1.1440569612432723,23.03164685183684,0.32484918742986313,1163,0,7.481811764990763,7.216393152328225,96.45248208589668,0.15853584153382289,0.15291175415513608,0.1015625,,
1.1428899999998976,1140,,,,-0.0625,0.0234375,-0.95703125,0.05922907781352637,1.1440569612432723,23.03176192506851,0.3257444509778564,1164,0,7.502468643334139,7.21751945505028,96.20192763435229,0.15851110182221215,0.152490735467419,0.1015625,,
1.1502949999999255,1140,,,,0,0.060546875,-0.9609375,0.05922907781352637,1.1440569612432723,23.03190019101933,0.326778366320618,1164,0,7.526326717680826,7.219126534713808,95.91832517388139,0.15847581500919442,0.15200734756247783,0.099609375,,
1.1591049999999814,1140,,,,0,0.0078125,-0.9765625,0.05922907781352637,1.1440569612432723,23.032005321922483,0.3262942329235304,1164,0,7.515210509207366,7.219793256763571,96.0690754825582,0.15846118033525525,0.15223219094682908,0.099609375,,
1.1664150000000373,1140,,,,0,0.05859375,-0.982421875,0.05922907781352637,1.1440569612432723,23.031875239877618,0.32478950271354334,1164,0,7.480511305720223,7.220048413192661,96.51811377748483,0.15845558031893825,0.15293833729900666,0.099609375,,
1.1747700000000185,1140,,,,-0.0625,0.091796875,-1.01171875,0.05922907781352637,1.1440569612432723,23.031881458192835,0.3224858189382915,1164,0,7.427455153734967,7.220150212914483,97.20893715909898,0.15845334619173562,0.15403081372601385,0.099609375,,
1.1820849999999627,1140,,,,0.0625,0.00390625,-0.953125,0.05922907781352637,1.1440569612432723,23.03195186284947,0.3215944277881718,1163,0,7.406947380177794,7.2150031735575,97.40859227468029,0.15856638364847347,0.15445728213284685,0.099609375,,
1.1930700000000651,1140,,,,-0.03125,0.0546875,-1.025390625,0.05922907781352637,1.1440569612432723,23.03225616119843,0.3200598363521748,1163,0,7.371700137774538,7.212913800037327,97.84600112905369,0.1586123157658354,0.15519580827505752,0.099609375,,
1.208785000000149,1140,,,,0,0.0390625,-0.95703125,0.05922907781352637,1.1440569612432723,23.032287194594378,0.31660306288553497,1163,0,7.2920926710678655,7.2117698084141075,98.89849366598908,0.1586374761862864,0.15689007433797938,0.09765625,,
1.2161899999999441,1140,,,,-0.03125,0.05078125,-0.951171875,0.05922907781352637,1.1440569612432723,23.032273507418925,0.31725099251397276,1162,0,7.307011630081934,7.210030290240982,98.67276330255595,0.15867574964168898,0.15656974686250005,0.09765625,,
1.225160000000149,1140,,,,0,0.05859375,-0.994140625,0.05922907781352637,1.1602991695671299,23.032260167166406,0.31756302023068533,1162,0,7.314194101424273,7.207665576625196,98.54353708252926,0.1609812715687081,0.158636639044237,0.09765625,,
1.2334549999998417,1140,,,,0,0.00390625,-1.05078125,0.05765345517812891,1.1602991695671299,23.032172300713565,0.318257363683392,1162,0,7.330158436326745,7.01496052795286,95.69998505336761,0.16540352079582318,0.15829114467934657,0.09765625,,
1.2495749999999535,1140,,,,-0.03125,0.04296875,-0.9609375,0.05765345517812891,1.1602991695671299,23.032213800235162,0.3189208118046026,1162,0,7.3454523228281685,7.0145082064385305,95.49457130963697,0.16541418662852309,0.15796156840623096,0.09765625,,
1.2578899999998976,1140,,,,0,0.0625,-0.9140625,0.05765345517812891,1.1602991695671299,23.03213800243789,0.3190447821175768,1162,0,7.348283450689757,7.014918456311132,95.46336234012131,0.16540451279561777,0.15790070937699288,0.095703125,,
1.2727450000001117,1140,,,,-0.0625,0.0390625,-0.82421875,0.05765345517812891,1.1602991695671299,23.031973811910078,0.3198585332704964,1162,0,7.366973361802041,7.015139977297461,95.22418003669124,0.16539928972509652,0.15750011742723447,0.09765625,,
1.2810700000000652,1140,,,,-0.03125,0.03515625,-1.0234375,0.05765345517812891,1.1602991695671299,23.031876313961558,0.32036645021119076,1162,0,7.378640456407069,7.015167675293825,95.07398709476851,0.1653986366788491,0.15725107849097203,0.095703125,,
1.2895050000001211,1140,,,,-0.0625,0.046875,-0.962890625,0.05765345517812891,1.1602991695671299,23.03173972412624,0.32205750607945877,1162,0,7.417544656223298,7.016306474826857,94.59068735016238,0.16537179123090723,0.15642631400859072,0.095703125,,
1.2965900000000838,1140,,,,-0.03125,0.0390625,-0.935546875,0.05765345517812891,1.1602991695671299,23.031751222003276,0.32069621581315927,1163,0,7.386195460446557,7.01870409933806,95.02461906029387,0.16531529939787012,0.15709023350121037,0.095703125,,
1.3039599999999627,1140,,,,-0.125,0.04296875,-1.00390625,0.05765345517812891,1.1602991695671299,23.031761951736968,0.32110056082634103,1163,0,7.395511679521523,7.019721358903203,94.91867044630733,0.16529134281028227,0.1568923449583679,0.095703125,,
1.3126750000000467,1140,,,,0,0.025390625,-0.931640625,0.05765345517812891,1.1602991695671299,23.03167556272792,0.32026510018506077,1163,0,7.376241881526873,7.020202088961172,95.17315459167126,0.16528002397418554,0.15730221272610292,0.095703125,,
1.3209299999999349,1140,,,,-0.0625,0.0625,-1.05078125,0.05765345517812891,1.1602991695671299,23.031839153290708,0.31819422563391436,1163,0,7.328598224306207,7.020402174435911,95.79461118705996,0.16527531339903043,0.158324843858796,0.095703125,,
1.3337600000000094,1140,,,,0,0.01953125,-0.9609375,0.05765345517812891,1.1602991695671299,23.032071518813638,0.3220266286130045,1163,0,7.416940341177158,7.020486905506208,94.65475765700944,0.16527331867211384,0.15643905926078627,0.095703125,,
1.343719999999972,1140,,,,-0.041015625,0.015625,-0.943359375,0.05765345517812891,1.1602991695671299,23.032068365413082,0.32136573070645663,1163,0,7.4017174799320395,7.020503003485146,94.849648375793,0.16527293970120507,0.1567608021669294,0.095703125,,
1.3609550000000745,1140,,,,-0.0625,0.03125,-0.94140625,0.05765345517812891,1.1602991695671299,23.03224816830287,0.32155201569944347,1163,0,7.406065824607603,7.020813375258887,94.7981498075717,0.1652656334173453,0.15666876274740726,0.095703125,,
1.3688499999998602,1140,,,,-0.0625,0.068359375,-1.0078125,0.05765345517812891,1.147289740992436,23.03223654996274,0.32042271877615713,1163,0,7.3800518548346385,7.021539850786343,95.142147899497,0.16339574585821812,0.15545822218591213,0.095703125,,
1.377160000000149,1140,,,,-0.09375,0.068359375,-0.97265625,0.05765345517812891,1.147289740992436,23.032224741676107,0.31894790003610496,1163,0,7.346079714517214,7.02184618553633,95.58630532772278,0.1633886175626625,0.1561771428541919,0.095703125,,
1.385440000000177,1140,,,,0,0.0078125,-0.953125,0.05698255191276109,1.147289740992436,23.032284929060552,0.31837706894459644,1163,0,7.332951366811101,6.940256057108267,94.64478502502865,0.1653094254090773,0.1564567503045313,0.095703125,,
1.3928449999999721,1140,,,,-0.0625,0.037109375,-1,0.05698255191276109,1.147289740992436,23.03227270953561,0.3191643438531384,1163,0,7.35108020678548,6.940295087402258,94.41190807571324,0.1653084957547338,0.15607090505330362,0.095703125,,
1.400940000000177,1140,,,,0,0.015625,-0.96875,0.05698255191276109,1.147289740992436,23.032325016101655,0.319490341887061,1163,0,7.358605393848225,6.9378025403239265,94.28148635506275,0.16536788620375883,0.1559113010668526,0.09375,,
1.4090100000000094,1140,,,,-0.09375,0.0546875,-0.998046875,0.05698255191276109,1.147289740992436,23.032308455063013,0.3190347957863526,1162,0,7.34810782444931,6.934237655616902,94.36766336695086,0.16545290167017904,0.15613403727896677,0.095703125,,
1.416719999999972,1140,,,,-0.0625,0.0390625,-0.9609375,0.05698255191276109,1.147289740992436,23.03229430616988,0.3181401319326434,1162,0,7.327497149276358,6.932950737197072,94.61553646434035,0.16548361361302194,0.1565732087805369,0.095703125,,
1.4251799999999348,1140,,,,-0.0625,0.07421875,-1.09375,0.05698255191276109,1.147289740992436,23.032213781089908,0.3159369835468871,1162,0,7.276728146404588,6.9324005875246915,95.26809917929904,0.16549674625800753,0.15766560436359145,0.095703125,,
1.432725000000093,1140,,,,-0.0625,0.087890625,-0.951171875,0.05698255191276109,1.147289740992436,23.032007590000752,0.3150386779759233,1162,0,7.2559732222852675,6.9321867520580875,95.53765621360434,0.16550185129559858,0.15811658971793965,0.095703125,,
1.440744999999879,1140,,,,-0.0625,0.02734375,-0.99609375,0.05698255191276109,1.147289740992436,23.03220249437177,0.31482174445320166,1161,0,7.251038167877503,6.930287116300302,95.57648099277499,0.1655472164052145,0.15822420382159794,0.095703125,,
1.4498500000000931,1140,,,,-0.125,0.06640625,-0.93359375,0.05698255191276109,1.147289740992436,23.03219274817818,0.3147211956275239,1161,0,7.248719239630222,6.929534386614057,95.59667242633545,0.16556519918692986,0.15827482111873914,0.095703125,,
1.4589050000000279,1140,,,,-0.0625,0.048828125,-0.994140625,0.05698255191276109,1.147289740992436,23.032180896408583,0.3140618265587796,1161,0,7.23352880195831,6.929200871040211,95.79281510794968,0.16557316815383433,0.1586071988379771,0.095703125,,
1.4740849999999628,1140,,,,-0.0625,0.0546875,-0.953125,0.05698255191276109,1.147289740992436,23.03203065294526,0.31276489270594393,1161,0,7.203610595968436,6.928638646874417,96.18285933934423,0.16558660358337357,0.15926593000939374,0.095703125,,
1.482030000000028,1140,,,,-0.09375,0.02734375,-0.98828125,0.05698255191276109,1.147289740992436,23.03194297459627,0.3140793676086343,1161,0,7.233858084259324,6.928018847451021,95.77211450313354,0.16560141741163864,0.15859997910228665,0.095703125,,
1.4926400000001303,1140,,,,-0.0625,0.0625,-0.958984375,0.05698255191276109,1.147289740992436,23.031798544887046,0.31688955715565775,1161,0,7.298536441387578,6.927711178561093,94.91918323893461,0.16560877199137675,0.15719449374624436,0.095703125,,
1.5059450000000651,1140,,,,-0.03125,0.060546875,-0.9921875,0.05698255191276109,1.147289740992436,23.031566505948515,0.319820650726779,1161,0,7.365970587189542,6.927596352038553,94.04865618234503,0.16561151699533247,0.15575540621730613,0.095703125,,
1.5145600000000559,1140,,,,-0.09375,0.05859375,-1.021484375,0.05698255191276109,1.147289740992436,23.031335441199293,0.3176341625543028,1162,0,7.315538945372571,6.932960551192246,94.77033206935049,0.16548337936166954,0.15682914814063725,0.095703125,,
1.5232549999998883,1140,,,,-0.0625,0.0078125,-0.92578125,0.05698255191276109,1.1415189830579737,23.031368245594074,0.3185707066420461,1163,0,7.337119256932086,6.938344627496036,94.56497004516741,0.16452324644328511,0.15558135871642953,0.095703125,,
1.531630000000121,1140,,,,-0.03125,-0.015625,-0.98046875,0.05691058623818023,1.1415189830579737,23.031399338630095,0.320198810613068,1163,0,7.374626674983957,6.931689033931889,93.99376184621534,0.16468121657939774,0.15479007051708918,0.095703125,,
1.540530000000028,1140,,,,-0.0625,0.033203125,-0.970703125,0.05691058623818023,1.1415189830579737,23.031436611881684,0.32000811228225834,1163,0,7.37024655331675,6.932619960794572,94.06225301478906,0.16465910283752816,0.15488206192291742,0.095703125,,
1.5584799999999814,1140,,,,0,0.01171875,-1.00390625,0.05691058623818023,1.1415189830579737,23.03129096357581,0.3200477862207074,1165,0,7.371113686697421,6.94123378128747,94.16804673375543,0.16445476683631352,0.15486384169030826,0.095703125,,
1.576440000000177,1140,,,,0.03125,0.015625,-0.94921875,0.05691058623818023,1.1415189830579737,23.031219787459985,0.3195055927283115,1165,0,7.35860352944842,6.94331573721964,94.35643202454327,0.16440545501032913,0.15512712140146226,0.09375,,
1.5956999999999535,1140,,,,-0.03125,0.095703125,-0.986328125,0.05691058623818023,1.1415189830579737,23.031622726555263,0.319234374866775,1166,0,7.352485683279276,6.946047380034704,94.4720966384351,0.16434079996907108,0.1552561993631582,0.09375,,
1.6146799999999348,1140,,,,-0.03125,0.099609375,-1.025390625,0.05691058623818023,1.1415189830579737,23.031650134105185,0.3175061696691986,1166,0,7.312691015240821,6.946573303934208,94.99339284890385,0.16432835775467475,0.15610108244405035,0.095703125,,
1.632905000000028,1140,,,,-0.03125,0.0546875,-0.982421875,0.05691058623818023,1.1415189830579737,23.031620475993922,0.3163284563913144,1166,0,7.2855569533617475,6.947215422699027,95.35599635239141,0.16431316917685101,0.15668245960677676,0.09375,,
1.6452050000000744,1140,,,,-0.0625,0.0234375,-0.95703125,0.05691058623818023,1.1415189830579737,23.031499127841,0.3158985251654716,1166,0,7.275616606834817,6.947348177766017,95.4881016028192,0.16431002935929426,0.15689652777822494,0.09375,,
1.6673000000000466,1140,,,,-0.041015625,0.03515625,-0.94921875,0.05691058623818023,1.1415189830579737,23.031695892890337,0.31588193763052647,1165,0,7.275296725563238,6.940644541020087,95.40015758577542,0.16446872856136804,0.15690342622686634,0.091796875,,
1.6752950000001583,1140,,,,-0.0625,0.03515625,-0.94921875,0.05691058623818023,1.1384905683368582,23.03188370406278,0.3167867610368291,1164,0,7.296195839186974,6.938909381474363,95.10311310733096,0.16407341640408546,0.1560389267818395,0.091796875,,
1.683630000000121,1140,,,,-0.0625,0.041015625,-0.927734375,0.05672755005296403,1.1384905683368582,23.03174550601024,0.3149203379379284,1164,0,7.253165078053108,6.9157502930493635,95.34803383939645,0.1646228565367798,0.15696465695806988,0.09375,,
1.6918249999999535,1140,,,,-0.03125,0.03515625,-0.96484375,0.05672755005296403,1.1384905683368582,23.031559891849692,0.3140603799863813,1164,0,7.233300451313414,6.915458999539444,95.6058585715701,0.164629790793739,0.15739572495293383,0.091796875,,
1.699809999999823,1140,,,,-0.0625,0.03125,-1.00390625,0.05672755005296403,1.1384905683368582,23.03158169585903,0.3154904153364534,1163,0,7.266243275082022,6.909429883946134,95.08943786179715,0.1647734454881884,0.15668214306023312,0.091796875,,
1.7080500000000465,1140,,,,-0.09375,0.087890625,-0.94140625,0.05672755005296403,1.1384905683368582,23.03166798379369,0.3153564209130966,1163,0,7.263184383027934,6.90705734304205,95.09681950498111,0.16483004437247614,0.1567481297868739,0.091796875,,
1.7160750000001863,1140,,,,-0.03125,0.033203125,-0.9453125,0.05672755005296403,1.1384905683368582,23.031684280408477,0.314805367950737,1163,0,7.250497844419196,6.906126726679912,95.25037969628043,0.16485225559771652,0.15702239939470772,0.091796875,,
1.724280000000028,1140,,,,-0.125,0.08203125,-0.9375,0.05672755005296403,1.1384905683368582,23.031569557064465,0.3153416609321247,1162,0,7.2628133979984675,6.90575893494673,95.08379957620643,0.16486103541429808,0.15675613649258988,0.091796875,,
1.7326950000000652,1140,,,,-0.03125,0.04296875,-0.9609375,0.05672755005296403,1.1384905683368582,23.031593094504295,0.3159083717136969,1162,0,7.275873072457277,6.905605294522615,94.91101927909784,0.16486470335046308,0.1564747703813855,0.091796875,,
1.7398300000000746,1140,,,,-0.0625,0.0625,-0.9921875,0.05672755005296403,1.1384905683368582,23.031611057370036,0.3168195105475453,1162,0,7.296863742317408,6.905555504614805,94.63730923967717,0.16486589204532992,0.1560246440856912,0.091796875,,
1.7484150000000374,1140,,,,-0.09375,0.06640625,-0.96484375,0.05672755005296403,1.1384905683368582,23.031627772780187,0.31599563819075094,1162,0,7.277893916631498,6.905534416336862,94.88369156571906,0.16486639551653795,0.15643132221743036,0.091796875,,
1.7563000000000466,1140,,,,-0.09375,0.0546875,-1.00390625,0.05672755005296403,1.1384905683368582,23.03186997564932,0.31533607453683876,1162,0,7.262779467364133,6.905523805568041,95.08100633646598,0.16486664884405638,0.15675686883413636,0.091796875,,
1.7676400000001304,1140,,,,0,0.0390625,-0.97265625,0.05672755005296403,1.1384905683368582,23.03196638218646,0.3160242578777311,1162,0,7.278660083395327,6.90551972543332,94.8735020774875,0.1648667462557162,0.15641485593400298,0.091796875,,
1.7768249999999535,1140,,,,-0.103515625,0.0625,-0.9921875,0.05672755005296403,1.1384905683368582,23.032195093149554,0.3157167428508138,1163,0,7.271649615513673,6.908935334953927,95.01193952214207,0.16478524014792367,0.1565656527107618,0.091796875,,
1.7849850000001024,1140,,,,-0.09375,0.044921875,-0.955078125,0.05672755005296403,1.1384905683368582,23.032184482922077,0.31699555935670976,1163,0,7.301100203370814,6.910114798675292,94.64484264282513,0.16475711352221142,0.15593411083595773,0.091796875,,
1.794130000000121,1140,,,,0,0.0234375,-0.96484375,0.05672755005296403,1.1384905683368582,23.032238831920772,0.3174109698344925,1163,0,7.3106852650996315,6.910501904206357,94.52604856614873,0.16474788432427317,0.15572966514806497,0.091796875,,
1.8031450000000186,1140,,,,-0.09375,0.01953125,-0.98828125,0.05672755005296403,1.1384905683368582,23.032471318286802,0.3165879771302881,1163,0,7.291803502967798,6.9106813731540635,94.77328030495315,0.16474360585622638,0.15613291936260862,0.091796875,,
1.8159950000001117,1140,,,,-0.09375,0.037109375,-0.951171875,0.05672755005296403,1.1384905683368582,23.032514564312017,0.3158530889921776,1163,0,7.274890872395271,6.906146140901771,94.93126786419973,0.16485179217308016,0.15649589640676057,0.091796875,,
1.8270699999998323,1140,,,,-0.03125,0.033203125,-0.970703125,0.05672755005296403,1.1400130879145696,23.032644629353467,0.31510798116700023,1162,0,7.257770150092521,6.903942214020603,95.12483960287157,0.16512494638199873,0.15707484039020397,0.091796875,,
1.8350550000001677,1140,,,,-0.0625,0.001953125,-0.9609375,0.05618413870456729,1.1400130879145696,23.032608186971224,0.3147280455278486,1162,0,7.249007758094178,6.837374165826801,94.32151811663118,0.16673258772532235,0.1572647079376679,0.091796875,,
1.844185000000056,1140,,,,-0.125,0.0078125,-0.9453125,0.05618413870456729,1.1400130879145696,23.032771245566227,0.3154676440391126,1162,0,7.2660940805305945,6.837013731038272,94.0947592374005,0.1667413775606747,0.15689489776484178,0.091796875,,
1.8544550000000746,1140,,,,-0.0625,0.009765625,-0.9765625,0.05618413870456729,1.1400130879145696,23.032630429595677,0.31586820127477333,1162,0,7.275275544422996,6.836584922835109,93.97011674802923,0.16675183600905377,0.15669689497719008,0.091796875,,
1.8621799999999349,1140,,,,-0.0625,0.0546875,-1.08203125,0.05618413870456729,1.1400130879145696,23.03259853755358,0.3157105348094783,1162,0,7.271634002343048,6.836471632861606,94.01561781930684,0.1667545993220751,0.15677536679475856,0.091796875,,
1.8699350000000559,1140,,,,-0.0625,0.037109375,-0.966796875,0.05618413870456729,1.1400130879145696,23.032570186184525,0.3155701979710386,1162,0,7.268392733436092,6.836429705511879,94.05696632300709,0.16675562201647928,0.1568452792417609,0.091796875,,
1.877409999999916,1140,,,,0,0.02734375,-1.0234375,0.05618413870456729,1.1400130879145696,23.032630986339907,0.3161886169823706,1162,0,7.28265573703611,6.8359995509349085,93.86685019546206,0.16676611509704656,0.15653809943493655,0.091796875,,
1.8876149999999907,1140,,,,-0.03125,-0.041015625,-0.953125,0.05618413870456729,1.1400130879145696,23.03275397532439,0.3165061119314418,1162,0,7.290007407803382,6.83477919052799,93.75544918118868,0.16679589144510504,0.15638023724012612,0.091796875,,
1.8961750000000466,1140,,,,0,0.02734375,-1.001953125,0.05618413870456729,1.1400130879145696,23.032786327313154,0.3172653254341136,1162,0,7.307504449789411,6.834390903481354,93.5256481941425,0.16680536773713972,0.15600580139878298,0.091796875,,
1.905125,1140,,,,-0.0625,0.03515625,-0.974609375,0.05618413870456729,1.1400130879145696,23.032963415427727,0.3176152124118052,1162,0,7.315619567664415,6.834254282520368,93.42003393298747,0.16680870227938757,0.15583274627257993,0.091796875,,
1.9131399999998975,1140,,,,0.0625,-0.01171875,-0.953125,0.05618413870456729,1.1400130879145696,23.03298167020331,0.3182303510590624,1162,0,7.329793842845748,6.8342081427213115,93.23874981002155,0.16680982845521417,0.15553139861188325,0.091796875,,
1.9212650000001303,1140,,,,-0.0625,0.017578125,-0.951171875,0.05618413870456729,1.1400130879145696,23.03283601250713,0.317857327868918,1162,0,7.321155708178501,6.834637406136774,93.35462430476332,0.16679935162192505,0.1557149080494293,0.091796875,,
1.9284750000000932,1140,,,,-0.0625,0.044921875,-0.958984375,0.05618413870456729,1.1400130879145696,23.032860277536543,0.31718687408800605,1162,0,7.3057209527376195,6.834806919165017,93.55417437075612,0.16679521475843545,0.15604388605718383,0.091796875,,
1.9362099999999627,1140,,,,0.125,0,-1.0625,0.05618413870456729,1.1400130879145696,23.03282294373615,0.31633431086935326,1162,0,7.286072173282603,6.834870087574801,93.80733439119199,0.1667936732238721,0.15646469878446975,0.09375,,
1.9445050000001212,1140,,,,-0.09375,0.083984375,-0.984375,0.05618413870456729,1.1400130879145696,23.032585830778434,0.31722525887162634,1162,0,7.306518002651641,6.834899400899338,93.54523452099693,0.16679295788385215,0.1560268636169571,0.09375,,
1.9529499999999533,1140,,,,0.0625,0.01171875,-0.984375,0.05618413870456729,1.1400130879145696,23.032407631404745,0.3169807119860195,1161,0,7.300828969754905,6.833646093108083,93.60096122533184,0.16682354812964392,0.15614844459955085,0.09375,,
1.9654900000002236,1140,,,,-0.03125,-0.00390625,-0.91796875,0.05618413870456729,1.1400130879145696,23.032588588053084,0.317642732731932,1161,0,7.316134380999493,6.8307916475004635,93.36613150847121,0.1668932602170241,0.1558217808130018,0.09375,,
1.9832600000000093,1140,,,,0,0.08984375,-0.96875,0.05588342354979973,1.140636388613749,23.032693769176323,0.3195084641637807,1161,0,7.359140611744208,6.792646861473285,92.30217521096316,0.1679222270604469,0.1549958682394851,0.09375,,
1.9912749999999069,1140,,,,-0.0625,0.048828125,-0.958984375,0.05588342354979973,1.140636388613749,23.03259147652226,0.3201505691708358,1161,0,7.373897270687943,6.79382699993157,92.13346417148749,0.16789305771625299,0.15468569017741876,0.091796875,,
1.9990900000000837,1140,,,,0,0.103515625,-1.02734375,0.05588342354979973,1.140636388613749,23.032463892011528,0.32064195881859375,1161,0,7.3851743387531075,6.7947752772180605,92.00561781680663,0.16786962659944688,0.15444948707958747,0.091796875,,
2.007094999999972,1140,,,,-0.125,0.109375,-1.046875,0.05588342354979973,1.140636388613749,23.032571393928592,0.32131672195810296,1161,0,7.4007503385631095,6.795145962640388,91.81698681595705,0.16786046905908292,0.15412442474518184,0.09375,,
2.015189999999944,1140,,,,0.03125,0.060546875,-0.962890625,0.05588342354979973,1.140636388613749,23.03267446634704,0.3228158653291418,1161,0,7.435312738698249,6.795293300457682,91.39216518883616,0.16785682945236874,0.15340799085385182,0.09375,,
2.023375,1140,,,,-0.0625,0.064453125,-1.00390625,0.05588342354979973,1.140636388613749,23.032542871710348,0.3231759842298975,1161,0,7.443564711882302,6.795351412046655,91.29162807168328,0.16785539399649782,0.1532379219855414,0.09375,,
2.031589999999851,1140,,,,0,0.0625,-0.96875,0.05588342354979973,1.140636388613749,23.032580997212456,0.32256994079190443,1162,0,7.429618288555565,6.801567194664632,91.54665731807017,0.16770199513848819,0.15352557080499846,0.09375,,
2.0383549999999815,1140,,,,0,0.052734375,-0.998046875,0.05588342354979973,1.140636388613749,23.032649888017442,0.321356832554327,1163,0,7.401699413346059,6.804064835533102,91.92571132062783,0.16764043497307143,0.15410466230999045,0.09375,,
2.047030000000028,1140,,,,-0.03125,0.041015625,-0.919921875,0.05588342354979973,1.140636388613749,23.032520452339572,0.32242230340113043,1163,0,7.426198297376971,6.805062398659475,91.63588320908573,0.16761586033927364,0.15359627402040105,0.09375,,
2.055344999999972,1140,,,,0,0.02734375,-0.919921875,0.05588342354979973,1.140636388613749,23.03271228913498,0.32189042472650636,1163,0,7.4140095413530815,6.805481629178985,91.79218871003721,0.1676055348857588,0.15384878887080297,0.09375,,
2.0630150000001306,1140,,,,0,0.01171875,-0.97265625,0.05588342354979973,1.140636388613749,23.032680578063086,0.32109610357320495,1163,0,7.395703988462291,6.807739523516859,92.04991890072007,0.1675499458628669,0.15422958928496938,0.09375,,
2.071119999999879,1140,,,,-0.0625,0.06640625,-0.978515625,0.05588342354979973,1.140636388613749,23.032550921650166,0.3196421332005393,1163,0,7.3621737096463065,6.808744737478084,92.48280475312487,0.1675252095052448,0.15493201241899893,0.09375,,
2.080415000000037,1140,,,,-0.0625,-0.00390625,-1.0078125,0.05588342354979973,1.140636388613749,23.03265916724363,0.31862422534241025,1164,0,7.338763184738766,6.809157088887695,92.78344207982612,0.16751506445272463,0.15542624280147713,0.09375,,
2.0893650000002237,1140,,,,-0.03125,0.048828125,-0.947265625,0.05588342354979973,1.140636388613749,23.03273808272373,0.31891758644859103,1164,0,7.3455452386447995,6.80932522367285,92.70006517486402,0.16751092819715643,0.1552827396137837,0.091796875,,
2.097804999999935,1140,,,,-0.03125,0.021484375,-0.99609375,0.05588342354979973,1.140636388613749,23.032701738481556,0.3201124483401664,1164,0,7.373054545394138,6.809377371158114,92.35490296775104,0.16750964536714372,0.15470337044044946,0.091796875,,
2.106090000000084,1140,,,,-0.03125,0.0234375,-0.955078125,0.05588342354979973,1.140636388613749,23.032810104488103,0.3199467966810476,1163,0,7.369273811493834,6.805127118278756,92.3446094195173,0.16761426624198816,0.1547827394925538,0.091796875,,
2.1161150000002236,1140,,,,0,0.0703125,-1,0.05588342354979973,1.140636388613749,23.03277061698787,0.3198081076029327,1163,0,7.366066783871324,6.803697857657042,92.36541097556106,0.16764947716337078,0.15485012858032682,0.091796875,,
2.124469999999972,1140,,,,-0.0625,0.009765625,-0.93359375,0.05588342354979973,1.146727760775922,23.032968339949875,0.31864662875006944,1163,0,7.339377711632111,6.803066454052039,92.69268760033869,0.16856042323280684,0.15624318652499436,0.091796875,,
2.133799999999814,1140,,,,0,0.041015625,-0.97265625,0.055753331510716736,1.146727760775922,23.033351757268587,0.3192729169330422,1162,0,7.353925402287955,6.787034934761815,92.2913214845806,0.16895857643263562,0.15593410295121457,0.091796875,,
2.1414550000000747,1140,,,,-0.03125,0.0390625,-0.9921875,0.055753331510716736,1.146727760775922,23.03315539145249,0.3198033181117452,1162,0,7.36607952076994,6.786523502323225,92.13209663549577,0.16897130915163908,0.15567680983385046,0.091796875,,
2.1495,1140,,,,-0.09375,0.068359375,-0.95703125,0.055753331510716736,1.146727760775922,23.032999169422567,0.31934711267767535,1162,0,7.355521781062391,6.786319812796004,92.26156912848981,0.1689763807791227,0.15590026036335045,0.091796875,,
2.1573850000000094,1140,,,,0,0.03125,-0.94140625,0.055753331510716736,1.146727760775922,23.032950304433708,0.320089131541562,1162,0,7.372597059786141,6.786240539038533,92.0468117816191,0.16897835468390118,0.15553918808756728,0.091796875,,
2.165334999999963,1140,,,,-0.0625,0.041015625,-0.939453125,0.055753331510716736,1.146727760775922,23.032969020110652,0.3193105014432166,1162,0,7.354668887537605,6.786209423817971,92.27076742118355,0.16897912946087135,0.15591833953518122,0.091796875,,
2.174440000000177,1140,,,,0,0.0078125,-0.98828125,0.055753331510716736,1.146727760775922,23.033063914556518,0.3179752873145996,1162,0,7.323945115966645,6.785086309506402,92.64250621860207,0.169007100052548,0.1565724131760608,0.091796875,,
2.183050000000047,1140,,,,-0.0625,0.05859375,-1,0.055753331510716736,1.146727760775922,23.032907296633436,0.3219300514302314,1162,0,7.414985030592954,6.782582236070641,91.47128696938526,0.16906949608033897,0.15465004393734044,0.091796875,,
2.191190000000177,1140,,,,-0.03125,0.060546875,-0.951171875,0.055753331510716736,1.146727760775922,23.032584677963605,0.3297582498894435,1162,0,7.595184813835691,6.781621826725382,89.28843725266184,0.16909343960420137,0.150980889719365,0.091796875,,
2.198475000000093,1140,,,,-0.03125,0.056640625,-1.0078125,0.055753331510716736,1.146727760775922,23.032358457570417,0.3381285333657388,1161,0,7.787897585212255,6.781268216811448,87.07444008621523,0.1691022569986346,0.1472448434547138,0.091796875,,
2.206844999999972,1140,,,,-0.0625,0.0859375,-1.0078125,0.055753331510716736,1.146727760775922,23.03243991412039,0.33902353411923847,1161,0,7.808539179074104,6.781129169716879,86.84248121453301,0.1691057244414354,0.14685560698075348,0.091796875,,
2.215915000000037,1140,,,,-0.09375,0.01953125,-1.037109375,0.055753331510716736,1.146727760775922,23.03261531428029,0.33837202323732485,1165,0,7.793592644340014,6.802592455474903,87.28442408925734,0.16857216837280994,0.1471372463389804,0.091796875,,
2.224290000000037,1140,,,,-0.03125,0.013671875,-0.96484375,0.055753331510716736,1.146727760775922,23.032798607014627,0.3374558032348409,1167,0,7.772551554676446,6.811453975975208,87.63472236960614,0.16835286046423634,0.14753556186912392,0.091796875,,
2.2327900000000374,1140,,,,0,0.0078125,-0.9765625,0.055753331510716736,1.146727760775922,23.0330981708321,0.3357515761673734,1167,0,7.733399014874723,6.814578405574327,88.11879992829672,0.16827567202659205,0.14828250276110944,0.091796875,,
2.2411850000000557,1140,,,,-0.0625,0.037109375,-1.01171875,0.055753331510716736,1.146727760775922,23.033110759046465,0.3349908106149623,1167,0,7.715880444157184,6.8157964801194595,88.33465641993831,0.16824559889966426,0.14861917172968597,0.091796875,,
2.2495749999999535,1140,,,,-0.03125,0.080078125,-0.974609375,0.055753331510716736,1.146727760775922,23.032856083640716,0.33215210326173156,1169,0,7.650411592306033,6.824420040638741,89.20330570844077,0.1680329982543971,0.14989098912392876,0.091796875,,
2.2585,1140,,,,0,0.03125,-0.94921875,0.055753331510716736,1.146727760775922,23.03273586923509,0.3294136644450812,1170,0,7.587297924880393,6.832252456607717,90.04855910828653,0.1678403671496185,0.15113783222028931,0.091796875,,
2.2784550000000747,1140,,,,-0.041015625,0.078125,-0.966796875,0.055753331510716736,1.1499765866444183,23.032726720769116,0.33051544329360233,1171,0,7.612671882375404,6.836153752191476,89.79966374248053,0.16821982482119696,0.15106083703762468,0.091796875,,
2.2869350000000557,1140,,,,0.0625,0.06640625,-0.9921875,0.05523376608096534,1.1499765866444183,23.032830021070605,0.32991740561034194,1169,0,7.598931524415612,6.762014092549428,88.98638013545535,0.17006421029371913,0.1513339846463291,0.091796875,,
2.2946450000000187,1140,,,,-0.03125,0.025390625,-0.9609375,0.05523376608096534,1.1499765866444183,23.032882446384995,0.3278854483097674,1168,0,7.552146986799117,6.758508426022174,89.49121935571176,0.1701524233093625,0.15227147838284083,0.091796875,,
2.3023249999999535,1140,,,,0,0.0234375,-0.9453125,0.05523376608096534,1.1499765866444183,23.03277650226219,0.32820060324742206,1168,0,7.5593711425054995,6.756966761945105,89.38530248834371,0.170191245148789,0.15212595928492362,0.091796875,,
2.3119500000001865,1140,,,,-0.0625,0.064453125,-0.98046875,0.05523376608096534,1.1499765866444183,23.03251434193358,0.32687656466042975,1168,0,7.528789163583328,6.756301716609054,89.73955266657238,0.17020799764128716,0.15274389568602115,0.091796875,,
2.319784999999916,1140,,,,-0.03125,0.037109375,-0.96875,0.05523376608096534,1.1499765866444183,23.032632588840322,0.3261022577971341,1168,0,7.5109934902326785,6.754647435684373,89.93014631776927,0.17024968328756362,0.15310578928604476,0.091796875,,
2.3279499999999533,1140,,,,-0.03125,0.009765625,-0.998046875,0.05523376608096534,1.1499765866444183,23.032700200846563,0.3256573359277613,1167,0,7.5007677866305045,6.751399667606741,90.00944782800168,0.17033158208097401,0.1533145165077842,0.091796875,,
2.3345549999999347,1140,,,,-0.0625,0.1015625,-0.9921875,0.05523376608096534,1.1499765866444183,23.0327837941171,0.32418781485895976,1167,0,7.4669478483336835,6.750230682393013,90.40147084861974,0.1703610796063553,0.15400892171773317,0.091796875,,
2.3424850000001025,1140,,,,-0.09375,0.083984375,-1.0078125,0.05523376608096534,1.1499765866444183,23.032571312276595,0.3279205939776814,1167,0,7.552854465555046,6.749701583965705,89.36623384904162,0.17037443394182822,0.15225721505543513,0.091796875,,
2.350685000000056,1140,,,,-0.125,0.05859375,-0.91015625,0.05523376608096534,1.1499765866444183,23.03241201561928,0.33273216071156314,1167,0,7.663624216355972,6.749462584950126,88.07141887966256,0.1703804669143026,0.15005649470522034,0.091796875,,
2.3593449999999723,1140,,,,-0.0625,0.076171875,-0.98046875,0.05523376608096534,1.1499765866444183,23.03238930515017,0.33618786049090577,1167,0,7.743209682492055,6.750940012902409,87.18529253013465,0.17034317953449163,0.148514199382279,0.091796875,,
2.3674450000000653,1140,,,,-0.09375,0.068359375,-1.0234375,0.05523376608096534,1.1499765866444183,23.032241703728054,0.3369442030131597,1167,0,7.7605803244691085,6.752168589143458,87.00597515695921,0.1703121851094506,0.14818177746560296,0.091796875,,
2.3755400000000373,1140,,,,-0.0625,0.12109375,-1,0.05523376608096534,1.1499765866444183,23.032295276342076,0.3346969007093211,1167,0,7.70883784521363,6.75266221186615,87.59637117102986,0.170299735210154,0.1491763881579675,0.091796875,,
2.3832949999999253,1140,,,,-0.09375,0.041015625,-0.98828125,0.05523376608096534,1.1499765866444183,23.032084232951892,0.33255186251458685,1167,0,7.659362509261001,6.752857512258836,88.16474614034651,0.1702948099462786,0.1501399868793221,0.091796875,,
2.3916100000001026,1140,,,,-0.03125,0.01953125,-0.9765625,0.05523376608096534,1.1499765866444183,23.03201495862029,0.33073563961859337,1168,0,7.617508199044292,6.752934180377376,88.65017278517156,0.17029287653743336,0.1509649292912736,0.091796875,,
2.399314999999944,1140,,,,0.0625,-0.05859375,-1.0078125,0.05523376608096534,1.1499765866444183,23.032014297539508,0.3287865303707151,1170,0,7.572616068336718,6.765491048674063,89.34152989694702,0.16997681001585196,0.15185988253818922,0.091796875,,
2.407804999999935,1140,,,,-0.0625,0.029296875,-0.953125,0.05523376608096534,1.1499765866444183,23.031948123186705,0.32821232698276737,1171,0,7.55936928845749,6.770437248827217,89.5635203212667,0.16985263202071899,0.15212599659608297,0.091796875,,
2.4161950000000654,1140,,,,0,0.09765625,-0.943359375,0.05523376608096534,1.1499765866444183,23.031950716803216,0.3286217746709574,1171,0,7.568800518689902,6.772374204328706,89.47750951561542,0.16980405275145405,0.15193643745858293,0.091796875,,
2.4271799999999346,1140,,,,-0.0625,0.0546875,-0.99609375,0.05523376608096534,1.1573950949923633,23.031953618949895,0.32750992353391606,1171,0,7.543193368578981,6.77319474021751,89.79213987051048,0.1708787565371545,0.15343569207883084,0.091796875,,
2.436165000000037,1140,,,,-0.041015625,0.1015625,-0.990234375,0.0545717202352608,1.1573950949923633,23.03195709217421,0.325572108745362,1169,0,7.4985628390318535,6.682599429208832,89.11840272144241,0.173195342209729,0.15434892256524663,0.091796875,,
2.4447050000000745,1140,,,,0.03125,0.04296875,-0.921875,0.0545717202352608,1.1573950949923633,23.03216784296067,0.32219248557158575,1168,0,7.420791405425447,6.677367257572423,89.98187515000764,0.1733310525461704,0.15596653129828916,0.091796875,,
2.4520749999999536,1140,,,,-0.0625,0.01171875,-0.9765625,0.0545717202352608,1.1573950949923633,23.032095777302924,0.3213217962436451,1168,0,7.400714386418649,6.675483819493201,90.20053296129969,0.17337995661267774,0.15638964491270543,0.091796875,,
2.4589950000001117,1140,,,,-0.03125,0.0390625,-0.958984375,0.0545717202352608,1.1573950949923633,23.032004340398476,0.320569397853206,1168,0,7.3833557627539665,6.67476851113709,90.40291062241086,0.1733985370520653,0.15675732447174656,0.08984375,,
2.46625,1140,,,,-0.0625,0.015625,-0.98046875,0.0545717202352608,1.1573950949923633,23.0320042165454,0.32098578457934235,1167,0,7.3929459438825464,6.670753738743034,90.2313338874457,0.17350289642238398,0.15655397777527036,0.08984375,,
2.4731399999998978,1140,,,,0,0.01171875,-1.015625,0.0545717202352608,1.1573950949923633,23.031948025849093,0.321735399602378,1166,0,7.41019300171776,6.665420353697612,89.9493488516763,0.17364172603912426,0.15618960190700393,0.08984375,,
2.481935000000056,1140,,,,-0.0625,0.05078125,-0.9375,0.0545717202352608,1.1573950949923633,23.032149587686185,0.3218289248027804,1166,0,7.412411937701847,6.662818569205034,89.88732176791002,0.17370953193018682,0.15614284590761743,0.091796875,,
2.489520000000019,1140,,,,0,-0.0078125,-0.9296875,0.0545717202352608,1.1573950949923633,23.032338597076087,0.32159705664236216,1166,0,7.407132300409943,6.661810072658965,89.9377762199586,0.17373582890669317,0.15625414101599186,0.091796875,,
2.497554999999935,1140,,,,-0.0625,0.07421875,-0.9765625,0.0545717202352608,1.1573950949923633,23.032453461980335,0.32158966050188553,1166,0,7.406998889363734,6.661411276969212,89.93401209408621,0.1737462298708197,0.15625695538504183,0.091796875,,
2.5059199999999255,1140,,,,-0.0625,0.0390625,-0.94140625,0.0545717202352608,1.1573950949923633,23.032431255759082,0.32041050455503517,1165,0,7.37983291978693,6.65687183097067,90.2035574968392,0.17386471069003565,0.1568321542739994,0.091796875,,
2.5137650000001304,1140,,,,0,0.015625,-1.0078125,0.0545717202352608,1.1573950949923633,23.032410247069357,0.3193951924981822,1164,0,7.356441104559822,6.652890960665572,90.43627028485062,0.17396874559275424,0.1573308449754274,0.091796875,,
2.5227949999999253,1140,,,,-0.0625,0.064453125,-0.966796875,0.0545717202352608,1.1573950949923633,23.03238777991986,0.31783802235733283,1164,0,7.320568582136928,6.651229285476344,90.85673074228342,0.1740122081672416,0.15810180343321245,0.091796875,,
2.5312649999998977,1140,,,,-0.03125,0.033203125,-1,0.0545717202352608,1.1573950949923633,23.03222279305067,0.3166256477657271,1164,0,7.2925924613342135,6.650639019415219,91.19718474160359,0.17402765232236758,0.15870831958990514,0.091796875,,
2.539310000000056,1140,,,,-0.0625,0.044921875,-0.98046875,0.0545717202352608,1.1573950949923633,23.032013011166107,0.3168651260168932,1164,0,7.298041705205873,6.649260148047294,91.1101966340397,0.17406374081066125,0.1585898165211587,0.091796875,,
2.5479200000001585,1140,,,,-0.0625,0.109375,-0.9765625,0.0545717202352608,1.1573950949923633,23.032143851967376,0.3162353458311676,1163,0,7.283577976260103,6.646387268592274,91.25168001571932,0.17413897930108177,0.15890474417446282,0.091796875,,
2.556665000000037,1140,,,,-0.09375,0.052734375,-0.99609375,0.0545717202352608,1.1573950949923633,23.032136102973393,0.3174814254732572,1163,0,7.312275401666064,6.645191772042488,90.87720862549045,0.17417030759920757,0.1582811138005903,0.091796875,,
2.5647450000001117,1140,,,,-0.0625,0.091796875,-0.98828125,0.0545717202352608,1.1573950949923633,23.032229925058022,0.31549671924567274,1163,0,7.266592978267813,6.644784224312367,91.4429120247262,0.1741809900700178,0.15927616951352344,0.091796875,,
2.5727450000001117,1140,,,,-0.09375,0.078125,-1.00390625,0.0545717202352608,1.1603045682614355,23.032219056656622,0.31588308231149975,1163,0,7.275488348090357,6.644631501721443,91.32901028513778,0.17462286177357347,0.15948133138938886,0.091796875,,
2.5867650000001303,1140,,,,-0.125,0.03515625,-0.84375,0.05400215366638984,1.1603045682614355,23.032208075145,0.31594536027198433,1162,0,7.276919278160994,6.572576899754406,90.32087135389266,0.17653723736648738,0.15944997105350123,0.091796875,,
2.5937649999998977,1140,,,,-0.0625,0.06640625,-1.015625,0.05400215366638984,1.1603045682614355,23.03219120135675,0.31444488351441846,1162,0,7.242354679392437,6.571317425136894,90.73454306007785,0.17657107292108382,0.16021095619122228,0.09375,,
2.6017800000000277,1140,,,,-0.125,0.01171875,-1.02734375,0.05400215366638984,1.1603045682614355,23.03212357065237,0.3161071165800511,1162,0,7.280618170634352,6.571078401695251,90.2544021357835,0.17657749570635045,0.15936896305610534,0.09375,,
2.609695000000065,1140,,,,-0.0625,0.076171875,-0.99609375,0.05400215366638984,1.1603045682614355,23.032308875292564,0.3174001785257642,1162,0,7.310458948878403,6.570972221087679,89.88453757880443,0.17658034902929062,0.15871843018001675,0.09375,,
2.617905000000028,1140,,,,-0.0625,0.015625,-0.96875,0.05400215366638984,1.1603045682614355,23.032495685419217,0.31870212393399827,1162,0,7.340505294443756,6.572243840838441,89.5339431988853,0.1765461836719393,0.15806875980863389,0.09375,,
2.6256799999999347,1140,,,,-0.0625,0.017578125,-0.93359375,0.05400215366638984,1.1603045682614355,23.032471965624694,0.31987621324631527,1162,0,7.367539914065943,6.572719907175218,89.2118669710459,0.17653339631813153,0.15748873868280072,0.09375,,
2.633875,1140,,,,-0.03125,-0.001953125,-0.990234375,0.05400215366638984,1.1603045682614355,23.03244886006583,0.31909757321649956,1162,0,7.349598536480138,6.572913629070782,89.43228118441793,0.1765281933919872,0.15787319028409508,0.09375,,
2.6509549999998416,1140,,,,-0.0625,0.01953125,-0.95703125,0.05400215366638984,1.1603045682614355,23.0324044021396,0.3176003917812121,1163,0,7.315100661782851,6.575856550772456,89.89427288577838,0.17644919096131076,0.1586177172275089,0.09375,,
2.659805000000168,1140,,,,-0.0625,0.033203125,-1.01953125,0.05400215366638984,1.1603045682614355,23.032611371350058,0.318695302583359,1164,0,7.340385050277321,6.58009579459231,89.64237910576249,0.17633551311137494,0.15807134916139023,0.09375,,
2.6689950000001117,1140,,,,-0.03125,0.01171875,-0.953125,0.05400215366638984,1.1603045682614355,23.032582099635913,0.3190369740255173,1164,0,7.348245297062137,6.5814309976842855,89.56466110780995,0.17629973917065986,0.1579022639221544,0.09375,,
2.677725000000093,1140,,,,-0.03125,0.01953125,-0.98046875,0.05400215366638984,1.1603045682614355,23.032627764017494,0.31839318927262605,1164,0,7.333431811114764,6.582029266410435,89.75373925798995,0.1762837145350794,0.15822122549811454,0.09375,,
2.6858549999999815,1140,,,,-0.03125,-0.009765625,-0.998046875,0.05400215366638984,1.1603045682614355,23.03272782151701,0.3185428691073362,1164,0,7.3369112036343935,6.581197048471674,89.69983233832282,0.1763060062957526,0.15814619204968297,0.09375,,
2.6937650000001305,1140,,,,0.0625,0.01171875,-0.98828125,0.05400215366638984,1.1603045682614355,23.03262656869182,0.3180455117375982,1163,0,7.325423503700591,6.578846802784341,89.80841584736908,0.1763689903480294,0.15839419627756446,0.09375,,
2.702155000000028,1140,,,,-0.03125,0.015625,-0.990234375,0.05400215366638984,1.1603045682614355,23.032595726706663,0.3154293303624066,1163,0,7.2651562465831105,6.577919708550897,90.54065026673818,0.17639384785331294,0.15970813687691032,0.09375,,
2.710689999999944,1140,,,,0,0.01171875,-0.958984375,0.05400215366638984,1.1603045682614355,23.032711348550205,0.3155229260829448,1163,0,7.26734848031841,6.577532562850782,90.50801101205201,0.17640423018423576,0.1596599600808737,0.09375,,
2.7189449999998323,1140,,,,0,0.01953125,-0.97265625,0.05400215366638984,1.1479123015701207,23.032475319006235,0.3149493979183551,1163,0,7.254064234290387,6.577402755932316,90.6719673757581,0.17452364469163628,0.1582440221777844,0.09375,,
2.726945000000065,1140,,,,-0.0625,0.0546875,-0.9296875,0.05400215366638984,1.1479123015701207,23.032261403770825,0.3146374731446843,1163,0,7.246812528890292,6.575647656604646,90.73848164817338,0.17457022661747182,0.15840237304246935,0.091796875,,
2.7371400000001302,1140,,,,0.0625,0.0234375,-1.09375,0.05423008307896469,1.1479123015701207,23.032248595044702,0.3147591661141167,1163,0,7.249611361509307,6.602681675933393,91.07635356826592,0.17385546629549503,0.15834121918104246,0.09375,,0.24664999999990686,2663,
2.7447600000002423,1140,,,,-0.09375,0.1171875,-0.9609375,0.05423008307896469,1.1479123015701207,23.032233952732316,0.3148982778288152,1163,0,7.252810806265771,6.602371274960476,91.03189716815206,0.17386363985975514,0.15827136984993853,0.09375,,
2.7660700000000653,1350,,,,0,-0.005859375,-0.97265625,0.05423008307896469,1.1479123015701207,23.032297168302605,0.3144562249511913,1162,0,7.242649219498451,6.599416382793762,91.11881830514453,0.17394148739621879,0.15849342785782644,0.09375,,
2.7748299999998416,1350,,,,-0.0625,0.056640625,-0.98828125,0.05423008307896469,1.1479123015701207,23.032356688181707,0.3141101354118399,1162,0,7.234696678178553,6.597498768648727,91.19247236098016,0.17399204483750613,0.15866764739874697,0.09375,,
2.7885800000000747,1350,,,,0.3125,0.056640625,-1.09375,0.05423008307896469,1.1479123015701207,22.99708744940565,0.7247448274527071,1162,0,16.667020175434313,6.596734703362316,39.57956871670023,0.17401219742625648,0.06887327725576525,0.09375,,
2.7973600000001024,1350,,,,0,0.34765625,-0.8515625,0.05423008307896469,1.1479123015701207,22.973355253142852,1.370544698049494,1169,0,31.486010238602425,6.639142118223818,21.086006349842663,0.17290069727822363,0.03645785200700847,0.11328125,,
2.804834999999963,1350,,,,-0.40625,0.193359375,-0.943359375,0.05423008307896469,1.1479123015701207,22.959968396835034,1.979652404343402,1195,0,45.452756640443,6.783746308570633,14.924829229245438,0.16921509876037674,0.02525506452008524,0.126953125,,
2.814200000000186,1350,,,,0.6875,-0.0078125,-0.5859375,0.05423008307896469,1.1479123015701207,22.946265191135332,2.4408677541026527,1205,0,56.00879878213038,6.845593843285,12.222354330279064,0.16768629980818014,0.02049521372588984,0.130859375,,
2.8227950000001583,1350,,,,-0.125,0.16015625,-1.330078125,0.05423008307896469,1.1479123015701207,22.928656976214075,2.9351265950254555,1209,0,67.29851087910187,6.867730858846066,10.204877892742044,0.16714579024184356,0.017057023797038884,0.13671875,,
2.831690000000177,1350,,,,-0.28125,0.212890625,-1.013671875,0.05423008307896469,1.1479123015701207,22.917891916247214,3.277687759088432,1383,0,75.11769379799522,7.855211720681241,10.457205650915343,0.1461338462142136,0.015281516824212683,0.14453125,,
2.840244999999879,1350,,,,0,0.24609375,-0.92578125,0.05423008307896469,1.1479123015701207,22.91017930020989,3.4833292139549012,1444,0,79.80369685336596,8.197814998985317,10.272475238895588,0.14002661705737485,0.01438419956508198,0.14453125,,
2.8487750000001397,1350,,,,0.3125,-0.23828125,-0.828125,0.05423008307896469,1.1479123015701207,22.902777111110293,3.742344127824854,1534,0,85.71007343264507,8.709294862350655,10.161343367877079,0.13180312754508086,0.013392968359456641,0.1484375,,
2.856185000000056,1350,,,,-0.21875,-0.166015625,-1.0390625,0.05423008307896469,1.1479123015701207,22.898460001016506,3.8986990050013643,1690,0,89.27420322202659,9.596667735575025,10.749653751272287,0.11961571799706981,0.012858275516783296,0.150390625,,
2.8661999999999535,1350,,,,-0.03125,0.171875,-0.970703125,0.05423008307896469,1.1479123015701207,22.893493502494195,4.032427497767391,1759,0,92.3163527194167,9.991754632253336,10.823385389392438,0.11488595785415559,0.012434549976850232,0.15234375,,
2.874820000000065,1350,,,,-0.15625,-0.298828125,-1.03515625,0.05423008307896469,1.1424977698528656,22.890735945050537,4.135510307765908,2039,0,94.66487445310408,11.580553686339725,12.233210843243237,0.098656575566032,0.012068866899716285,0.154296875,,
2.883280000000028,1350,,,,0.3125,-0.05078125,-1.1171875,0.05534840409092305,1.1424977698528656,22.88888938597066,4.21956137462242,2676,0,96.58107356104688,15.51097371393842,16.060055186831462,0.07365738546937244,0.011829416755558392,0.158203125,,
2.8937950000001584,1350,,,,0.125,0,-1.02734375,0.05534840409092305,1.1424977698528656,22.88759463339167,4.264620132318705,3264,0,97.60689685391168,18.921049827414382,19.384951716817238,0.060382366743600036,0.011705092638718377,0.162109375,,
2.9018899999998977,1350,,,,-0.3125,-0.072265625,-0.884765625,0.05534840409092305,1.1424977698528656,22.886943737758745,4.300550925498271,3537,0,98.42646707324523,20.50267627661817,20.83045027041442,0.05572432371454853,0.01160762753988378,0.16796875,,
2.9110449999999255,1350,,,,-0.21875,0.84765625,-0.931640625,0.05534840409092305,1.1424977698528656,22.887147949742733,4.306678872934189,3310,0,98.56759653687607,19.186041174238124,19.464856452150837,0.059548385176351214,0.01159100769415063,0.17578125,,
2.9198249999999533,1350,,,,-0.4375,0.693359375,-1.1171875,0.05534840409092305,1.1424977698528656,22.887823141517842,4.293068306829991,3230,0,98.25898814118028,18.72402848272691,19.055792082678373,0.0610177329577783,0.011627412325998147,0.185546875,,
2.9277649999998974,1350,,,,-0.21875,-0.041015625,-0.818359375,0.05534840409092305,1.1424977698528656,22.888723368983385,4.275108227991587,2694,0,97.85176960296418,15.612131925294277,15.954879496447393,0.07318012525898702,0.011675800800420641,0.19140625,,
2.935839999999851,1350,,,,0.0625,-0.18359375,-1.015625,0.05534840409092305,1.1424977698528656,22.889796947397787,4.257298671145763,2485,0,97.44870212695295,14.403366103664366,14.780459656507416,0.07932158091588064,0.011724094266175626,0.193359375,,
2.9449799999999815,1350,,,,-0.125,0.169921875,-0.99609375,0.05534840409092305,1.1424977698528656,22.890908004644064,4.233041472568162,2444,0,96.89816292840085,14.164274949136114,14.617691936638941,0.08066051908449763,0.011790706194265727,0.193359375,,
2.9531150000002233,1350,,,,0.1875,-0.0390625,-0.98046875,0.05534840409092305,1.1424977698528656,22.891941819091606,4.204397528476384,2430,0,96.24682360621392,14.08356763279136,14.632760963014357,0.08112275239071812,0.011870498443951796,0.193359375,,
2.9609499999999533,1350,,,,-0.1875,0.037109375,-0.927734375,0.05534840409092305,1.1424977698528656,22.893309591070167,4.171186719475472,2455,0,95.49226893111232,14.227598755465612,14.899215313157274,0.08030151745838127,0.011964295985856802,0.193359375,,
2.968975000000093,1350,,,,-0.03125,0.029296875,-1.005859375,0.05534840409092305,1.1424977698528656,22.89495654511104,4.134249216642162,2465,0,94.65345616168165,14.285023328653523,15.091919416289098,0.07997871221961489,0.012070322798370045,0.197265625,,
2.9773599999998694,1350,,,,0.0625,-0.05078125,-0.986328125,0.05534840409092305,1.1424977698528656,22.89657025292391,4.092342050831355,2486,0,93.70059726585482,14.411729934930323,15.38061693890831,0.07927554672557005,0.0121930681680852,0.197265625,,
2.984314999999944,1350,,,,-0.1875,0.1171875,-0.96484375,0.05534840409092305,1.1424977698528656,22.898283544892326,4.050615304630448,2504,0,92.7521377767084,14.513530068545121,15.647650195928648,0.07871949583988375,0.012317751345023614,0.197265625,,
2.9936049999999814,1350,,,,-0.0625,0.0546875,-0.92578125,0.05534840409092305,1.1424977698528656,22.90053438385895,3.996349974329028,2521,0,91.51854999705574,14.610827844172768,15.96488126685007,0.07819527969515619,0.012483783559613007,0.1953125,,
3.0015700000000654,1350,,,,0,0.0078125,-0.97265625,0.05534840409092305,1.1424977698528656,22.902094508424423,3.947566574301661,2535,0,90.40754276295388,14.693923754247903,16.25298432540631,0.07775307596261195,0.012637195248724585,0.193359375,,
3.008595000000205,1350,,,,-0.1875,0.15625,-1.05859375,0.05534840409092305,1.1424977698528656,22.903766242148333,3.9033826688496918,2549,0,89.40216420098643,14.773347936544525,16.524597663354463,0.07733506140654092,0.012779307750139001,0.193359375,,
3.0169499999999534,1350,,,,-0.1875,0.109375,-1.0078125,0.05534840409092305,2.0404938081958264,22.905546521198463,3.8535298942729854,2565,0,88.26720826409887,14.86497880099257,16.840884733225035,0.13726853132542494,0.023117235135505707,0.193359375,,
3.0248850000002423,1350,,,,0.03125,-0.056640625,-0.96875,0.05534840409092305,2.0404938081958264,22.907517239208133,3.8059247340567666,2575,0,87.18428645653401,14.92414185534073,17.117926247846516,0.1367243643201916,0.023404375847167376,0.193359375,,
3.0331450000000184,1350,,,,-0.0625,0.119140625,-1.025390625,0.10378872866694336,2.0404938081958264,22.909315183411437,3.7564454820437794,2587,0,86.05759351744285,28.117604067996496,32.67300759728703,0.07256997442816687,0.023710793258264216,0.193359375,,
3.040594999999972,1350,,,,-0.125,0.22265625,-1.03125,0.10378872866694336,2.0404938081958264,22.9111789773732,3.7099367122091484,2596,0,84.9990240081513,28.2129025221336,33.19203114547294,0.07232484522267843,0.02400608515222652,0.193359375,,
3.052755000000121,1350,,,,0.09375,-0.11328125,-0.91796875,0.10378872866694336,2.0404938081958264,22.913095656805982,3.659719147803625,2608,0,83.85549491066892,28.340894823523385,33.79730195822573,0.07199821392026708,0.024333453763161973,0.193359375,,
3.0614550000000746,1350,,,,0,0.12890625,-0.97265625,0.10378872866694336,2.0404938081958264,22.91585020328032,3.5825684197443133,2618,0,82.09760124986339,28.451382879040196,34.655559292711416,0.07171861616958641,0.024854487550563138,0.19140625,,
3.071095000000205,1350,,,,-0.125,-0.1640625,-0.91015625,0.10378872866694336,2.0404938081958264,22.91772058043054,3.531889720274677,2624,0,80.94286173015003,28.51764718024721,35.231824734984386,0.07155196904214375,0.025209064327358373,0.19140625,,
3.078895000000019,1350,,,,0.0625,-0.02734375,-0.962890625,0.10378872866694336,2.0404938081958264,22.919668766369252,3.4824517080508297,2631,0,79.81663964340186,28.59334789966511,35.82379316820664,0.07136253562737664,0.025564767162739182,0.19140625,,
3.086520000000019,1350,,,,0.03125,-0.00390625,-1.029296875,0.10378872866694336,2.0404938081958264,22.92130231710191,3.441502707268522,2636,0,78.88372397842647,28.64641997296198,36.31474089736984,0.07123032511991911,0.025867108007652774,0.19140625,,
3.0941400000001305,1350,,,,0.0625,0.00390625,-0.8515625,0.10378872866694336,2.0404938081958264,22.92283891077432,3.4040498894147175,2643,0,78.03048725929271,28.72788612750782,36.8162331628739,0.07102833111838298,0.026149955996242,0.19140625,,
3.1024750000000934,1350,,,,-0.15625,0.236328125,-0.990234375,0.10378872866694336,2.0404938081958264,22.924629207676396,3.363576558318258,2647,0,77.10874541107839,28.76663488111909,37.30657881639729,0.07093265571827796,0.02646254711210311,0.19140625,,
3.1100150000001303,1350,,,,-0.25,0.27734375,-0.98046875,0.10378872866694336,2.0404938081958264,22.92564450117146,3.3339911382043947,2652,0,76.43389560452995,28.82362522786775,37.71052750863517,0.07079240699476627,0.026696190113786294,0.193359375,,
3.1180200000000187,1350,,,,0,-0.220703125,-0.955078125,0.10378872866694336,2.0404938081958264,22.926548007415583,3.303440315982764,2654,0,75.73648299401094,28.85011300691091,38.092755124623764,0.07072741128282706,0.026942019585952832,0.1953125,,
3.125510000000009,1350,,,,0,0.087890625,-0.984375,0.10378872866694336,2.0404938081958264,22.92777959849634,3.267706182870213,2662,0,74.92124715349202,28.933914584333486,38.61910430435874,0.0705225627955876,0.02723518208413487,0.193359375,,
3.1334050000000278,1350,,,,-0.0625,0.03515625,-0.859375,0.10378872866694336,2.0404938081958264,22.92915102891161,3.227776070427817,2665,0,74.01016500634624,28.96738669549336,39.1397407275196,0.0704410732540564,0.027570453437319828,0.193359375,,
3.1427350000001026,1350,,,,0.0625,0.01171875,-0.96875,0.10378872866694336,2.0404938081958264,22.930777066747467,3.1847408252344187,2669,0,73.02858187881981,29.013065497359353,39.7283703872304,0.0703301692949869,0.02794103015147858,0.19140625,,
3.151405000000028,1350,,,,-0.125,0.1796875,-1.078125,0.10378872866694336,2.0404938081958264,22.93224785615177,3.147405376740777,2671,0,72.17708020320423,29.030032271077417,40.22056889714508,0.07028906441240051,0.028270661579148235,0.193359375,,
3.1598600000001023,1350,,,,0.0625,-0.1796875,-0.865234375,0.10378872866694336,2.0404938081958264,22.9339977643157,3.107074670672689,2675,0,71.25764355076939,29.07378590234555,40.80093650813917,0.07018328521264952,0.028635437638939363,0.193359375,,
3.167929999999935,1350,,,,-0.25,0.171875,-0.96484375,0.10378872866694336,4.070511724124362,22.93526604901647,3.075467054168678,2676,0,70.53665511234358,29.088478957744183,41.23881251728626,0.13993553014708857,0.05770775092242845,0.1953125,,
3.1760200000000185,1350,,,,0,0.10546875,-0.986328125,0.10378872866694336,4.070511724124362,22.93638167499077,3.043300100228212,2679,0,69.80229265037192,29.111953808917907,41.70630032846463,0.13982269107879103,0.058314871468661905,0.193359375,,
3.1837100000001954,1350,,,,-0.0625,-0.0234375,-0.984375,0.16563064479298129,4.070511724124362,22.93766531143884,3.0120127506376067,2679,0,69.0885403879117,46.4728766846684,67.26568027597189,0.08758897693689019,0.05891732118336331,0.19140625,,
3.19075,1350,,,,-0.125,0.080078125,-0.96875,0.16563064479298129,4.070511724124362,22.938904828482293,2.9821279308205466,2680,0,68.40674879145135,46.491585486396815,67.96344850145366,0.08755373002530473,0.05950453421684975,0.19140625,,
3.2041149999999905,1350,,,,-0.0625,0.04296875,-1.00390625,0.16563064479298129,4.070511724124362,22.939948890445258,2.952695437627234,2681,0,67.73468242821964,46.50023178912332,68.65054964773907,0.0875374501913016,0.06009494070394437,0.193359375,,
3.213215000000084,1350,,,,-0.01953125,0.08984375,-0.96875,0.16563064479298129,4.070511724124362,22.941668863812637,2.9033647904094377,2682,0,66.6080336124261,46.521968625875225,69.84438077931232,0.0874965493584115,0.061111423102647874,0.19140625,,
3.2222099999999627,1350,,,,-0.1875,0.21875,-0.953125,0.16563064479298129,4.070511724124362,22.94296751491955,2.8751859659331154,2683,0,65.96529821575606,46.531502385363076,70.53936485388138,0.08747862234091071,0.061706864582203994,0.193359375,,
3.2302900000000374,1350,,,,-0.03125,-0.279296875,-0.947265625,0.16563064479298129,4.070511724124362,22.943617619295075,2.8518171425886294,2683,0,65.43100203970421,46.53714431859012,71.12399759727185,0.08746801686536493,0.062210750213703495,0.193359375,,
3.2378000000000466,1350,,,,-0.0625,0.302734375,-0.990234375,0.16563064479298129,4.070511724124362,22.944507701884415,2.8293468801506,2684,0,64.91797128291809,46.560338318731944,71.7218012186764,0.08742444473361423,0.06270238646837442,0.1953125,,
3.2449500000001863,1350,,,,-0.125,-0.1015625,-0.91796875,0.16563064479298129,4.070511724124362,22.945261915569507,2.8105618934251586,2685,0,64.48907877455922,46.56901488123481,72.21225014553343,0.0874081561421346,0.06311939636095669,0.1953125,,
3.2526350000000095,1350,,,,0.125,-0.11328125,-0.84765625,0.16563064479298129,4.070511724124362,22.946192569654666,2.790095801070113,2685,0,64.0220755391397,46.565993309901955,72.73427629104897,0.08741382787723749,0.06357981508481192,0.197265625,,
3.2611700000001584,1350,,,,-0.0625,0.1015625,-1.041015625,0.16563064479298129,4.070511724124362,22.9468726598904,2.77026324029945,2685,0,63.56887780952684,46.564817934625275,73.25096735882094,0.08741603435106654,0.06403309078887545,0.197265625,,
3.2797750000001398,1350,,,,-0.09375,0.08984375,-1.0234375,0.16563064479298129,4.070511724124362,22.947964750265562,2.729027096440417,2686,0,62.62561761163426,46.58217799320591,74.38198579067125,0.08738345649527278,0.0649975501937112,0.197265625,,
3.2879550000000743,1350,,,,-0.0625,-0.02734375,-1.0078125,0.16563064479298129,4.070511724124362,22.948770271789332,2.7073272012000804,2688,0,62.12982999090702,46.615489706627805,75.02916024951331,0.08732101174399151,0.06551622183289572,0.197265625,,
3.2952249999998604,1350,,,,0.125,-0.05859375,-0.765625,0.16563064479298129,4.070511724124362,22.949100677847422,2.6918274006847023,2688,0,61.77501802570156,46.62637170201471,75.47771444213218,0.0873006321430856,0.06589252183513442,0.197265625,,
3.3027649999998974,1350,,,,0.03125,0.107421875,-1.04296875,0.16563064479298129,4.070511724124362,22.949596131894918,2.676501388722724,2689,0,61.424625917642395,46.63769749421754,75.92670984557392,0.0872794315077208,0.0662684007157336,0.197265625,,
3.310584999999963,1350,,,,-0.1875,0.140625,-1.0234375,0.16563064479298129,4.070511724124362,22.949968247516644,2.662704667997086,2689,0,61.108987583047465,46.64259329448613,76.32689582870044,0.08727027029617496,0.06661068829838677,0.197265625,,
3.319,1350,,,,0,-0.1953125,-0.8671875,0.16563064479298129,5.188819128315361,22.950483915761634,2.648555405359668,2688,0,60.78562823071059,46.630104555957956,76.71238401777202,0.11127616327963781,0.08536259769531879,0.19921875,,
3.3411650000000375,1350,,,,-0.08203125,-0.091796875,-0.9453125,0.1807976771938396,5.188819128315361,22.952145848457718,2.614307630669189,2688,0,60.00397003185516,50.89252223586563,84.81525840514817,0.10195641521297268,0.08647459702350857,0.19921875,,
3.3517749999999067,1350,,,,0,0.40625,-1.0625,0.1807976771938396,5.188819128315361,22.95239597617241,2.6026378356016373,2689,0,59.736774185297094,50.90738616370855,85.21950985468227,0.10192664600042707,0.08686138813288105,0.201171875,,
3.3753700000001117,1350,,,,-0.041015625,0.083984375,-0.99609375,0.1807976771938396,5.188819128315361,22.953601240536894,2.561946047436057,2689,0,58.80588797261687,50.908672773954585,86.57070665723194,0.10192407001759463,0.08823638766804352,0.201171875,,
3.3858049999999347,1350,,,,0.0625,-0.060546875,-0.896484375,0.1807976771938396,5.188819128315361,22.953935276872425,2.5534472984090306,2691,0,58.611664020585636,50.941362836814726,86.9133536610103,0.10185866336040507,0.08852878032080679,0.19921875,,
3.392780000000028,1350,,,,-0.03125,0.119140625,-0.97265625,0.1807976771938396,5.188819128315361,22.9539379921886,2.5488365787339498,2691,0,58.50583678048122,50.94449931278477,87.07592629421366,0.10185239227610193,0.0886889140272319,0.19921875,,
3.3996100000001026,1350,,,,-0.09375,-0.001953125,-0.994140625,0.1807976771938396,5.188819128315361,22.954370610900206,2.54441596107988,2690,0,58.4054669589174,50.93638736711491,87.21167729545547,0.10186861292140476,0.08884132596637216,0.19921875,,
3.4085100000000095,1350,,,,0.1875,-0.18359375,-0.890625,0.1807976771938396,5.188819128315361,22.954902952804918,2.5316271562754813,2690,0,58.11325568498916,50.93259044200668,87.6436706938151,0.10187620702747292,0.08928804740250768,0.201171875,,
3.4154250000000466,1350,,,,-0.125,0.244140625,-0.978515625,0.1807976771938396,5.188819128315361,22.95535564903812,2.5205640619214558,2692,0,57.86044447759115,50.96230071979573,88.07796272552484,0.10181681468513103,0.08967817608668639,0.201171875,,
3.423020000000019,1350,,,,-0.1875,-0.03515625,-1.04296875,0.1807976771938396,5.188819128315361,22.95564936591662,2.517702910542619,2692,0,57.7955052219641,50.97314940862352,88.19569828632994,0.10179514486576982,0.08977893883594683,0.201171875,,
3.4312949999999254,1350,,,,0.03125,-0.130859375,-0.884765625,0.1807976771938396,5.188819128315361,22.95566643570005,2.5200150584647183,2692,0,57.84862509505723,50.97033305852139,88.10984353520351,0.10180076952524203,0.08969649874632386,0.201171875,,
3.4400550000001675,1350,,,,0.0625,0.26953125,-1.0625,0.1807976771938396,5.188819128315361,22.955747089814512,2.519794943244868,2692,0,57.843775435322705,50.96921464238542,88.11529721011382,0.1018030033368495,0.08970401895908703,0.201171875,,
3.4495500000000465,1350,,,,-0.0625,0.017578125,-1.021484375,0.1807976771938396,5.188819128315361,22.95616635688015,2.5111176560772868,2693,0,57.64563465460915,50.99452322645264,88.46207268250676,0.10175247850192153,0.09001235148862187,0.203125,,
3.4583499999998604,1350,,,,-0.041015625,0.083984375,-0.998046875,0.1807976771938396,5.188819128315361,22.956478992359852,2.5003470446629095,2694,0,57.39916440441312,51.00714429060279,88.86391434416268,0.10172730115517001,0.0903988617631587,0.203125,,
3.4657949999999254,1350,,,,-0.1875,0.1484375,-0.8984375,0.1807976771938396,5.6835345969844715,22.95672240168514,2.493074436239702,2694,0,57.23281775949253,51.01433972586721,89.13476869205181,0.11141052942223208,0.0993055176990969,0.203125,,
3.474219999999972,1350,,,,0,-0.1328125,-0.998046875,0.1807976771938396,5.6835345969844715,22.956980057417688,2.48506333923635,2694,0,57.04954952026869,51.01244175211058,89.41778187746561,0.11141467457297947,0.09962453068915493,0.203125,,
3.482530000000028,1350,,,,0,0.33984375,-1.109375,0.17790156010602923,5.6835345969844715,22.957203985050754,2.476358658346196,2694,0,56.85027085980023,50.18409450885143,88.27415199588333,0.11325370423854145,0.09997374702049824,0.203125,,
3.490540000000037,1350,,,,-0.03125,-0.044921875,-0.904296875,0.17790156010602923,5.6835345969844715,22.957335724575174,2.4755421464185896,2694,0,56.831852155666994,50.19000907918109,88.31316801308293,0.11324035801663189,0.10000614763384476,0.203125,,
3.4981400000001304,1350,,,,-0.125,-0.10546875,-1.01171875,0.17790156010602923,5.6835345969844715,22.95766031199398,2.4707207105148834,2694,0,56.7219667978091,50.197534846845976,88.49752164938128,0.11322338067646326,0.10019988582631446,0.203125,,
3.5087250000000934,1350,,,,-0.03125,0.095703125,-1,0.17790156010602923,5.6835345969844715,22.957847614705447,2.4668460087826145,2694,0,56.633474758575595,50.18609312289758,88.61559940801314,0.11324919401608768,0.10035645210209984,0.203125,,
3.5157649999998974,1350,,,,-0.03125,0.037109375,-0.947265625,0.17790156010602923,5.6835345969844715,22.95826016573777,2.459992843419479,2694,0,56.477155705077415,50.179893566102244,88.84989504099791,0.11326318557247478,0.10063422150123454,0.201171875,,
3.5228900000001304,1350,,,,-0.125,-0.08203125,-0.96875,0.17790156010602923,5.6835345969844715,22.95816237248862,2.456289803264224,2693,0,56.39190013722818,50.17839683867166,88.98156777225785,0.11326656400079059,0.1007863644096713,0.201171875,,
3.531465000000084,1350,,,,-0.03125,0.1640625,-1.095703125,0.17790156010602923,5.6835345969844715,22.958347687409166,2.4495091130789577,2693,0,56.236681881543966,50.17770438574336,89.22593351335497,0.11326812708074574,0.10106454376088862,0.201171875,,
3.538975000000093,1350,,,,0,-0.125,-0.849609375,0.17790156010602923,5.6835345969844715,22.95849406679378,2.446146815668739,2693,0,56.15984715403724,50.16979425329349,89.33392235859543,0.11328598575250019,0.101202814555308,0.201171875,,
3.5468999999999067,1350,,,,-0.1875,0.15625,-1.0390625,0.17790156010602923,5.6835345969844715,22.958472344100908,2.4427047266546014,2692,0,56.08076891170423,50.15966518172297,89.4418285539136,0.11330886233776978,0.101345518388538,0.201171875,,
3.5561699999999257,1350,,,,-0.03125,0.05859375,-0.982421875,0.17790156010602923,5.6835345969844715,22.95872514235136,2.436888544060031,2692,0,55.94785428561903,50.15455255326486,89.64517619785948,0.11332041275711664,0.10158628368425884,0.19921875,,
3.570399999999907,1350,,,,0,-0.064453125,-0.923828125,0.17790156010602923,5.6835345969844715,22.95883503638152,2.433749108070737,2692,0,55.876044292136704,50.15262712782371,89.75693924503808,0.11332476327708377,0.10171683892419532,0.19921875,,
3.577620000000112,1350,,,,-0.103515625,0.080078125,-1.00390625,0.17790156010602923,5.6835345969844715,22.958852201861713,2.4292013337769314,2692,0,55.771674390749915,50.15227426855129,89.92427574824498,0.11332556060271058,0.10190718960962596,0.19921875,,
3.5861149999999906,1350,,,,0.0625,-0.01953125,-0.93359375,0.17790156010602923,5.6835345969844715,22.95884281417075,2.4364275087679332,2692,0,55.93755620192461,50.15994734971827,89.67132416126618,0.11330822493409962,0.10160498568203309,0.19921875,,
3.5939250000000467,1350,,,,-0.0625,0.150390625,-1.041015625,0.17790156010602923,5.6835345969844715,22.95870914751562,2.4420811116746948,2693,0,56.06702995758093,50.17018405327949,89.48250708346266,0.1132851055708446,0.1013703526169392,0.19921875,,
3.6016949999998324,1350,,,,-0.0625,0.13671875,-0.984375,0.17790156010602923,5.6835345969844715,22.958478010485326,2.4412238670960593,2694,0,56.046784471396826,50.195483277002744,89.55996985450564,0.11322800829747973,0.10140697009807999,0.19921875,,
3.6101400000001305,1350,,,,0.03125,-0.119140625,-0.90625,0.17790156010602923,5.6835345969844715,22.95845184580849,2.4357822028370153,2696,0,55.921788410710946,50.23234328814854,89.8260672910227,0.11314492267226968,0.10163363437596856,0.19921875,,
3.6186800000001678,1350,,,,-0.15625,0.26953125,-1.05078125,0.17790156010602923,5.911729858014054,22.9585283752924,2.429529787958915,2696,0,55.77842857547288,50.22955955844901,90.05194452634,0.11769424040310252,0.10598595207849912,0.201171875,,
3.6274750000000933,1350,,,,0,-0.13671875,-0.9140625,0.17790156010602923,5.911729858014054,22.958902041149205,2.4249537568390656,2695,0,55.67427575758486,50.21219456487831,90.18921913508248,0.11773494286085444,0.10618422561534016,0.201171875,,
3.634850000000093,1350,,,,-0.1875,0.046875,-0.93359375,0.17618129046830533,5.911729858014054,22.959084459201897,2.42156047227888,2695,0,55.59681140611564,49.72839440687997,89.44468783224114,0.11888036862087308,0.10633217460675748,0.201171875,,
3.6434150000000374,1350,,,,0,0.1171875,-1.013671875,0.17618129046830533,5.911729858014054,22.959229188413733,2.42277356277861,2695,0,55.62501349946379,49.72909742750192,89.40060289240432,0.11887868800821351,0.10627826378992325,0.201171875,,
3.6528850000000093,1350,,,,-0.03125,-0.0625,-0.9140625,0.17618129046830533,5.911729858014054,22.959420009668342,2.4170747245765605,2695,0,55.49463379630668,49.7213250506364,89.59663601554479,0.1188972709796757,0.106527955112076,0.19921875,,
3.663920000000158,1350,,,,-0.125,0.1640625,-1.080078125,0.17618129046830533,5.911729858014054,22.95959609755051,2.4207619680871173,2695,0,55.57971703559167,49.71859279831658,89.45456265363532,0.1189038049004118,0.1063648786521952,0.19921875,,
3.676560000000056,1350,,,,0,-0.07421875,-0.86328125,0.17618129046830533,5.911729858014054,22.958923480638273,2.444620916692421,2695,0,56.12586456550908,49.72701865278605,88.59911386263917,0.1188836575804417,0.10532986714376562,0.19921875,,
3.684994999999879,1350,,,,-0.09375,0.19140625,-1.021484375,0.17618129046830533,5.911729858014054,22.95877772582177,2.4487494814416935,2698,0,56.220295050641155,49.774529370992006,88.53480638292089,0.11877018090821645,0.10515294970773431,0.19921875,,
3.69259999999986,1350,,,,-0.125,0.005859375,-0.98046875,0.17618129046830533,5.911729858014054,22.95928410608348,2.4366838981062346,2700,0,55.94451789334001,49.80999295895529,89.03462722463641,0.11868561922675777,0.10567129864779519,0.19921875,,
3.7008049999999346,1350,,,,-0.03125,0.07421875,-0.93359375,0.17618129046830533,5.911729858014054,22.95951626632796,2.4406681167615054,2700,0,56.03655932749381,49.806796243567184,88.8826809520583,0.11869323674432453,0.10549773092712919,0.19921875,,
3.709310000000056,1350,,,,-0.125,0.140625,-1.01953125,0.17618129046830533,5.911729858014054,22.959045054317908,2.454151156314032,2700,0,56.34496696792025,49.805534894414066,88.39393751489928,0.1186962427076972,0.10492028261157506,0.197265625,,
3.717405000000028,1350,,,,-0.03125,-0.05078125,-0.9140625,0.17618129046830533,5.911729858014054,22.958425522050607,2.4657949501970657,2703,0,56.61076971674782,49.86658753544299,88.08675060408228,0.11855092057005616,0.10442765374138906,0.197265625,,
3.7253349999999625,1350,,,,-0.25,0.18359375,-1.01171875,0.17618129046830533,5.911729858014054,22.95843730580144,2.458345997939662,2704,0,56.4397824696656,49.88983727402198,88.39480786595166,0.11849567328800123,0.1047440227323945,0.197265625,,
3.733409999999916,1350,,,,-0.03125,0.123046875,-1.05078125,0.17618129046830533,5.911729858014054,22.95871214356948,2.4503346059659985,2707,0,56.256526873800105,49.93760021802151,88.76765593803222,0.11838233780165963,0.10508522631117628,0.19921875,,
3.7412749999999066,1350,,,,0.03125,-0.0390625,-0.9140625,0.17618129046830533,5.911729858014054,22.958774967524775,2.453084167973715,2708,0,56.31980738890627,49.9561769241687,88.70090158370985,0.1183383161403204,0.10496715333544503,0.19921875,,
3.748915000000037,1350,,,,-0.1875,0.177734375,-1.087890625,0.17618129046830533,5.911729858014054,22.958641672256594,2.4649537224129476,2707,0,56.591989251573914,49.94836537347616,88.2604871008082,0.11835682336770388,0.10446230882137862,0.19921875,,
3.757439999999944,1350,,,,0,-0.0546875,-0.87109375,0.17618129046830533,5.911729858014054,22.958310474183552,2.4732096638494867,2707,0,56.78071533040765,49.94517284195776,87.96150691537825,0.11836438882133067,0.10411510005841998,0.19921875,,
3.767070000000065,1350,,,,-0.09375,0.0078125,-0.986328125,0.17618129046830533,6.006494319892079,22.95890353121635,2.4583959719355963,2710,0,56.44207596120022,49.99492094478117,88.57739566338596,0.12014209056408319,0.10641873491721146,0.19921875,,
3.7761699999999254,1350,,,,0.03125,0.09375,-0.962890625,0.17618129046830533,6.006494319892079,22.95935618424228,2.447743657656299,2710,0,56.19861848385098,49.99415987171694,88.95976666416287,0.12014391951588962,0.10687975046251508,0.197265625,,
3.7840949999999722,1350,,,,-0.0625,-0.01171875,-1.0234375,0.175485263410779,6.006494319892079,22.959756082629948,2.4360097697202137,2709,0,55.93019012767965,49.78827693822532,89.01860841982958,0.12064073491325321,0.10739270340723349,0.197265625,,
3.791465000000084,1350,,,,0.03125,0.005859375,-0.94921875,0.175485263410779,6.006494319892079,22.96002262921465,2.4300483907565256,2708,0,55.79396604185647,49.76684440956119,89.1975386231304,0.1206926899053723,0.10765490869363946,0.197265625,,
3.799695000000065,1350,,,,-0.03125,0.037109375,-0.984375,0.175485263410779,6.006494319892079,22.960119397982865,2.4238221800661766,2707,0,55.65124665379854,49.746539490301714,89.38980253177529,0.12074195273548764,0.10793099312326185,0.197265625,,
3.807554999999935,1350,,,,0,-0.01171875,-0.9375,0.175485263410779,6.006494319892079,22.960113016281753,2.4160705123441812,2705,0,55.47325201872816,49.71153011730926,89.6135133749258,0.12082698532348442,0.10827730665338035,0.197265625,,
3.8176049999999813,1350,,,,-0.03125,0.11328125,-1.05078125,0.175485263410779,6.006494319892079,22.960197055095428,2.410164957597956,2704,0,55.337862361734786,49.68801069825056,89.79026037082522,0.12088417780234376,0.10854221799585577,0.197265625,,
3.8274799999999813,1350,,,,-0.125,0.015625,-0.966796875,0.175485263410779,6.006494319892079,22.96039868675113,2.402438631729826,2702,0,55.16094880496968,49.65742067230404,90.02278196460283,0.120958645023666,0.10889033727699277,0.197265625,,
3.8357300000002144,1350,,,,-0.0625,0.080078125,-0.95703125,0.175485263410779,6.006494319892079,22.960379147030203,2.399139713885624,2701,0,55.085157457511485,49.63501581047647,90.1059706487381,0.12101324481948263,0.1090401588581286,0.1953125,,
3.8433000000000463,1350,,,,-0.25,0.1640625,-1.07421875,0.175485263410779,6.006494319892079,22.96049212412095,2.3973824999550444,2699,0,55.04508200872319,49.603404420885795,90.11414391757098,0.12109036446222249,0.1091195453017984,0.197265625,,
3.8506100000001022,1350,,,,0,-0.103515625,-0.869140625,0.175485263410779,6.006494319892079,22.96055734606675,2.396108262073922,2699,0,55.01598115873262,49.59187206627105,90.14084820770191,0.1211185234520977,0.10917726437636523,0.197265625,,
3.858435000000056,1350,,,,-0.03125,0.169921875,-1.03125,0.175485263410779,6.006494319892079,22.96033431168872,2.3896274943372697,2698,0,54.86664615038676,49.57140035180275,90.34888011184428,0.12116854228980124,0.10947442100668184,0.197265625,,
3.867280000000028,1350,,,,-0.1875,0.0625,-1.0546875,0.175485263410779,6.006494319892079,22.960390635873978,2.3879148684531146,2697,0,54.827458184895136,49.562713932109794,90.39761384700527,0.12118977843141678,0.10955266792847343,0.197265625,,
3.875630000000121,1350,,,,0.09375,-0.083984375,-0.939453125,0.175485263410779,6.006494319892079,22.960087072681176,2.3851052379700644,2697,0,54.76222394130063,49.56734683665767,90.51375796897634,0.12117845120267684,0.109683170032145,0.197265625,,
3.883969999999972,1350,,,,-0.125,0.2578125,-1.033203125,0.175485263410779,6.006494319892079,22.960017202010977,2.3821250257689717,2697,0,54.69363156899643,49.56925451924013,90.63076101777617,0.12117378762597045,0.1098207258794809,0.197265625,,
3.892024999999907,1350,,,,-0.03125,-0.08984375,-0.9140625,0.175485263410779,6.006494319892079,22.960016314861015,2.3820584632478594,2694,0,54.69210117912361,49.51423144678088,90.53269188655864,0.1213084429341897,0.10982379887399177,0.197265625,,
3.8999750000000932,1350,,,,-0.125,0.0703125,-0.97265625,0.175485263410779,6.006494319892079,22.960015647802734,2.379174239689817,2693,0,54.62587777212737,49.496693159822605,90.61033923573507,0.12135142645787221,0.10995693918088158,0.197265625,,
3.9085699999998322,1350,,,,-0.03125,0.234375,-1.01953125,0.175485263410779,6.006494319892079,22.959357697353017,2.3962528912053807,2696,0,55.01642726250068,49.53596656104748,90.03850127289401,0.12125521589428873,0.10917637910642954,0.197265625,,
3.918,1350,,,,-0.0625,-0.2734375,-0.94140625,0.175485263410779,6.046194244609432,22.958938760781844,2.415030002990014,2696,0,55.446525944098525,49.550356381530676,89.36602526096513,0.12202120602432402,0.1090455017994317,0.19921875,,
3.9261149999999905,1350,,,,0.03125,0.150390625,-0.939453125,0.175485263410779,6.046194244609432,22.959154113796195,2.4124435168857654,2699,0,55.38766249500878,49.60243930872054,89.55503278945997,0.12189308285785168,0.1091613903214327,0.19921875,,
3.939054999999935,1350,,,,-0.0625,-0.009765625,-0.96875,0.1782291807854246,6.046194244609432,22.958913158762645,2.4055528591867708,2701,0,55.22887919288225,50.40550234913409,91.26656757436102,0.11995107602996243,0.10947522986105881,0.201171875,,
3.9577700000000187,1350,,,,-0.125,0.001953125,-1.03515625,0.1782291807854246,6.046194244609432,22.959243554709587,2.3962894786114397,2701,0,55.0169937670281,50.41232630726325,91.63046334508294,0.11993483910577472,0.10989684878480112,0.201171875,,
3.9680800000000747,1350,,,,0.125,-0.140625,-0.91796875,0.1782291807854246,6.046194244609432,22.959276983061166,2.3927398225204417,2701,0,54.93557633364744,50.408034662475636,91.7584524030947,0.11994505013126994,0.11005972173456938,0.201171875,,
3.9828599999998695,1350,,,,-0.125,-0.166015625,-0.908203125,0.1782291807854246,6.046194244609432,22.95935041425619,2.3874677059024103,2700,0,54.81470766253378,50.39801275560288,91.94250029732487,0.1199689018281234,0.11030240792001973,0.203125,,
3.9910250000001395,1350,,,,-0.0625,0.1640625,-0.984375,0.1782291807854246,6.046194244609432,22.959606708297535,2.386388599562846,2700,0,54.79054369912789,50.3969386316736,91.9810887594382,0.11997145875859817,0.110351053966739,0.203125,,
3.9988249999999534,1350,,,,0.0625,0.125,-0.9453125,0.1782291807854246,6.046194244609432,22.95979662264659,2.38334131545024,2698,0,54.72103188508849,50.360823984551715,92.03193406569342,0.12005749243626583,0.11049123227986904,0.201171875,,
4.007674999999813,1350,,,,-0.03125,-0.158203125,-0.94921875,0.1782291807854246,6.046194244609432,22.95980786797921,2.3817736979937627,2697,0,54.685066490943136,50.34290528306485,92.0596947457357,0.1201002248601522,0.11056390039519828,0.201171875,,
4.016944999999833,1350,,,,0.03125,0.251953125,-1,0.1782291807854246,6.046194244609432,22.959890858908867,2.378896383824896,2697,0,54.61920133727259,50.344615642790416,92.17384071933479,0.12009614469020731,0.11069722911681354,0.201171875,,
4.024795000000158,1350,,,,0.03125,-0.11328125,-0.86328125,0.1782291807854246,6.046194244609432,22.959969123228113,2.3771217969256213,2697,0,54.5786430595648,50.345234243012776,92.24347001091276,0.12009466904900856,0.11077949002892716,0.201171875,,
4.033449999999953,1350,,,,-0.1875,-0.05078125,-1.0234375,0.1782291807854246,6.046194244609432,22.959769201814805,2.376875242906418,2696,0,54.572506998638865,50.3221165262954,92.21148027439993,0.12014983991084802,0.11079194592911475,0.201171875,,
4.041385000000009,1350,,,,0,0.1875,-0.958984375,0.1782291807854246,6.046194244609432,22.959975842273376,2.3732570829205764,2696,0,54.48992529136061,50.31334239791797,92.33512824414747,0.12017079280464642,0.11095985564817902,0.201171875,,
4.048045000000158,1350,,,,-0.0625,-0.1328125,-0.9765625,0.1782291807854246,6.046194244609432,22.959920585990996,2.3730307847743237,2696,0,54.48459836653036,50.31718345915342,92.35120560246808,0.1201616193306532,0.11097070412330655,0.201171875,,
4.057004999999888,1350,,,,-0.09375,0.0234375,-0.931640625,0.1782291807854246,6.046194244609432,22.959775375388983,2.371766510962759,2696,0,54.455226334574995,50.31917009425855,92.40466614736967,0.12015687526808609,0.11103055944458634,0.201171875,,
4.064510000000009,1350,,,,0.0625,0.234375,-1.05859375,0.1782291807854246,6.0686205047550565,22.959785075151075,2.3707600734349827,2696,0,54.432141750816584,50.31265538550345,92.43188632155682,0.12061817167582065,0.11148965132653477,0.201171875,,
4.072755000000121,1350,,,,0,-0.05859375,-0.841796875,0.1782291807854246,6.0686205047550565,22.959599845981863,2.370301058878663,2696,0,54.421163826361195,50.309594096021314,92.44490664797532,0.12062551117332485,0.11151214119782318,0.19921875,,
4.080590000000083,1350,,,,-0.09375,0.166015625,-1.09765625,0.1782291807854246,6.0686205047550565,22.959619459437413,2.3708200368116747,2695,0,54.43312585200545,50.293090274034384,92.39427184610501,0.12066509478118508,0.11148763569548842,0.201171875,,
4.089960000000196,1350,,,,-0.0625,0.13671875,-0.9453125,0.1783791761965204,6.0686205047550565,22.959494205975794,2.370897199249773,2694,0,54.4346005091394,50.328492764509164,92.45680558647467,0.1205802155282216,0.11148461544668,0.201171875,,
4.098880000000121,1350,,,,-0.09375,-0.078125,-0.921875,0.1783791761965204,6.0686205047550565,22.95974540837206,2.3695184633784674,2695,0,54.40354065960659,50.33416233181355,92.52001197265004,0.12056663354700162,0.11154826379270699,0.19921875,,
4.110054999999935,1350,,,,-0.125,0.173828125,-1.060546875,0.1783791761965204,6.0686205047550565,22.959685833030996,2.3696685431069198,2695,0,54.406845278151145,50.3361604208435,92.51806489331157,0.12056184766611888,0.11154148846031531,0.19921875,,
4.120395000000019,1350,,,,0.0625,-0.076171875,-0.880859375,0.1783791761965204,6.0686205047550565,22.959706659115653,2.367830029224209,2693,0,54.36468288963308,50.31050296473933,92.54262195711831,0.12062333205073136,0.11162799417178786,0.19921875,,
4.12773999999999,1350,,,,0.09375,0.1015625,-1.046875,0.1783791761965204,6.0686205047550565,22.959942068169845,2.3683093106866817,2693,0,54.37624457287347,50.30873435186048,92.5196926471047,0.12062757258632231,0.11160425940452852,0.19921875,,
4.1382250000000935,1350,,,,-0.125,-0.056640625,-0.88671875,0.1783791761965204,6.0686205047550565,22.95994543612169,2.36419402869423,2693,0,54.28176589922423,50.31083971615342,92.68460390466485,0.12062252466850779,0.1117985092088131,0.201171875,,
4.147074999999953,1350,,,,-0.09375,0.0703125,-1,0.1783791761965204,6.0686205047550565,22.9600279363953,2.372664079800769,2693,0,54.4764335559073,50.31158197419309,92.35476460212844,0.12062074509737948,0.1113990051960182,0.201171875,,
4.154495000000112,1350,,,,0.0625,0.25,-1.0546875,0.1783791761965204,6.0686205047550565,22.95957422570489,2.3843271727436663,2694,0,54.743136700973295,50.32450910882992,91.92843549269107,0.12058976058030257,0.11085628026585406,0.201171875,,
4.16276500000013,1350,,,,-0.041015625,-0.046875,-0.92578125,0.1783791761965204,6.0686205047550565,22.95959711289853,2.383794705652904,2696,0,54.730966041651214,50.356699483403176,92.00769349673246,0.12051267392445338,0.11088093164912768,0.201171875,,
4.169864999999991,1350,,,,0.125,0.171875,-1.03125,0.1783791761965204,6.0686205047550565,22.959673047796013,2.384237437661999,2696,0,54.74131203703442,50.367254288965796,92.00958547520852,0.12048741966235273,0.11085997538110563,0.201171875,,
4.177594999999972,1350,,,,-0.0625,0.12890625,-0.98046875,0.1783791761965204,6.0686205047550565,22.959859363551026,2.3810087052752165,2697,0,54.66762501650968,50.37177220158989,92.1418704148526,0.12047661298213193,0.11100940461419948,0.201171875,,
4.185645000000019,1350,,,,-0.0625,-0.083984375,-0.94921875,0.1783791761965204,6.0686205047550565,22.96016562932703,2.3790553553005793,2697,0,54.623504999038765,50.37391297980288,92.22021358880089,0.12047149299654832,0.11109906815503416,0.201171875,,
4.193880000000121,1350,,,,-0.15625,0.14453125,-1.01171875,0.1783791761965204,6.0686205047550565,22.960091994857773,2.3765844542345125,2698,0,54.56659770277326,50.40554018915878,92.37435044735618,0.12039590255319385,0.11121493294874474,0.201171875,,
4.202035000000149,1350,,,,0,-0.01953125,-0.87890625,0.1783791761965204,6.0686205047550565,22.96028802524566,2.372010264389372,2699,0,54.46203886921909,50.41810206717996,92.57476053779416,0.12036590541763909,0.11142844870952721,0.19921875,,
4.209820000000065,1350,,,,-0.125,-0.095703125,-0.947265625,0.1783791761965204,6.0686205047550565,22.960274265572146,2.366191349073275,2697,0,54.32840233954655,50.37732461101746,92.72741778078566,0.1204633344786209,0.11170253943465602,0.19921875,,
4.218320000000065,1350,,,,-0.0625,0.19921875,-1.03125,0.1783791761965204,6.0796883739583665,22.960150754689625,2.36486984563235,2696,0,54.29776817093834,50.35985151658098,92.74755337648475,0.1207249066641237,0.1119693972470195,0.19921875,,
4.224804999999935,1350,,,,0.1875,-0.13671875,-0.828125,0.1783791761965204,6.0796883739583665,22.960144446619214,2.3660938611351003,2696,0,54.32585682592089,50.35433338353118,92.6894416868272,0.12073813643110966,0.11191150456107526,0.201171875,,
4.232150000000139,1350,,,,-0.0625,-0.14453125,-0.94921875,0.17491952001861025,6.0796883739583665,22.960051357955663,2.3644759352879015,2696,0,54.28848890886047,49.37527046447532,90.94979701381362,0.12313225460370086,0.11198853562059811,0.201171875,,
4.2394150000000375,1350,,,,-0.0625,0.171875,-1.05078125,0.17491952001861025,6.0796883739583665,22.96004913058695,2.3634751824494744,2695,0,54.26550630796289,49.35999719557013,90.96017074906952,0.12317035493073317,0.11203596515722986,0.201171875,,
4.247930000000168,1350,,,,-0.0625,-0.0390625,-0.935546875,0.17491952001861025,6.0796883739583665,22.960046753916718,2.365621613858053,2694,0,54.31478285625681,49.353053939961704,90.86486467335008,0.12318768320506256,0.11193432163851529,0.201171875,,
4.2559750000000935,1350,,,,-0.125,-0.03515625,-0.9375,0.17491952001861025,6.0796883739583665,22.959915115090794,2.365731614647081,2694,0,54.31699705738367,49.350352187936,90.85618657415722,0.12319442728201208,0.11192975870030936,0.19921875,,
4.264905000000028,1350,,,,-0.09375,0.24609375,-1.0859375,0.17491952001861025,6.0796883739583665,22.95991983532879,2.364657335712298,2694,0,54.29234286597652,49.34920696816459,90.89533507512408,0.12319728618699796,0.11198058608313136,0.201171875,,
4.276989999999991,1350,,,,0.09375,-0.16015625,-0.888671875,0.17491952001861025,6.0796883739583665,22.95953055535729,2.3638559629541867,2694,0,54.27302320991018,49.348819075219126,90.92697652819919,0.12319825454569647,0.1120204479939165,0.201171875,,
4.286830000000075,1350,,,,-0.125,0.24609375,-1.080078125,0.17491952001861025,6.0796883739583665,22.959569414697544,2.3609613650446275,2694,0,54.20665634616119,49.348629162994975,91.03795085211846,0.1231987286592621,0.11215759804725382,0.203125,,
4.2951799999999345,1350,,,,-0.125,-0.07421875,-1.021484375,0.17491952001861025,6.0796883739583665,22.95966955636817,2.359138817415056,2694,0,54.165047685450865,49.34858880220237,91.10781013021754,0.1231988294199618,0.1122437555905894,0.203125,,
4.303215000000084,1350,,,,0.03125,0.091796875,-0.91796875,0.17491952001861025,6.0796883739583665,22.959856282720885,2.35867397711962,2694,0,54.15481553246016,49.3415846746268,91.1120907522096,0.12321631771759367,0.11226496322038486,0.203125,,
4.311295000000158,1350,,,,-0.0625,0.25390625,-1.10546875,0.17491952001861025,6.0796883739583665,22.959864215230176,2.3596549060201735,2693,0,54.1773562370249,49.338107099948694,91.06776433330451,0.12322500256530289,0.11221825493587849,0.203125,,
4.318445000000065,1350,,,,-0.03125,-0.15625,-0.927734375,0.17491952001861025,6.0796883739583665,22.960045903699992,2.359730580021279,2693,0,54.17952243765317,49.336996192433865,91.06207285087864,0.12322777718864701,0.11221376823604415,0.203125,,
4.326860000000102,1350,,,,0.0625,0.12890625,-0.9609375,0.17491952001861025,6.0796883739583665,22.96014042445589,2.3582370611091665,2693,0,54.14545407722263,49.336492174899185,91.11843831715795,0.12322903607345469,0.11228437322341912,0.203125,,
4.334229999999981,1350,,,,-0.1875,0.125,-0.92578125,0.17491952001861025,6.0796883739583665,22.960327345330885,2.356180137795034,2692,0,54.09866724834082,49.31391871063461,91.15551494874774,0.12328544420963394,0.11238148152614293,0.201171875,,
4.341824999999954,1350,,,,-0.0625,-0.140625,-0.95703125,0.17491952001861025,6.0796883739583665,22.960313167581166,2.3572544326645524,2692,0,54.123299989646995,49.305464728420276,91.09840814926604,0.12330658290000783,0.1123303341651622,0.203125,,
4.349510000000009,1350,,,,0,0.30078125,-1.10546875,0.17491952001861025,6.0796883739583665,22.960232378286957,2.3567119693079275,2692,0,54.11065446400029,49.309039218226175,91.1263035102105,0.12329764421187753,0.11235658548545502,0.203125,,
4.365665000000037,1350,,,,-0.1875,-0.02734375,-0.98046875,0.17491952001861025,6.0840801362786205,22.9603195878997,2.355827023222623,2692,0,54.09054134700183,49.311000937044824,91.16381479842237,0.12338180163988445,0.1124795571419411,0.203125,,
4.373699999999953,1350,,,,-0.03125,0.091796875,-1.04296875,0.17491952001861025,6.0840801362786205,22.9603691973102,2.354506835136369,2692,0,54.06034621232141,49.311221686160856,91.215142227339,0.12338124930265339,0.11254238203328301,0.201171875,,
4.3820200000000185,1350,,,,-0.03125,-0.009765625,-0.892578125,0.17491952001861025,6.0840801362786205,22.960448826106074,2.3538893393216176,2692,0,54.046355717810634,49.311308900677446,91.2389156414985,0.1233810310842314,0.11257151486855294,0.19921875,,
4.389885000000009,1350,,,,-0.25,0.05078125,-0.9921875,0.17356767735992984,6.0840801362786205,22.960492301651104,2.355643380210419,2692,0,54.08673169675671,48.93024726737635,90.46626729399965,0.1243419045694279,0.1124874797462286,0.201171875,,
4.398434999999823,1350,,,,0.03125,0.140625,-1.064453125,0.17356767735992984,6.0840801362786205,22.96056610645323,2.354332159431042,2692,0,54.056799183165225,48.9352175462524,90.52555513033812,0.12432927534302046,0.11254976669379586,0.201171875,,
