Time (s),ESC signal (µs),Servo 1 (µs),Servo 2 (µs),Servo 3 (µs),AccX (g),AccY (g),AccZ (g),Torque (N·m),Thrust (N),Voltage (V),Current (A),Motor Electrical Speed (RPM),Motor Optical Speed (RPM),Electrical Power (W),Mechanical Power (W),Motor Efficiency (%),Propeller Mech. Efficiency (N/W),Overall Efficiency (N/W),Vibration (g),App message,90% settling time (s),Max acceleration (RPM/s),
0,1000,,,,-0.03125,0.056640625,-0.97265625,0.018986682462742696,0.14748086070333213,23.039482524507484,0.073276536748154,0,0,1.6882534878655246,0,0,0,0,0.080078125,,
0,1140,,,,-0.0625,0.076171875,-0.978515625,0.018986682462742696,0.14748086070333213,23.039246421378813,0.0721432648848299,0,0,1.662126457324401,0,0,0,0,0.080078125,,
0.00803000000026077,1140,,,,-0.03125,0.033203125,-0.96875,0.018986682462742696,0.14748086070333213,23.039164590075092,0.07157459323342538,0,0,1.6490188339725624,0,0,0,0,0.080078125,,
0.016205000000307338,1140,,,,-0.0625,0.08203125,-0.99609375,0.018986682462742696,0.14748086070333213,23.039210930991594,0.07255408132584519,0,0,1.6715887835704655,0,0,0,0,0.080078125,,
0.024930000000167638,1140,,,,-0.03125,0.033203125,-0.96484375,0.018986682462742696,0.14748086070333213,23.039253977647363,0.07275391337620919,0,0,1.6761958881422392,0,0,0,0,0.080078125,,
0.032710000000195576,1140,,,,-0.03125,0.03515625,-0.9296875,0.018986682462742696,0.14748086070333213,23.03919325077954,0.07292210308949189,0,0,1.6800664253320714,0,0,0,0,0.080078125,,
0.04057500000018627,1140,,,,-0.0625,0.037109375,-0.982421875,0.018986682462742696,0.14748086070333213,23.039102162593885,0.07244619990029041,0,0,1.6690954007944898,0,0,0,0,0.080078125,,
0.04995000000018626,1140,,,,0.125,-0.14453125,-1.0390625,0.018986682462742696,0.14748086070333213,23.036419596328493,0.1551971804903486,0,0,3.575187369942797,0,0,0,0,0.080078125,,
0.06172000000020489,1140,,,,-0.125,0.013671875,-0.916015625,0.018986682462742696,0.14748086070333213,23.03199621643455,0.28403389495502857,0,0,6.541867593943386,0,0,0,0,0.087890625,,
0.06930500000016764,1140,,,,-0.25,0.21875,-0.98828125,0.018914698857812176,0.14748086070333213,23.030243601397725,0.3459590081345378,0,0,7.967520233436343,0,0,0,0,0.09375,,
0.07815500000026077,1140,,,,0.09375,-0.162109375,-0.884765625,0.018914698857812176,0.14748086070333213,23.028356329608844,0.4053350007164937,0,0,9.334198829361673,0,0,0,0,0.1015625,,
0.08625000000023283,1140,,,,-0.03125,0.11328125,-1.1171875,0.018914698857812176,0.14748086070333213,23.026967440479353,0.43035217605634335,0,0,9.909705545988857,0,0,0,0,0.103515625,,
0.0940500000002794,1140,,,,-0.28125,0.01171875,-0.923828125,0.018914698857812176,0.14748086070333213,23.026098368508887,0.46404160707816366,0,0,10.685067691662747,0,0,0,0,0.107421875,,
0.10168000000016764,1140,,,,0.125,0.0625,-0.953125,0.018914698857812176,0.14748086070333213,23.023891351991566,0.5092690833044804,0,0,11.725356042930699,0,0,0,0,0.109375,,
0.10968000000016764,1140,,,,-0.25,0.34375,-1.078125,0.018914698857812176,0.14748086070333213,23.02163525956348,0.5855535508559923,0,0,13.48040027274891,0,0,0,0,0.11328125,,
0.11994000000017695,1140,,,,0.3125,-0.625,-0.84765625,0.018914698857812176,0.14748086070333213,23.019699253699706,0.6482026913733385,0,0,14.92143101085298,0,0,0,0,0.119140625,,
0.12839500000025145,1140,,,,-0.25,0.111328125,-0.96875,0.018914698857812176,0.1452163879097442,23.018950178448804,0.6671029660329478,0,0,15.356009939007851,0,0,0,0,0.123046875,,
0.13756500000017696,1140,,,,-0.0625,0.0625,-0.998046875,0.018914698857812176,0.1452163879097442,23.019007751541313,0.6839531141898241,0,0,15.743922037226382,0,0,0,0,0.123046875,,
0.14537000000034458,1140,,,,-0.125,-0.064453125,-0.9296875,0.018914698857812176,0.1452163879097442,23.01879467049909,0.6899122595678935,2,0,15.880948643653412,0.0038716603276178147,0.024379276166005784,0,0.009144062560001906,0.123046875,,
0.15313500000024213,1140,,,,0.1875,0.0625,-1.04296875,0.018914698857812176,0.1452163879097442,23.0187229034307,0.693453383469883,4,0,15.962411280539706,0.008564856309644063,0.05365640666135296,0,0.009097396712662216,0.123046875,,
0.16112000000011176,1140,,,,-0.125,0.0078125,-0.97265625,0.018914698857812176,0.1452163879097442,23.018785215027,0.698757377523451,5,0,16.084545990627852,0.01040694845364335,0.06470153686468536,0,0.009028317491482751,0.125,,
0.1693100000000559,1140,,,,-0.0625,0.056640625,-0.9375,0.018914698857812176,0.1452163879097442,23.01877927688605,0.696041818135883,6,0,16.022032979152353,0.011148418198379407,0.0695817953494764,0,0.009063543190723534,0.125,,
0.17705000000004656,1140,,,,0.125,0.10546875,-0.98828125,0.018914698857812176,0.1452163879097442,23.019092381066688,0.6888269726911432,6,0,15.856171718947927,0.011426935601724916,0.07206616959167937,0,0.009158351112974668,0.125,,
0.18588000000012106,1140,,,,-0.125,0.021484375,-0.943359375,0.018914698857812176,0.1452163879097442,23.019333019979584,0.6782725636627406,6,0,15.61338202126793,0.011540725299576848,0.0739156019103134,0,0.009300764415546626,0.125,,
0.19429000000027008,1140,,,,0.125,0.03125,-1.01171875,0.018914698857812176,0.1452163879097442,23.019590658519704,0.6662354389979898,6,0,15.336467087932899,0.01158846549828578,0.07556150599640946,0,0.009468698825950857,0.125,,
0.20469500000029803,1140,,,,-0.08203125,0.03515625,-0.953125,0.018914698857812176,0.1452163879097442,23.02010191144231,0.6545268526191798,6,0,15.067274851069099,0.011604536428468483,0.07701815054926858,0,0.009637866790452846,0.125,,
0.22289500000025145,1140,,,,-0.0625,-0.05078125,-0.94140625,0.019361261804313707,0.1452163879097442,23.020987297109592,0.6274939059854558,521,0,14.445529238704859,1.0556949417161392,7.3081084415207584,0.137555255947026,0.01005268727162009,0.123046875,,
0.23176000000024213,1140,,,,0,0.041015625,-0.939453125,0.019361261804313707,0.1452163879097442,23.021450617640507,0.6117225175275803,622,0,14.08273972895992,1.2620194450411772,8.961462537335295,0.1150666802166476,0.010311657440570277,0.123046875,,
0.23959000000031666,1140,,,,-0.0625,0.06640625,-0.978515625,0.019361261804313707,0.1452163879097442,23.022005989915733,0.6012847911345639,648,0,13.842782063145162,1.3135099024873602,9.488771090201812,0.1105559902020926,0.010490404836782511,0.123046875,,
0.24823500000010246,1140,,,,-0.03125,0.0390625,-0.962890625,0.019361261804313707,0.1452163879097442,23.022478619542902,0.5869667289667039,660,0,13.513428968018973,1.3381414671213163,9.902308809171798,0.10852095348494184,0.010746079936736624,0.12109375,,
0.2569050000002608,1140,,,,-0.0625,0.08984375,-0.96875,0.019361261804313707,0.1452163879097442,23.02278258836878,0.5713845453659406,664,0,13.15486216231399,1.3470701331440553,10.240093104153823,0.10780165363091367,0.01103898969962298,0.12109375,,
0.2642550000001211,1140,,,,0,0.005859375,-0.970703125,0.019361261804313707,0.1452163879097442,23.02318031515288,0.5601413247786946,685,0,12.896234722348499,1.3892222001172105,10.772308584844236,0.10453071358742475,0.011260371033577096,0.12109375,,
0.272285000000149,1140,,,,-0.03125,0.046875,-0.98828125,0.019361261804313707,0.1452163879097442,23.023520192975916,0.5470606088443433,737,0,12.595260974509436,1.4943922546808426,11.8647184659788,0.09717421075683913,0.01152944652783585,0.119140625,,
0.2804550000000745,1140,,,,-0.0625,0,-0.97265625,0.019361261804313707,0.2532447917684307,23.02399859542831,0.5343629586966594,757,0,12.303172010480802,1.5348816939957681,12.475495690771748,0.16499303676569152,0.02058369919177729,0.119140625,,
0.28951500000036323,1140,,,,-0.03125,0.056640625,-0.986328125,0.019361261804313707,0.2532447917684307,23.02422586886023,0.5201805743501151,766,0,11.976755036430493,1.5522152779367115,12.960232326830056,0.1631505599565141,0.021144691612888393,0.119140625,,
0.2985600000002887,1140,,,,-0.0625,0.041015625,-0.9609375,0.019361261804313707,0.2532447917684307,23.02459405342743,0.5077933648129049,768,0,11.691736087841116,1.5577165546760963,13.323227132162621,0.16257437273053124,0.021660152937577334,0.1171875,,
0.3076150000002235,1140,,,,-0.15625,0.03125,-1.0234375,0.019361261804313707,0.2532447917684307,23.024397295527795,0.5350379447769349,770,0,12.31892620872681,1.5602369319540417,12.665364704017462,0.16231175315871207,0.020557375495035467,0.1171875,,
0.316570000000298,1140,,,,-0.03125,0.02734375,-0.94140625,0.019361261804313707,0.2532447917684307,23.023277556356003,0.5710910958610281,770,0,13.148388809971964,1.561032875896526,11.872427097019003,0.16222899317414322,0.01926051894482809,0.119140625,,
0.3254350000000559,1140,,,,-0.125,-0.12109375,-0.90625,0.019361261804313707,0.2532447917684307,23.022214723633972,0.5988498908701342,803,0,13.786850774837001,1.628169955715825,11.809585686438782,0.155539531287501,0.018368574223682693,0.12109375,,
0.3341250000002328,1140,,,,0,0.125,-0.978515625,0.019361261804313707,0.2532447917684307,23.021479936880247,0.6223901771341568,815,0,14.328342975805334,1.6525548225381381,11.533467794068176,0.1532444118129014,0.017674394882650196,0.12109375,,
0.3416250000002328,1140,,,,-0.0625,0.083984375,-0.935546875,0.019361261804313707,0.2532447917684307,23.02103319541797,0.6370586436868985,819,0,14.66574818374404,1.660237383172626,11.320509273525396,0.15253529063686858,0.01726777172194562,0.123046875,,
0.3492750000001397,1140,,,,0,-0.015625,-1.0390625,0.019361261804313707,0.2532447917684307,23.020643254086426,0.6454443020451213,820,0,14.858543017763543,1.6632120838567794,11.193641811773821,0.15226247706256912,0.01704371629611826,0.123046875,,
0.3596150000002235,1140,,,,-0.03125,0.03125,-0.986328125,0.019361261804313707,0.2532447917684307,23.020415017842247,0.6547534524536658,821,0,15.072696209848427,1.664607485133602,11.043860116055118,0.15213483901167557,0.016801558808235098,0.123046875,,
0.3674350000002887,1140,,,,-0.09375,0.068359375,-1.005859375,0.0840005213312045,0.2532447917684307,23.020062795420404,0.6626522011197046,886,0,15.25429528129915,7.794007854008877,51.09385724009068,0.0324922423112742,0.01660153990062678,0.123046875,,
0.3764000000001397,1140,,,,0,-0.015625,-0.982421875,0.0840005213312045,0.2532447917684307,23.020204077668446,0.668512270137347,926,0,15.389288886987146,8.149610431887373,52.95638084212266,0.031074465937359113,0.016455912526443572,0.12109375,,
0.3846250000002328,1140,,,,0.125,0.0859375,-0.9765625,0.0840005213312045,0.2532447917684307,23.0202596530975,0.6701242343629261,940,0,15.426433874867723,8.272222908640659,53.62368889492674,0.030613874234929842,0.01641628867842291,0.12109375,,
0.39376500000013037,1140,,,,-0.03125,0.03125,-0.96484375,0.0840005213312045,0.2532447917684307,23.020322930937628,0.6670939812804324,946,0,15.356718874360414,8.324923240928205,54.21029914682818,0.03042007528951037,0.01649081381513393,0.12109375,,
0.40117000000015834,1140,,,,-0.0625,0.03125,-0.96484375,0.0840005213312045,0.2532447917684307,23.02057710061837,0.6651231721811663,948,0,15.311519266604408,8.340315457717024,54.47085499809211,0.030363934440166943,0.016539494700619085,0.12109375,,
0.40946000000019556,1140,,,,0.0625,0.0703125,-0.9765625,0.0840005213312045,0.2532447917684307,23.020614360421195,0.6615504240644623,1004,0,15.229297192361091,8.831284570054631,57.9887860779573,0.02867587266150841,0.016628790453669554,0.119140625,,
0.4176050000002142,1140,,,,-0.09375,0.03125,-0.982421875,0.0840005213312045,0.2532447917684307,23.020879339604875,0.6574169579576014,1026,0,15.13431646495203,9.023701774796294,59.62411183678717,0.028064401737628076,0.016733150278368608,0.12109375,,
0.42557000000029804,1140,,,,-0.03125,0.05078125,-0.97265625,0.0840005213312045,0.4394468135227331,23.020836420417154,0.6484285913945211,1034,0,14.927368532814786,9.099127309001037,60.95600365863854,0.04829549017168092,0.029439000756007236,0.119140625,,
0.43395500000007453,1140,,,,-0.0625,0.0546875,-1.04296875,0.0840005213312045,0.4394468135227331,23.021056387320073,0.6418807190039489,1038,0,14.776772226123459,9.129014637907707,61.7794907995453,0.04813737637115352,0.029739026006359283,0.119140625,,
0.4436400000003632,1140,,,,-0.0625,0.095703125,-1,0.0840005213312045,0.4394468135227331,23.02122493098368,0.6322382725972913,1039,0,14.554899483438819,9.14178681791871,62.809000009382565,0.04807012264400856,0.03019236333598554,0.119140625,,
0.45254500000015835,1140,,,,0,0.0390625,-1.015625,0.0840005213312045,0.4394468135227331,23.02138839885263,0.624158047509223,1071,0,14.368984833979335,9.421992239574267,65.57173209128476,0.04664054080589962,0.03058301046317084,0.119140625,,
0.46189000000013036,1140,,,,0,0.00390625,-0.990234375,0.0840005213312045,0.4394468135227331,23.02168618530719,0.6141862105813305,1082,0,14.139602199346388,9.514533427638906,67.28996540000766,0.04618690100411837,0.031079149705007036,0.1171875,,
0.4709000000001397,1140,,,,-0.0625,0.05078125,-0.9765625,0.0840005213312045,0.4394468135227331,23.021954171656713,0.6045066585229638,1085,0,13.916924588977007,9.546245451217308,68.59450441212044,0.04603347104035505,0.03157643132382853,0.1171875,,
0.4788900000001304,1140,,,,-0.0625,0.05859375,-0.9453125,0.0840005213312045,0.4394468135227331,23.02231438660699,0.5942869609478809,1086,0,13.681861250803346,9.557260454503881,69.85351100489136,0.04598041620971444,0.03211893509714773,0.1171875,,
0.48799500000034457,1140,,,,-0.03125,0.0390625,-0.978515625,0.0840005213312045,0.4394468135227331,23.022628851611955,0.5837665025694457,1105,0,13.439839524659925,9.724026369890339,72.352250575971,0.04519185744738873,0.032697325940270305,0.1171875,,
0.49554500000015833,1140,,,,-0.0625,0.068359375,-1.009765625,0.0840005213312045,0.4394468135227331,23.022794431656187,0.5735499258280685,1112,0,13.204722038631274,9.780065880830112,74.0649129320397,0.044932909335927064,0.03327952017748672,0.1171875,,
0.5034800000002142,1140,,,,-0.0625,0.0234375,-0.96484375,0.0840005213312045,0.4394468135227331,23.023048726803925,0.5638822688641811,1114,0,12.982288952240793,9.80209387393002,75.50358731029586,0.04483193276606958,0.033849717498922474,0.115234375,,
0.5141200000001117,1140,,,,0,0.08984375,-0.9921875,0.10943551396953304,0.4394468135227331,23.02329089955675,0.5550051336795966,1115,0,12.778044643452732,12.781480112478079,100.02688571781681,0.03438152777734386,0.03439077149788318,0.115234375,,
0.5213650000002236,1140,,,,-0.09375,0.060546875,-0.982421875,0.10943551396953304,0.4394468135227331,23.02369681472902,0.5447437071373089,1121,0,12.542013954860938,12.849948571541997,102.4552246376804,0.03419833247394852,0.03503797835852476,0.115234375,,
0.5367100000001955,1140,,,,-0.0625,0.02734375,-0.91015625,0.10943551396953304,0.4394468135227331,23.023943692736285,0.5290997830287987,1131,0,12.181963612294046,12.956217344873764,106.35573834581432,0.03391783279219254,0.0360735614970351,0.11328125,,
0.5445150000001304,1140,,,,-0.03125,0.03515625,-0.958984375,0.10943551396953304,0.4394468135227331,23.02424156219432,0.5205981249128774,1132,0,11.9863769848195,12.969520059634648,108.20217048120777,0.03388304359005805,0.03666218858953656,0.11328125,,
0.5521100000001025,1140,,,,-0.0625,0.0859375,-0.984375,0.10943551396953304,0.4394468135227331,23.024293961158854,0.5112593779259235,1132,0,11.771386207765671,12.974687273835714,110.22225458269492,0.03386954955044702,0.03733178113150572,0.11328125,,
0.5590150000001304,1140,,,,0,0.0390625,-1.0078125,0.10943551396953304,0.4394468135227331,23.024456153383746,0.5039056625772664,1138,0,11.602153833452055,13.041154804181938,112.4028778741139,0.0336969248598916,0.03787631329759588,0.111328125,,
0.5683050000001676,1140,,,,-0.09375,0.0859375,-0.9609375,0.10943551396953304,0.4394468135227331,23.024761673117375,0.4943332871315085,1141,0,11.381906123291683,13.073561735909822,114.86267409249116,0.03361339644082469,0.03860924600524149,0.111328125,,
0.5751750000002794,1140,,,,0,0.05078125,-0.96875,0.10943551396953304,0.7454137405206818,23.02506865770779,0.4873724362172519,1142,0,11.221783805776537,13.083648173298757,116.59151877942794,0.0569729276305312,0.06642560161754069,0.111328125,,
0.5817800000000279,1140,,,,0,0.05859375,-1.046875,0.10943551396953304,0.7454137405206818,23.025453726977993,0.4817159448640733,1142,0,11.091728198015202,13.088145070955301,117.99915069409424,0.05695335255527346,0.0672044723070359,0.111328125,,
0.5898000000000466,1140,,,,-0.03125,-0.009765625,-0.990234375,0.10943551396953304,0.7454137405206818,23.025873390536148,0.4739528888648374,1142,0,10.913179212080596,13.090254437883912,119.94904677633582,0.05694417507756104,0.06830399520018225,0.111328125,,
0.5974650000000838,1140,,,,-0.0625,-0.01171875,-0.955078125,0.10943551396953304,0.7454137405206818,23.026055007019224,0.46705897048110817,1145,0,10.754525545819765,13.118770080014208,121.9837176835143,0.05682039825183631,0.0693116341901685,0.111328125,,
0.6058900000001304,1140,,,,0,-0.05859375,-0.953125,0.10943551396953304,0.7454137405206818,23.02634175846563,0.45983029877006093,1147,0,10.588209610376781,13.146275631207144,124.15957102250204,0.05670151466710385,0.07040035737393721,0.111328125,,
0.6147750000001397,1140,,,,-0.09375,0.041015625,-0.9453125,0.10943551396953304,0.7454137405206818,23.02650814810653,0.45382671954857307,1148,0,10.450044655513674,13.158105681900832,125.91434884403414,0.05665053606812183,0.0713311536068303,0.111328125,,
0.6232050000003073,1140,,,,-0.0625,0.048828125,-0.974609375,0.10943551396953304,0.7454137405206818,23.02666411495878,0.4479565926511379,1149,0,10.314945997059166,13.162290488888612,127.604065912136,0.056632524646827075,0.07226540407804388,0.109375,,
0.6319550000000745,1140,,,,-0.125,0.0859375,-1.00390625,0.10943551396953304,0.7454137405206818,23.026926512799605,0.44248391858795477,1149,0,10.189044676420437,13.1722854970116,129.27890607345162,0.0565895524121303,0.07315835431026461,0.111328125,,
0.6404250000000465,1140,,,,-0.0625,0.02734375,-0.92578125,0.10943551396953304,0.7454137405206818,23.027277411456726,0.4365692221355728,1151,0,10.05300058741971,13.194577866649704,131.2501451871131,0.056493943804354026,0.07414838326514075,0.109375,,
0.6483200000000652,1140,,,,-0.125,0.1171875,-1.10546875,0.10943551396953304,0.7454137405206818,23.027507260146702,0.43170710542326757,1152,0,9.941138504391212,13.202125351643685,132.8029515513945,0.0564616469444351,0.07498273363673755,0.111328125,,
0.6554200000001583,1140,,,,0,0.0625,-0.91015625,0.10943551396953304,0.7454137405206818,23.027644013432365,0.4269369600992462,1152,0,9.83135233334242,13.204932333277508,134.3145061386296,0.05644964485294471,0.07582006170124303,0.109375,,
0.6653850000000093,1140,,,,-0.125,0.0703125,-1.00390625,0.08817553445221225,0.7454137405206818,23.027860838015453,0.42115142251230847,1152,0,9.698216349345687,10.640680177768278,109.7179088862683,0.07005320412487213,0.07686091067363876,0.109375,,
0.6736700000001583,1140,,,,-0.03125,0.044921875,-0.939453125,0.08817553445221225,0.7454137405206818,23.027869356446413,0.4151255914038,1154,0,9.55945788536426,10.653827924906764,111.4480345294267,0.06996675239873515,0.07797657037246084,0.111328125,,
0.695285000000149,1140,,,,-0.125,0.1015625,-0.98828125,0.08817553445221225,0.7454137405206818,23.028108728156425,0.4055910248669355,1155,0,9.339994219800188,10.665358570741128,114.1902052587062,0.06989110919961161,0.07980880105262299,0.111328125,,
0.702690000000177,1140,,,,-0.09375,0.1171875,-0.984375,0.08817553445221225,0.7454137405206818,23.028104107946078,0.4028933439146207,1155,0,9.277869868064409,10.666059334335117,114.9623726783346,0.0698865173308309,0.08034319850577872,0.111328125,,
0.7105400000000373,1140,,,,-0.03125,0.029296875,-0.98828125,0.08817553445221225,0.7454137405206818,23.02829641044716,0.3973789220314883,1156,0,9.150959603805084,10.676880304811489,116.67498018865592,0.06981568765782308,0.08145743974333898,0.111328125,,
0.718160000000149,1140,,,,-0.125,0.109375,-0.97265625,0.08817553445221225,0.7454137405206818,23.028282322074034,0.39374801606638654,1157,0,9.067340477733293,10.681062186238353,117.79707856419293,0.06978835321088987,0.08220864126048841,0.111328125,,
0.7267000000001863,1140,,,,-0.03125,0.03125,-1.017578125,0.08817553445221225,0.9675326370450633,23.028268421394312,0.39285375776994713,1157,0,9.046741784279764,10.682776279059105,118.08423998153927,0.09056939991729188,0.10694818754817498,0.111328125,,
0.7347000000001863,1140,,,,-0.0625,0.080078125,-0.96875,0.08817553445221225,0.9675326370450633,23.028057055557788,0.3923264042533854,1157,0,9.034514821548788,10.683447139821318,118.2514761538667,0.0905637126652405,0.10709292708639323,0.111328125,,
0.7428650000002235,1140,,,,-0.0625,0.078125,-0.9609375,0.08817553445221225,0.9675326370450633,23.028248945856944,0.39099118378951675,1157,0,9.003842315940298,10.683707171036424,118.65719985035848,0.09056150843108546,0.10745775004657232,0.109375,,
0.750594999999972,1140,,,,-0.0625,0.048828125,-1.009765625,0.08817553445221225,0.9675326370450633,23.028434101854604,0.3879880911716051,1159,0,8.934758189849664,10.70349555957072,119.79614145271924,0.09039408029463113,0.10828862029464091,0.109375,,
0.7585150000001304,1140,,,,-0.0625,0.10546875,-0.9375,0.08817553445221225,0.9675326370450633,23.02860776496947,0.38495987797715675,1160,0,8.865090035186451,10.71120571907157,120.82455650825537,0.09032901266403158,0.10913962894960198,0.111328125,,
0.7664550000003073,1140,,,,-0.125,0.078125,-0.990234375,0.08817553445221225,0.9675326370450633,23.028643554727548,0.3811836013977077,1160,0,8.778141285495156,10.714290864942042,122.05648686295521,0.0903030027130309,0.11022067264328463,0.111328125,,
0.775535000000149,1140,,,,-0.03125,0.037109375,-0.951171875,0.08817553445221225,0.9675326370450633,23.028709718911433,0.37743013939356734,1160,0,8.69172911926274,10.715492347467375,123.28378163235139,0.09029287742188918,0.11131647383036858,0.111328125,,
0.7835550000001676,1140,,,,-0.03125,0.04296875,-1.01953125,0.08817553445221225,0.9675326370450633,23.028891050254206,0.37243642518645226,1162,0,8.57679785876496,10.730938516428377,125.11590797796426,0.09016290938242102,0.11280814273316521,0.111328125,,
0.7921550000002607,1140,,,,-0.125,0.07421875,-0.9921875,0.08817553445221225,0.9675326370450633,23.02897931213115,0.3701221665125927,1163,0,8.523535715579659,10.736183852847484,125.9592757172761,0.09011885883348127,0.11351306187132748,0.111328125,,
0.8005450000001584,1140,,,,-0.0625,0.03125,-1.0078125,0.08817553445221225,0.9675326370450633,23.029143902717454,0.367236480029166,1163,0,8.457141744919088,10.738332466195608,126.97354248138294,0.09010082711546388,0.11440421199353092,0.111328125,,
0.8084850000001025,1140,,,,-0.1875,0.11328125,-0.98046875,0.08817553445221225,0.9675326370450633,23.029153281460648,0.36456186413458275,1163,0,8.395551049730337,10.739069400205807,127.91381216782362,0.090094644236727,0.11524349400223591,0.111328125,,
0.8199200000001583,1140,,,,-0.03125,0.03515625,-1.00390625,0.07113442915690765,0.9675326370450633,23.02929415630255,0.3631815631239636,1163,0,8.36381504932752,8.663835250643922,103.5871214218268,0.11167486558255518,0.11568077860866331,0.111328125,,
0.8286850000002887,1140,,,,-0.0625,0.015625,-0.990234375,0.07113442915690765,0.9675326370450633,23.02948485378566,0.3578703934894096,1163,0,8.241570806482672,8.661260170007163,105.09234675499445,0.11170806765457816,0.11739662981285309,0.111328125,,
0.8365600000002887,1140,,,,-0.0625,0.0234375,-0.93359375,0.07113442915690765,0.9675326370450633,23.029545000228033,0.35558302616569365,1163,0,8.188915302400105,8.660621987536725,105.76030729000661,0.11171629918006054,0.11815150130585518,0.111328125,,
0.8444550000003074,1140,,,,-0.0625,0.0625,-0.9921875,0.07113442915690765,0.9675326370450633,23.029824700908883,0.35391497405242606,1163,0,8.150599811454088,8.660398136581797,106.25473384684263,0.11171918678405496,0.11870692457325459,0.111328125,,
0.8538400000000839,1140,,,,-0.0625,-0.01953125,-0.9921875,0.07113442915690765,0.9675326370450633,23.029956118124893,0.3501239308132968,1162,0,8.063338762535622,8.659653914779028,107.3953875659304,0.1117287880747544,0.11999156497559951,0.111328125,,
0.8619300000001676,1140,,,,-0.03125,0.0078125,-0.943359375,0.07113442915690765,0.9675326370450633,23.02999526112469,0.3487869864846926,1162,0,8.03256264588443,8.658212307303444,107.78891729826185,0.11174739111316577,0.12045130298993548,0.111328125,,
0.8693700000001118,1140,,,,-0.125,-0.01953125,-0.94140625,0.07113442915690765,1.0588766718100755,23.02990800018413,0.34739929050015367,1162,0,8.000573699547779,8.657754699625485,108.21417344252266,0.1223038430340236,0.13235009282770896,0.111328125,,
0.8765300000000279,1140,,,,-0.03125,0.015625,-0.955078125,0.07113442915690765,1.0588766718100755,23.029999136363156,0.34693114336983694,1162,0,7.989823932184827,8.657557999124698,108.35730640133492,0.12230662178839931,0.1325281609203777,0.109375,,
0.8842200000002048,1140,,,,0,-0.0625,-1.015625,0.07113442915690765,1.0588766718100755,23.030085643477296,0.34676760814795105,1162,0,7.986087714031088,8.657473088861831,108.40693714960278,0.1223078213401969,0.13259016300931573,0.109375,,
0.8911850000002887,1140,,,,0,0.0546875,-0.96875,0.07113442915690765,1.0588766718100755,23.030496788520935,0.344930764485909,1162,0,7.943926863754798,8.656872078361785,108.97472027165674,0.12231631266179643,0.1332938595697977,0.109375,,
0.8995950000002049,1140,,,,-0.03125,0.013671875,-1.015625,0.07113442915690765,1.0588766718100755,23.03057179611395,0.3435446080147725,1162,0,7.912028760052042,8.656052744485889,109.40370677354505,0.12232789044459151,0.13383124656426434,0.109375,,
0.9081550000002607,1140,,,,-0.03125,0.046875,-0.994140625,0.07113442915690765,1.0588766718100755,23.030644289281337,0.34132080960112104,1162,0,7.860838154452941,8.655730484099704,110.11205566160243,0.1223324448185162,0.13470276973076364,0.109375,,
0.9175000000002328,1140,,,,0,-0.0078125,-0.97265625,0.07113442915690765,1.0588766718100755,23.030858043939066,0.338534172012766,1162,0,7.796732458648463,8.65560405960674,111.01578905667824,0.12233423161666486,0.13581031251566483,0.107421875,,
0.9259000000003725,1140,,,,-0.03125,0.068359375,-0.974609375,0.07113442915690765,1.0588766718100755,23.03069994761361,0.3419108610765879,1162,0,7.874446450285097,8.655556453042106,109.91955444345842,0.12233490446913091,0.1344699819212992,0.107421875,,
0.9339000000001397,1140,,,,-0.03125,0.005859375,-0.943359375,0.07113442915690765,1.0588766718100755,23.03056915303816,0.34702037773865213,1162,0,7.9920768070234525,8.654976006480341,108.2944548139769,0.12234310886792181,0.13249080275098615,0.107421875,,
0.9420600000002887,1140,,,,-0.0625,0.068359375,-1.015625,0.07113442915690765,1.0588766718100755,23.030373570554605,0.35052420416377755,1162,0,8.07270336741315,8.654740746427708,107.2099438381949,0.12234643449569911,0.13116754371087294,0.107421875,,
0.9498500000000931,1140,,,,0.0625,0.0625,-0.9765625,0.07113442915690765,1.0588766718100755,23.03035568427485,0.3479843926597916,1162,0,8.014204335531362,8.654651669624364,107.9914026056654,0.12234769372942697,0.1321249905140919,0.107421875,,
0.9575450000001583,1140,,,,-0.03125,0.080078125,-1.001953125,0.07113442915690765,1.0588766718100755,23.03063272539859,0.34551069214480656,1162,0,7.9573298534853,8.654615454819337,108.76280880864361,0.12234820568722533,0.13306934503240292,0.107421875,,
0.9659600000001956,1140,,,,0,0.10546875,-0.98046875,0.0642663679490457,1.0588766718100755,23.030568927327007,0.34326078049240705,1164,0,7.905491065178446,7.832436346894937,99.07589904686256,0.13519122593697844,0.13394192252953666,0.10546875,,
0.9771800000001677,1140,,,,-0.03125,0.060546875,-0.96484375,0.0642663679490457,1.0588766718100755,23.03087443865821,0.34081349244994286,1167,0,7.849232751615221,7.852473385503673,100.04128599559982,0.13484626051262408,0.13490193313380586,0.10546875,,
0.9853350000001956,1140,,,,-0.03125,0.01171875,-0.962890625,0.0642663679490457,1.0588766718100755,23.03114838043538,0.3383735783471263,1168,0,7.793132090931541,7.860046697096905,100.85863559586303,0.13471633345399459,0.13587305584647213,0.10546875,,
1.0037050000000745,1140,,,,-0.03125,0.03515625,-1.005859375,0.0642663679490457,1.0588766718100755,23.031102305643856,0.33666840392937575,1168,0,7.753844453975283,7.85852037429708,101.3499873635991,0.13474249876266162,0.13656150546935525,0.10546875,,
1.019690000000177,1140,,,,0.0625,-0.01953125,-0.9453125,0.0642663679490457,1.109549100636804,23.031001645836533,0.3351223349070876,1167,0,7.718203046801716,7.853886185117253,101.75796279901917,0.14127389606680926,0.14375743860438875,0.10546875,,
1.0275550000001676,1140,,,,-0.09375,0.046875,-0.958984375,0.0642663679490457,1.109549100636804,23.031250568807867,0.3332540378091409,1167,0,7.675257247849295,7.853375479820347,102.32068093901299,0.14128308311347745,0.14456181269334178,0.10546875,,
1.0354899999999907,1140,,,,-0.09375,0.072265625,-0.9453125,0.0642663679490457,1.109549100636804,23.03119268542459,0.3319002951949543,1167,0,7.644059650984293,7.853183941486235,102.73577523005089,0.14128652899308236,0.14515181085667378,0.10546875,,
1.0431750000000466,1140,,,,0,0.09765625,-1.0625,0.0642663679490457,1.109549100636804,23.031232663142355,0.3296726234324777,1166,0,7.592766892941911,7.844806527930559,103.31947020819167,0.14143740788079068,0.1461323804986321,0.10546875,,
1.050440000000177,1140,,,,-0.09375,0.068359375,-0.9375,0.0642663679490457,1.109549100636804,23.031266755912615,0.32853801945023403,1165,0,7.566646765417547,7.84170168975664,103.63509666654718,0.14149340851440087,0.14663683069069183,0.10546875,,
1.0626800000001677,1140,,,,-0.0625,0.0078125,-1.02734375,0.0642663679490457,1.109549100636804,23.03131429563208,0.3282196294346884,1165,0,7.559329443506202,7.840105125502231,103.71429349778143,0.1415222223267991,0.14677877302859918,0.10546875,,
1.0802950000001583,1140,,,,-0.03125,0.0390625,-0.951171875,0.0642663679490457,1.109549100636804,23.031446280824515,0.32570903786987504,1164,0,7.501550208879064,7.834226880267304,104.43477230872192,0.1416284105112547,0.1479093080418908,0.10546875,,
1.0888350000001956,1140,,,,-0.1875,0.0546875,-1.08203125,0.0642663679490457,1.109549100636804,23.031607261985318,0.3252792019952873,1164,0,7.491702830847449,7.831657391387792,104.5377475350539,0.14167487738380094,0.148103725640075,0.10546875,,
1.0963950000002514,1140,,,,-0.0625,0.05078125,-0.96875,0.0642663679490457,1.109549100636804,23.031626372617158,0.3245674454640555,1164,0,7.475316136642922,7.830675044093439,104.75376426835781,0.14169265030014494,0.14842838488100243,0.10546875,,
1.1049300000001676,1140,,,,-0.0625,0.064453125,-1.015625,0.0642663679490457,1.109549100636804,23.03144688142096,0.3274219784497763,1163,0,7.54100190447578,7.830279508540519,103.83606326757517,0.14169980770502688,0.14713550197862404,0.10546875,,
1.1130900000000838,1140,,,,-0.125,0.09375,-0.921875,0.06009027079729155,1.109549100636804,23.031115491715482,0.33250813453629113,1164,0,7.658033248440191,7.321814698057095,95.60959662258482,0.15154017772823888,0.14488695264711732,0.10546875,,
1.1205450000001582,1140,,,,0,0.0390625,-1.017578125,0.06009027079729155,1.109549100636804,23.030808305003415,0.335778218835476,1164,0,7.733243790995334,7.322376840965777,94.68700378348379,0.15152854390521384,0.14347783810058773,0.10546875,,
1.1339600000001955,1140,,,,-0.09375,0.048828125,-0.9921875,0.06009027079729155,1.109549100636804,23.030867570342203,0.3322617444330507,1164,0,7.652276234728475,7.322641883638239,95.69233596672517,0.15152305933682048,0.14499595500765058,0.10546875,,
1.144445000000298,1140,,,,-0.03125,0.015625,-0.958984375,0.06009027079729155,1.109549100636804,23.03108675318377,0.3301432374740056,1164,0,7.6035575432407745,7.322772585418316,96.30718967765209,0.15152035485114282,0.14592499554674165,0.10546875,,
1.1517400000002236,1140,,,,0,0.03515625,-0.919921875,0.06009027079729155,1.109549100636804,23.031199549386365,0.3280723065458941,1167,0,7.555898758685942,7.341549782225278,97.16315711331815,0.1511328171230477,0.14684541655105068,0.10546875,,
1.1587350000001024,1140,,,,0,0.048828125,-1.03125,0.06009027079729155,1.109549100636804,23.031235591670608,0.3275798071287066,1169,0,7.544567713055261,7.354273144070347,97.4777273367747,0.15087134770503033,0.14706596094522678,0.10546875,,
1.1669800000002142,1140,,,,0,0.015625,-0.89453125,0.06009027079729155,1.109549100636804,23.03127157420726,0.3246408789943581,1170,0,7.476892248208419,7.359791376031353,98.43382961410036,0.1507582272304993,0.14839709652130795,0.10546875,,
1.1745600000002887,1140,,,,-0.03125,0.064453125,-0.982421875,0.06009027079729155,1.1308258576196586,23.03150550539221,0.3229791942899007,1170,0,7.438697091414988,7.362107969243667,98.97039600846614,0.15360082497348,0.1520193447485241,0.103515625,,
1.1818650000002235,1140,,,,0,0.078125,-0.9296875,0.06009027079729155,1.1308258576196586,23.03141349630032,0.32291429193113363,1170,0,7.437172581330973,7.362940753205528,99.00188106012513,0.15358345198246265,0.15205050645971208,0.103515625,,
1.1925550000001677,1140,,,,-0.03125,0.04296875,-1,0.06009027079729155,1.1308258576196586,23.03134413311261,0.3213485137608824,1169,0,7.401088207091156,7.355066841681822,99.37818109821688,0.15374786959258716,0.1527918362783716,0.103515625,,
1.2007150000003166,1140,,,,-0.0625,0.025390625,-0.97265625,0.06009027079729155,1.1308258576196586,23.031521763169,0.32084695879341757,1168,0,7.389593714097184,7.351488642622018,99.4843414543553,0.15382270348122756,0.1530295035655849,0.103515625,,
1.2090000000002328,1140,,,,-0.0625,0.076171875,-0.939453125,0.06009027079729155,1.1308258576196586,23.031643766451662,0.31938192640640395,1168,0,7.355890754435377,7.350557446022785,99.92749608999596,0.15384219032687405,0.1537306487236512,0.103515625,,
1.2283650000002235,1140,,,,-0.041015625,0.029296875,-0.955078125,0.06009027079729155,1.1308258576196586,23.031428609519917,0.3267936315831307,1166,0,7.526524195852628,7.3361299666156485,97.4703565114174,0.154144741541614,0.15024542912421412,0.1015625,,
1.236940000000177,1140,,,,0,0.12109375,-1.05078125,0.06009027079729155,1.1308258576196586,23.031259934402538,0.33272593943360107,1165,0,7.663097598013541,7.331914968291896,95.67821464511302,0.15423335683925768,0.14756772221102804,0.1015625,,
1.2456400000001304,1140,,,,-0.09375,0.037109375,-0.951171875,0.06009027079729155,1.1308258576196586,23.031296280541078,0.3313222078890034,1165,0,7.630779934214662,7.330259512899294,96.06173387378263,0.15426818868141134,0.1481926968630422,0.103515625,,
1.254010000000242,1140,,,,-0.03125,0,-0.94921875,0.06009027079729155,1.1308258576196586,23.031335084770337,0.3267312672088253,1165,0,7.52505729775809,7.329567344496013,97.40214664783592,0.15428275701277636,0.15027471723790875,0.103515625,,
1.2618800000001211,1140,,,,0,-0.0078125,-0.99609375,0.06355893570447213,1.1308258576196586,23.031565039091074,0.32978439550732147,1170,0,7.595450754004209,7.790033681064506,102.56183514793662,0.14516315383441725,0.14888199453120068,0.10546875,,
1.2694200000001583,1140,,,,-0.25,0.09765625,-0.984375,0.06355893570447213,1.1308258576196586,23.031391883060152,0.336444912565718,1173,0,7.74879462836296,7.8046379730127375,100.72067137313685,0.14489151982832313,0.14593571153382875,0.107421875,,
1.2788050000001676,1140,,,,0,0.0078125,-0.970703125,0.06355893570447213,1.1308258576196586,23.031220267608127,0.3435956501476488,1173,0,7.913427101542521,7.810561902916989,98.70011820029933,0.14478162668390507,0.1428996366693304,0.10546875,,
1.290070000000065,1140,,,,-0.03125,0.06640625,-0.99609375,0.06355893570447213,1.1308258576196586,23.03104565519708,0.34074570988630815,1174,0,7.847730001204102,7.812921973819546,99.55645737838566,0.1447378920983676,0.14409591785728515,0.10546875,,
1.306135000000242,1140,,,,-0.03125,0.060546875,-0.974609375,0.06355893570447213,1.1308258576196586,23.031152382227386,0.3322528636457527,1178,0,7.652166332056748,7.837501979542236,102.42200233820158,0.14428396452994663,0.1477785255245119,0.107421875,,
1.313195000000298,1140,,,,-0.0625,0.03515625,-0.95703125,0.06355893570447213,1.1308258576196586,23.031322591730536,0.3296283182281075,1178,0,7.591776132481155,7.841618448512182,103.29096000291796,0.14420822245364595,0.14895405737551437,0.107421875,,
1.320970000000205,1140,,,,0,0.01953125,-1.03125,0.06355893570447213,1.1374719811370013,23.031527951793127,0.32636394822943865,1178,0,7.516660396103881,7.843171874169444,104.3438370347928,0.14502703745191792,0.15132677561521715,0.10546875,,
1.3291600000001491,1140,,,,-0.09375,0.009765625,-0.955078125,0.06355893570447213,1.1374719811370013,23.03145259747264,0.3246201480849389,1178,0,7.476473552802819,7.841441604804661,104.88155344126137,0.14505903869003395,0.15214017318506795,0.107421875,,
1.3363350000001957,1140,,,,-0.09375,0.05078125,-0.9453125,0.06355893570447213,1.1374719811370013,23.031350200155792,0.322367928899338,1177,0,7.424568663779577,7.835938901710124,105.54066177524086,0.14516090482644756,0.1532037795927603,0.107421875,,
1.344660000000149,1140,,,,0,-0.046875,-1.07421875,0.06355893570447213,1.1374719811370013,23.03155741920624,0.3215534014703275,1177,0,7.405875629304925,7.833841879456954,105.77873936281854,0.14519976259922307,0.15359047843526347,0.107421875,,
1.3529300000001676,1140,,,,-0.03125,0.0234375,-0.94921875,0.06355893570447213,1.1374719811370013,23.031725529432972,0.3213130844692848,1177,0,7.400394770512079,7.832850820198622,105.84368892602494,0.1452181341439307,0.1537042301674796,0.107421875,,
1.361345000000205,1140,,,,0,0.0390625,-0.95703125,0.06355893570447213,1.1374719811370013,23.031640723117594,0.319184599196938,1177,0,7.351345013056164,7.832507801110506,106.54523474547561,0.14522449386845535,0.15472977790007458,0.10546875,,
1.3701350000002421,1140,,,,-0.03125,0.0625,-1.013671875,0.06355893570447213,1.1374719811370013,23.031660614861693,0.3190705777266497,1174,0,7.348725258388044,7.816995327161051,106.37212648872006,0.14551268531333564,0.15478493767863458,0.10546875,,
1.3780300000002608,1140,,,,0,0.109375,-0.98828125,0.06355893570447213,1.1374719811370013,23.031677149713854,0.3179297624737132,1173,0,7.322455645579773,7.804587971920954,106.58429835122622,0.14574401431944314,0.15534023505128913,0.10546875,,
1.3865849999999627,1140,,,,-0.03125,0.06640625,-1.013671875,0.06355893570447213,1.1374719811370013,23.031593975129518,0.318535989673084,1172,0,7.336391580616519,7.7995493650728,106.31315517126963,0.14583816678316314,0.15504515655111922,0.103515625,,
1.3943000000002794,1140,,,,-0.0625,0.029296875,-0.951171875,0.06355893570447213,1.1374719811370013,23.03161614940645,0.3191696892215709,1172,0,7.35099376867657,7.797484396352602,106.07388118839904,0.1458767883740905,0.15473717118138505,0.103515625,,
1.4023100000002886,1140,,,,0.0625,0.00390625,-0.9609375,0.06355893570447213,1.1374719811370013,23.031632612068428,0.3199154424914179,1171,0,7.368174938389642,7.792304751240942,105.75623972554587,0.1459737545500715,0.15437635379835354,0.103515625,,
1.4106050000002142,1140,,,,-0.0625,0.029296875,-0.953125,0.059779929412669755,1.1374719811370013,23.031726825845062,0.3197598988874436,1170,0,7.36462264103544,7.321647191037324,99.41646093638718,0.15535738768311852,0.15445081663777913,0.103515625,,
1.4182399999999906,1140,,,,0,0.0234375,-1.01171875,0.059779929412669755,1.1374719811370013,23.032087518984955,0.3196443208093968,1169,0,7.362075971828531,7.31933898702653,99.4194981827743,0.15540638070639456,0.15450424384230926,0.103515625,,
1.4257550000001211,1140,,,,-0.09375,0.08203125,-0.955078125,0.059779929412669755,1.1374719811370013,23.032182074297182,0.3195188134516832,1169,0,7.3592154875825635,7.318268029768552,99.44358936243812,0.15542912291680236,0.15456429874302413,0.103515625,,
1.4332500000002328,1140,,,,0,0.0234375,-0.9609375,0.059779929412669755,1.1374719811370013,23.032231595029486,0.3192289227234447,1169,0,7.35255447999815,7.3178801701020895,99.52840458387098,0.15543736091556318,0.15470432544653345,0.103515625,,
1.4446650000000372,1140,,,,-0.09375,0.03515625,-0.955078125,0.059779929412669755,1.1374719811370013,23.03202630046978,0.3178619876500025,1169,0,7.321005659474459,7.316417463685434,99.9373283398151,0.15546843612775924,0.15537100147777444,0.103515625,,
1.4533700000003447,1140,,,,-0.0625,0.06640625,-0.96484375,0.059779929412669755,1.1374719811370013,23.03202436668864,0.31374122183115677,1168,0,7.226095466049868,7.314914416642233,101.22914167145535,0.15550038132355012,0.15741170130966983,0.103515625,,
1.4614650000000837,1140,,,,-0.09375,0.044921875,-1.017578125,0.059779929412669755,1.1374719811370013,23.03202329023058,0.3136988777789904,1168,0,7.225119859124903,7.314615648642699,101.23867549968418,0.1555067327902691,0.15743295658970152,0.103515625,,
1.4702050000000746,1140,,,,-0.09375,0.07421875,-1.005859375,0.059779929412669755,1.1350556508451743,23.032022075466276,0.3135259556745113,1168,0,7.221136732327006,7.314467765556526,101.29247010116431,0.15517952737314616,0.15718517636757218,0.103515625,,
1.4778450000002048,1140,,,,-0.09375,0.05078125,-0.94140625,0.059779929412669755,1.1350556508451743,23.032021174201738,0.31348932305571636,1167,0,7.220292726505428,7.308685477519513,101.22422669498701,0.15530229811317584,0.15720355030460564,0.103515625,,
1.4859300000001676,1140,,,,-0.0625,0.00390625,-0.9765625,0.059779929412669755,1.1350556508451743,23.03202020674489,0.313027032401374,1167,0,7.209644935525833,7.303453944301042,101.30115989919229,0.15541354261990922,0.15743572131439362,0.103515625,,
1.494470000000205,1140,,,,-0.09375,0.021484375,-0.91796875,0.059779929412669755,1.1350556508451743,23.0321514041214,0.313229308175974,1166,0,7.214344850117234,7.301385018148201,101.20648748901368,0.1554575807225477,0.15733315698468858,0.103515625,,
1.503260000000242,1140,,,,-0.0625,0.0234375,-1.03125,0.059779929412669755,1.1350556508451743,23.031998105227753,0.3141491042373951,1166,0,7.23548157355468,7.300536850600216,100.89911468067736,0.15547564159639235,0.15687354591486286,0.103515625,,
1.5127700000002515,1140,,,,-0.0625,0.037109375,-0.97265625,0.059779929412669755,1.1350556508451743,23.03192410282377,0.31407220790622437,1166,0,7.2336872553024465,7.300227059587525,100.91986012024923,0.15548223933041705,0.15691245844408802,0.103515625,,
1.521220000000205,1140,,,,-0.03125,-0.005859375,-0.962890625,0.059779929412669755,1.1350556508451743,23.03207451314278,0.3132868711850996,1165,0,7.215646561124578,7.294017195300163,101.08612074485215,0.15561461132509222,0.15730477390071512,0.103515625,,
1.5291350000000092,1140,,,,-0.0625,0.02734375,-1.005859375,0.059779929412669755,1.1350556508451743,23.032070962668538,0.31252244112521105,1165,0,7.198039041422261,7.2919178064096135,101.30422694913312,0.1556594137481168,0.15768956577108237,0.103515625,,
1.536970000000205,1140,,,,0.0625,0.0390625,-0.9765625,0.059779929412669755,1.1350556508451743,23.032001876911774,0.3127482296114393,1165,0,7.203217811411504,7.291078830466966,101.21974680421673,0.15567732529542247,0.15757619449560348,0.103515625,,
1.5463250000001862,1140,,,,-0.03125,0.02734375,-1.0390625,0.059779929412669755,1.1350556508451743,23.032001855849213,0.3126294414858774,1165,0,7.200481876495831,7.290729421131177,101.25335423633155,0.15568478615532919,0.15763606801793073,0.103515625,,
1.5541500000003725,1140,,,,-0.0625,0.05078125,-0.935546875,0.059779929412669755,1.1350556508451743,23.032198711805297,0.3139172308232711,1164,0,7.230204039381231,7.286770277913084,100.78236019652765,0.15576937484713074,0.15698805243431466,0.103515625,,
1.5631200000001118,1140,,,,0,0.0625,-0.984375,0.05749500200978763,1.1350556508451743,23.03218806491913,0.3133861901375345,1164,0,7.217969668196199,7.006681319055366,97.07274539997292,0.16199618609144928,0.15725414528221887,0.103515625,,
1.571385000000242,1140,,,,0,0.01953125,-1.013671875,0.05749500200978763,1.1350556508451743,23.032245395732815,0.31292147536354825,1164,0,7.2072842101680035,7.006131605834723,97.2090374339686,0.16200889659279272,0.15748728893524735,0.103515625,,
1.579440000000177,1140,,,,-0.0625,0.0546875,-0.94140625,0.05749500200978763,1.1350556508451743,23.032363337554308,0.3124910587847288,1164,0,7.197407605666917,7.005920890715039,97.33950436819627,0.16201376928898323,0.15770340003412925,0.1015625,,
1.5873600000001025,1140,,,,-0.03125,0.048828125,-0.99609375,0.05749500200978763,1.1350556508451743,23.032147387281842,0.3123972895262892,1163,0,7.195180415756851,7.004141581291535,97.34490556974838,0.1620549267417685,0.15775221540789944,0.1015625,,
1.5984700000002048,1140,,,,0,0.05078125,-0.8984375,0.05749500200978763,1.1350556508451743,23.032335814242302,0.31305197796919076,1163,0,7.210318283899184,7.000078450331645,97.08418095721225,0.16214899002901867,0.15742101890006452,0.1015625,,
1.6064700000002048,1140,,,,-0.03125,0.046875,-1.015625,0.05749500200978763,1.1350556508451743,23.03238003980635,0.3137541661340036,1162,0,7.226505193470909,6.998224447877455,96.84106301065549,0.162191947300209,0.15706840588320453,0.1015625,,
1.613820000000065,1140,,,,-0.03125,0.064453125,-0.951171875,0.05749500200978763,1.1350556508451743,23.032361407094488,0.3152018894735266,1162,0,7.259843834553317,6.997737994633348,96.38964906280114,0.16220322220061148,0.15634711664772497,0.1015625,,
1.6212700000002516,1140,,,,0,0.076171875,-0.9375,0.05749500200978763,1.114188168844791,23.032345998572843,0.3161189679518651,1162,0,7.280961446579117,6.997561030858574,96.10765119689384,0.1592252163191329,0.15302761551749192,0.1015625,,
1.6294050000002607,1140,,,,-0.125,0.09765625,-1.03515625,0.05749500200978763,1.114188168844791,23.032329206916614,0.31701830648024615,1162,0,7.301669999472216,6.996558716712527,95.82134932444573,0.15924802663105708,0.15259360789043155,0.1015625,,
1.6374500000001864,1140,,,,0.03125,0.04296875,-0.94140625,0.05749500200978763,1.114188168844791,23.032017529911,0.31702266795512024,1162,0,7.301671645721483,6.996162097058001,95.8158958182884,0.15925705456614922,0.15259357348637625,0.1015625,,
1.6457250000000931,1140,,,,0,0.09375,-1.013671875,0.05749500200978763,1.114188168844791,23.032214327779055,0.316705395213344,1162,0,7.29442654131771,6.9960059267014225,95.90892288892144,0.1592606096276028,0.15274513528016379,0.1015625,,
1.655405000000028,1140,,,,-0.0625,0.0390625,-0.8515625,0.05749500200978763,1.114188168844791,23.032140810803536,0.31712475521975303,1162,0,7.3040620168129555,6.995938258848478,95.78147396263589,0.1592621500676572,0.15254363479938718,0.1015625,,
1.6631350000000094,1140,,,,0,0.04296875,-0.978515625,0.05749500200978763,1.114188168844791,23.03193624425325,0.31615958574155406,1162,0,7.281767421808992,6.995918154171696,96.0744521064876,0.15926260775083478,0.15301067780711897,0.1015625,,
1.672410000000149,1140,,,,-0.03125,0.06640625,-0.96875,0.05749500200978763,1.114188168844791,23.031874210037717,0.31620595536617735,1162,0,7.282815788458597,6.995910304142426,96.06051433058566,0.1592627864575474,0.1529886518083424,0.1015625,,
1.694160000000149,1140,,,,-0.03125,0.0234375,-0.966796875,0.05749500200978763,1.114188168844791,23.032105226860793,0.3168199515085378,1162,0,7.297030461113577,6.995905623451734,95.87332354898942,0.1592628930141367,0.15269062871292413,0.099609375,,
1.7021850000002887,1140,,,,-0.03125,0.02734375,-0.947265625,0.05749500200978763,1.114188168844791,23.03210013337626,0.3174733924433881,1162,0,7.312078964438774,6.993607246193492,95.64458042925791,0.1593152331296879,0.1523763862867841,0.099609375,,
1.7102400000002236,1140,,,,-0.03125,0.033203125,-0.939453125,0.05749500200978763,1.114188168844791,23.03209527527227,0.3150504608573546,1161,0,7.256272230985028,6.992700741963985,96.36767363970213,0.1593358860845313,0.15354828669286869,0.099609375,,
1.7182950000001582,1140,,,,-0.0625,0.02734375,-0.98046875,0.05574076693425372,1.114188168844791,23.032025851937906,0.31493926810042133,1161,0,7.253689364679307,6.779002457477436,93.45592451872444,0.16435872030342888,0.15360296158671394,0.09765625,,
1.7263400000003166,1140,,,,-0.03125,0.033203125,-0.943359375,0.05574076693425372,1.114188168844791,23.032325537935325,0.31700805616749456,1161,0,7.301432747797821,6.778864001507758,92.8429287190562,0.1643620772738578,0.15259856624452786,0.09765625,,
1.7354850000003352,1140,,,,-0.03125,0.041015625,-1.009765625,0.05574076693425372,1.114188168844791,23.03238022984724,0.3165429770556252,1161,0,7.2907382066329705,6.779120496987087,92.98263502068386,0.16435585845390724,0.15282240800130834,0.09765625,,
1.7440500000000465,1140,,,,-0.03125,0.03125,-0.986328125,0.05574076693425372,1.114188168844791,23.032213391239765,0.31704945148397223,1161,0,7.302350622154368,6.779842049087604,92.84465235781008,0.16433836670202848,0.15257938525500148,0.09765625,,
1.7543100000000558,1140,,,,-0.0625,0.0390625,-0.953125,0.05574076693425372,1.114188168844791,23.032088173565583,0.31516379538244865,1162,0,7.258880324364139,6.7800714437904395,93.40381905778779,0.16433280653188773,0.15349311726562886,0.09765625,,
1.7629050000002608,1140,,,,-0.0625,0.02734375,-0.96875,0.05574076693425372,1.114188168844791,23.031935526243632,0.3136416167229322,1162,0,7.223773494709392,6.780198417392479,93.85951016263478,0.16432972905139315,0.15423907873922255,0.09765625,,
1.7714050000002608,1140,,,,-0.03125,0.03515625,-0.916015625,0.05574076693425372,1.105594506804233,23.03203660846529,0.31349245096548545,1162,0,7.220369607114571,6.780227755100886,93.90416452393251,0.16306155880567208,0.15312159445616727,0.095703125,,
1.7799950000001117,1140,,,,0,0.025390625,-0.9921875,0.05574076693425372,1.105594506804233,23.03213450064392,0.3136726217262611,1161,0,7.224550012768848,6.778892895930879,93.83135121148993,0.1630936679155797,0.15303299234556864,0.095703125,,
1.787975000000326,1140,,,,-0.09375,0.06640625,-0.99609375,0.05574076693425372,1.105594506804233,23.032127493316267,0.313856080652531,1161,0,7.228773264141648,6.778354461690853,93.7690838266418,0.1631066231565063,0.15294358619442916,0.095703125,,
1.797285000000149,1140,,,,0.0625,0.0078125,-1.01953125,0.05574076693425372,1.105594506804233,23.0321211673952,0.3136924234065311,1161,0,7.2250019051930625,6.778163036320522,93.81538060839306,0.16311122952929108,0.15302342079793405,0.095703125,,
1.8065200000002515,1140,,,,-0.0625,0.017578125,-1,0.05574076693425372,1.105594506804233,23.03211400890872,0.3172086118856348,1161,0,7.305984913557619,6.778082290345732,92.77438114836146,0.16311317264161448,0.15132723648971624,0.095703125,,
1.8159300000001677,1140,,,,-0.03125,0.021484375,-0.94140625,0.05574076693425372,1.105594506804233,23.032033513918652,0.3196181943047569,1161,0,7.361456962885325,6.778530353184639,92.08136904637682,0.16310239081319608,0.1501869144081629,0.095703125,,
1.8244950000001117,1140,,,,-0.03125,0.015625,-1,0.05574076693425372,1.105594506804233,23.031959103014156,0.320192105888069,1161,0,7.374651487921984,6.7786877981505045,91.91875452355228,0.16309860252096037,0.1499182040825858,0.095703125,,
1.832595000000205,1140,,,,-0.0625,0.046875,-0.84375,0.05574076693425372,1.105594506804233,23.03202738897306,0.31896169920357464,1161,0,7.346334592090118,6.778741870955987,92.27379703416632,0.16309730151272367,0.15049607296605294,0.095703125,,
1.84054000000027,1140,,,,-0.03125,0.037109375,-0.994140625,0.05574076693425372,1.105594506804233,23.03212332605964,0.31681381534169967,1161,0,7.296894866349512,6.778762762214937,92.89927957542595,0.1630967988682029,0.15151575115914195,0.095703125,,
1.8493850000000094,1140,,,,-0.125,0.0859375,-1,0.05574076693425372,1.105594506804233,23.032334518562866,0.31860258572357414,1163,0,7.338161332864461,6.788817948815172,92.5138824409731,0.16285522975280084,0.15066369580248282,0.095703125,,
1.8575150000003633,1140,,,,-0.09375,0.07421875,-0.982421875,0.05574076693425372,1.105594506804233,23.032186519240543,0.3189568779892568,1164,0,7.346274305443211,6.797048014853034,92.52374376786844,0.16265803984145288,0.15049730800074324,0.095703125,,
1.8653900000003631,1140,,,,-0.125,0.1171875,-1.05078125,0.05543167969001749,1.105594506804233,23.032177511440498,0.31886680672659534,1165,0,7.344196895033133,6.762550358202536,92.08018868306807,0.16348780389682696,0.15053987830200258,0.09765625,,
1.8735000000002329,1140,,,,-0.0625,0.0546875,-0.966796875,0.05543167969001749,1.105594506804233,23.0321027320814,0.31964124256179594,1165,0,7.3620099360934335,6.763830020568205,91.8747744064762,0.16345687331618602,0.15017563361112551,0.09765625,,
1.8824799999999813,1140,,,,-0.0625,0.01171875,-1.0078125,0.05543167969001749,1.105594506804233,23.03209729599154,0.31760226393462154,1165,0,7.315046244369388,6.763884602337113,92.46537036650285,0.16345555428639616,0.15113978365553635,0.09765625,,
1.8897000000001862,1140,,,,-0.0625,0.044921875,-0.962890625,0.05543167969001749,1.105594506804233,23.03209260909525,0.3175780378343898,1165,0,7.3144867780164216,6.763013377213023,92.46053185220264,0.1634766109630022,0.15115134395034802,0.09765625,,
1.8979950000001118,1140,,,,-0.0625,0.04296875,-0.998046875,0.05543167969001749,1.105594506804233,23.032218758342662,0.3162785598321139,1165,0,7.284596978626816,6.762668781345811,92.8351808780588,0.16348494101232816,0.15177154069718257,0.09765625,,
1.90841500000027,1140,,,,-0.0625,0.001953125,-0.99609375,0.05543167969001749,1.105594506804233,23.032306347764873,0.31599938150700896,1165,0,7.278194560573656,6.76253248686639,92.9149726705489,0.16348823594584186,0.1519050497486415,0.09765625,,
1.9159500000001863,1140,,,,-0.0625,0.0234375,-0.9296875,0.05543167969001749,1.105594506804233,23.032409929473246,0.3150719053002646,1165,0,7.256865280135868,6.76247279304622,93.18724451943538,0.16348967909210732,0.15235152701960225,0.09765625,,
1.9247400000002235,1140,,,,-0.0625,0.001953125,-0.990234375,0.05543167969001749,1.1243766045605958,23.032291435624163,0.3148514769823318,1164,0,7.251750976793779,6.757999462892532,93.19127869281097,0.16637713730733925,0.15504898170920328,0.09765625,,
1.9319050000002607,1140,,,,-0.03125,0.0546875,-0.982421875,0.05543167969001749,1.1243766045605958,23.032373920824373,0.315588799665162,1164,0,7.268759239112145,6.756257734830475,92.9492573983745,0.16642002846695844,0.1546861806222013,0.09765625,,
1.9441350000002422,1140,,,,-0.0625,0.01171875,-1.046875,0.05543167969001749,1.1243766045605958,23.032267670190173,0.31622409749400054,1164,0,7.283358057246134,6.755470743997562,92.75214387238064,0.16643941587040964,0.1543761264684723,0.09765625,,
1.953095000000205,1140,,,,0,0.0234375,-0.99609375,0.05543167969001749,1.1243766045605958,23.032311273240886,0.315502681548506,1164,0,7.266755968967384,6.755223593142845,92.96065014417665,0.16644550532745334,0.1547288238881608,0.09765625,,
1.9606250000002328,1140,,,,0.0625,0.02734375,-0.97265625,0.05543167969001749,1.1243766045605958,23.032367224272353,0.3163026400781323,1164,0,7.285198560286389,6.756553298700541,92.74357099245533,0.16641274846108922,0.1543371255095064,0.095703125,,
1.9681250000002328,1140,,,,-0.03125,0.05859375,-1.013671875,0.05543167969001749,1.1243766045605958,23.032351302986324,0.3147788486041991,1164,0,7.25009702380146,6.7569771346769585,93.19843737944981,0.16640231010850545,0.15508435278443336,0.095703125,,
1.976720000000205,1140,,,,-0.03125,0.056640625,-0.9765625,0.05543167969001749,1.1243766045605958,23.03233409520012,0.3128116666957446,1164,0,7.2047828162127745,6.75717351775444,93.78733113993265,0.16639747397433288,0.15605974992479082,0.095703125,,
1.9854450000000652,1140,,,,0,0.046875,-1.00390625,0.05543167969001749,1.1243766045605958,23.032426333030298,0.3141283578402597,1164,0,7.235138261071563,6.757255569830704,93.39497499568057,0.16639545344128012,0.1554049921354329,0.095703125,,
1.9934850000003352,1140,,,,-0.0625,0.044921875,-0.9609375,0.05543167969001749,1.1243766045605958,23.03240573884224,0.31490440838046657,1163,0,7.253006102768978,6.753752046473804,93.11659125580255,0.16648177143957235,0.15502215062680602,0.095703125,,
2.0011350000000094,1140,,,,0,0.060546875,-0.966796875,0.05543167969001749,1.1243766045605958,23.03248608637104,0.3153434068746597,1163,0,7.263142631269442,6.750528040371459,92.94224804713234,0.16656128199694512,0.15480579986408427,0.095703125,,
2.009785000000382,1140,,,,0,0.0625,-0.9765625,0.05543167969001749,1.1243766045605958,23.032462688073725,0.31521856798807735,1163,0,7.260259905773422,6.7493096021931,92.96236897560637,0.16659135094280522,0.1548672663448979,0.095703125,,
2.0176450000002513,1140,,,,-0.03125,0.021484375,-0.982421875,0.05536403577801867,1.1243766045605958,23.03244011116911,0.3146732579006134,1163,0,7.24769296718235,6.740585764119916,93.00319142437984,0.1668069577195566,0.15513579419710355,0.095703125,,
2.026720000000205,1140,,,,0,0.044921875,-0.998046875,0.05536403577801867,1.1243766045605958,23.032416016693393,0.31576538652730624,1163,0,7.272839746168908,6.740381033876169,92.67880592896026,0.16681202426237382,0.15459939223229555,0.095703125,,
2.0347700000000186,1140,,,,0,0.08203125,-0.9921875,0.05536403577801867,1.1243766045605958,23.032460716475775,0.31519712676686745,1163,0,7.25976544020391,6.740753220574361,92.85084037625641,0.1668028138352157,0.1548778144172403,0.095703125,,
2.043590000000084,1140,,,,0,0.048828125,-0.998046875,0.05536403577801867,1.1243766045605958,23.03228965371814,0.3183878551515969,1163,0,7.333201302077636,6.740910091573313,91.92315625732904,0.1667989320857666,0.1533268429767554,0.09375,,
2.051820000000298,1140,,,,-0.03125,0.091796875,-0.994140625,0.05536403577801867,1.1243766045605958,23.03207680476016,0.32349814659166565,1163,0,7.450834158496804,6.7409638488765875,90.47260622744244,0.16679760191088672,0.15090613757365354,0.09375,,
2.061720000000205,1140,,,,0,0.068359375,-0.91015625,0.05536403577801867,1.1243766045605958,23.03194209429117,0.32766234042564557,1163,0,7.54670005116339,6.740984740047179,89.32360759465982,0.1667970849838664,0.14898917367032008,0.09375,,
2.069765000000363,1140,,,,-0.03125,0.05078125,-1.025390625,0.05536403577801867,1.1386239582442457,23.03212262284929,0.326963271122671,1164,0,7.530658153665276,6.7486547911686,89.61573681158181,0.16871865482499826,0.1511984656600116,0.095703125,,
2.078345000000205,1140,,,,-0.0625,0.09375,-0.98046875,0.05536403577801867,1.1386239582442457,23.03231457626246,0.3247570440046792,1164,0,7.479906398372882,6.750683764904851,90.25091231587255,0.16866794504042276,0.15222435918341606,0.09375,,
2.086385000000242,1140,,,,0,0.005859375,-1.00390625,0.05536403577801867,1.1386239582442457,23.032202294732773,0.32501786777452685,1165,0,7.48587727998561,6.751470333483397,90.18943379601295,0.16864829466810036,0.1521029420677912,0.09375,,
2.0945700000000653,1140,,,,-0.0625,0.048828125,-0.939453125,0.05536403577801867,1.1386239582442457,23.03219231510875,0.32462469071907757,1165,0,7.476818306874494,6.7517869555147865,90.30294275449916,0.16864038598170372,0.1522872312140243,0.09375,,
2.1023000000000467,1140,,,,-0.03125,0.03515625,-0.958984375,0.05536403577801867,1.1386239582442457,23.032117480001293,0.32468174605460987,1165,0,7.478108118741721,6.7545823173437505,90.32474805245644,0.16857059470880967,0.1522609649612598,0.09375,,
2.1107050000000744,1140,,,,-0.0625,0.01953125,-1.05859375,0.05536403577801867,1.1386239582442457,23.032111977323304,0.3251540879035481,1166,0,7.488985362478945,6.760970426839755,90.27885754341749,0.168411320618136,0.15203981622783508,0.09375,,
2.118625000000233,1140,,,,-0.09375,0.1171875,-0.98828125,0.05536403577801867,1.1386239582442457,23.032305618022885,0.3247534205347114,1167,0,7.479820032253782,6.763568715125999,90.42421723999735,0.16834662383156318,0.15222611684965384,0.09375,,
2.1267700000002514,1140,,,,-0.0625,0.0078125,-1.03125,0.05536403577801867,1.1386239582442457,23.03222555725224,0.32437909213866667,1167,0,7.471172416194477,6.764571311739662,90.54229958710108,0.1683216726931692,0.15240231315986896,0.09375,,
2.1357400000002236,1140,,,,-0.09375,0.0546875,-0.9296875,0.05536403577801867,1.1386239582442457,23.032286490444196,0.32302584029247594,1167,0,7.440023697432778,6.764991199036675,90.92701144716749,0.16831122535774828,0.15304036714790764,0.09375,,
2.144850000000326,1140,,,,-0.09375,0.0703125,-1.013671875,0.05536403577801867,1.1386239582442457,23.032270732628483,0.3208998535337657,1166,0,7.391052304650519,6.762773156223229,91.49946282977905,0.16836642778657493,0.1540543770104039,0.095703125,,
2.152745000000112,1140,,,,0,0.01171875,-1.03515625,0.05536403577801867,1.1386239582442457,23.032129212238694,0.31988008414541913,1166,0,7.36751943045908,6.7620356392615175,91.78171436244405,0.1683847910580659,0.15454644795871228,0.095703125,,
2.160935000000289,1140,,,,-0.09375,0.0234375,-0.966796875,0.05471310940052229,1.1386239582442457,23.032122891452705,0.31877555246726713,1166,0,7.342077699216826,6.682237325587829,91.0128930711346,0.170395617929371,0.15508198154395747,0.095703125,,
2.1697500000002328,1140,,,,-0.0625,0.03125,-0.970703125,0.05471310940052229,1.1386239582442457,23.032042998906455,0.3184452641538119,1166,0,7.33444501678872,6.682115210009455,91.10594182264552,0.17039873190732288,0.1552433695580113,0.095703125,,
2.1777100000001957,1140,,,,0,0.0390625,-0.95703125,0.05471310940052229,1.1386239582442457,23.03210642634023,0.31752650914638386,1166,0,7.313304351843808,6.67943415704657,91.33264302561908,0.17046712812387516,0.1556921336054036,0.095703125,,
2.1866400000001303,1140,,,,-0.09375,-0.009765625,-1,0.05471310940052229,1.1386239582442457,23.03200312273849,0.3162279766413959,1165,0,7.283363745501905,6.673102239039952,91.62115846762643,0.1706288795611286,0.1563321561342371,0.095703125,,
2.194600000000093,1140,,,,-0.0625,0.021484375,-0.98046875,0.05471310940052229,1.1386239582442457,23.032078643452966,0.31677012622291434,1164,0,7.295874459062686,6.670417889954992,91.42725697081076,0.17069754504570156,0.156064083151799,0.095703125,,
2.218565000000177,1140,,,,-0.01953125,-0.001953125,-0.998046875,0.05471310940052229,1.1386239582442457,23.03195535683627,0.3137449120286348,1164,0,7.22615880727804,6.668764709658518,92.28643996782736,0.17073986080137926,0.15756973913961686,0.095703125,,
2.2357050000000744,1140,,,,-0.0625,0.046875,-0.9765625,0.05471310940052229,1.1450488256037719,23.03237609619819,0.31148124395038396,1164,0,7.1741531575769,6.666554745641947,92.92462258909458,0.17176020737732817,0.15960752446362836,0.09765625,,
2.2435800000000743,1140,,,,0.015625,0.025390625,-0.9921875,0.05471310940052229,1.1450488256037719,23.032270420077204,0.31331512308424186,1163,0,7.216358641576032,6.666257102552786,92.3770205120639,0.17176787633427543,0.15867404635445012,0.09765625,,
2.250620000000112,1140,,,,-0.125,0.015625,-0.890625,0.05471310940052229,1.1450488256037719,23.032143867834325,0.3177823537418473,1163,0,7.319208890041247,6.665072440007416,91.0627438038574,0.17179840668055785,0.15644434293462542,0.09765625,,
2.2587450000001117,1140,,,,-0.03125,0.0390625,-0.955078125,0.05471310940052229,1.1450488256037719,23.031836370476068,0.3216615827484489,1163,0,7.408456940530623,6.663919802843881,89.95017257084287,0.17182812210841933,0.15455969236176176,0.09765625,,
2.2665800000000744,1140,,,,-0.0625,0.03515625,-0.8828125,0.05471310940052229,1.1450488256037719,23.031844592135446,0.3199429690541221,1163,0,7.368876741600941,6.663476605015233,90.42730444107747,0.17183955065467726,0.15538987362068457,0.09765625,,
2.2759850000001025,1140,,,,-0.03125,0.068359375,-1.017578125,0.05471310940052229,1.1450488256037719,23.03170829135036,0.31860954694756677,1163,0,7.338122144135655,6.663293278890443,90.80379350479319,0.17184427844881578,0.1560411237524645,0.09765625,,
2.284630000000121,1140,,,,-0.03125,0.0703125,-0.95703125,0.05471310940052229,1.1450488256037719,23.031724512227004,0.31804981788899445,1163,0,7.3252357867832885,6.663226568945734,90.96262240415525,0.17184599889493826,0.1563156270914515,0.095703125,,
2.2927050000000744,1140,,,,0,0.076171875,-0.94140625,0.05471310940052229,1.1450488256037719,23.031836467859545,0.3160830539332156,1165,0,7.279973208451451,6.677730927329182,91.72741074894184,0.17147274097516602,0.15728750543675962,0.095703125,,
2.300730000000214,1140,,,,-0.0625,0.044921875,-0.966796875,0.05471310940052229,1.1450488256037719,23.0316474882146,0.3151704193096796,1166,0,7.258893996253324,6.683444089608096,92.07248505154854,0.17132616211814758,0.15774425500562322,0.09765625,,
2.308935000000056,1140,,,,-0.0625,0.05859375,-0.95703125,0.05471310940052229,1.1450488256037719,23.03166497516098,0.3149458217175263,1167,0,7.253726651124844,6.685685360785428,92.16897303055485,0.17126872770890503,0.1578566274517951,0.09765625,,
2.316820000000065,1140,,,,-0.03125,0.06640625,-1.03125,0.054308904185136786,1.1450488256037719,23.03168127806834,0.3147349816680919,1167,0,7.248875784838174,6.637163153933451,91.56127585764143,0.17252081936921645,0.15796226333451158,0.09765625,,
2.3246500000001395,1140,,,,-0.125,0.046875,-0.9140625,0.054308904185136786,1.1450488256037719,23.031762565652034,0.3152780119281543,1167,0,7.26140831290006,6.635760377996134,91.38393121631175,0.17255728965149184,0.15768963488385115,0.09765625,,
2.3330100000002423,1140,,,,-0.03125,0.060546875,-1.01171875,0.054308904185136786,1.1450488256037719,23.03177415500989,0.31568250745458754,1166,0,7.270728216381286,6.633472494781222,91.23532467952387,0.17261680462301165,0.15748750214922405,0.09765625,,
2.3405600000002886,1140,,,,-0.0625,0.03515625,-0.970703125,0.054308904185136786,1.1450488256037719,23.03178558953492,0.3144538955121448,1166,0,7.242434699229737,6.632547983451349,91.5789821916758,0.17264086569154802,0.1581027476472177,0.095703125,,
2.348705000000307,1140,,,,0,0.0234375,-0.97265625,0.054308904185136786,1.1450488256037719,23.031796408237504,0.31415450328869005,1166,0,7.235542560476088,6.632189475429373,91.66125995384905,0.17265019792421427,0.15825334673014893,0.095703125,,
2.3568250000001862,1140,,,,-0.09375,0.080078125,-0.96875,0.054308904185136786,1.1450488256037719,23.0318063192868,0.31429708825138863,1166,0,7.238829663321774,6.632051420552042,91.61773006147388,0.17265379186527172,0.1581814849720236,0.095703125,,
2.3674550000000747,1140,,,,-0.0625,0.03515625,-1.01171875,0.054308904185136786,1.1450488256037719,23.031749853061854,0.3155160091462673,1165,0,7.266885797293205,6.626280042213748,91.18459030527117,0.1728041704107071,0.15757077481942594,0.095703125,,
2.3755450000001583,1140,,,,-0.0625,0.0703125,-0.962890625,0.054308904185136786,1.1448925280099949,23.031766689658017,0.3161977623532392,1165,0,7.282593090311736,6.6237056657107605,90.95257120053138,0.17284773596399552,0.15720946012115955,0.095703125,,
2.3833300000003073,1140,,,,-0.0625,0.03125,-0.94140625,0.054308904185136786,1.1448925280099949,23.03168096357187,0.3159255631865978,1165,0,7.276296779550487,6.623033212593295,91.02203240536942,0.1728652856266901,0.15734549630076022,0.095703125,,
2.3907800000002606,1140,,,,-0.09375,0.0625,-1.001953125,0.054308904185136786,1.1448925280099949,23.031607445467152,0.31540659435306023,1165,0,7.26432086685138,6.622780806738029,91.16861614633747,0.1728718738275588,0.15760489507482792,0.095703125,,
2.398780000000028,1140,,,,-0.125,0.05078125,-0.90234375,0.054308904185136786,1.1448925280099949,23.03162704163208,0.3148466673080239,1164,0,7.251431016739223,6.619749144435316,91.28886600664433,0.1729510443718872,0.1578850471537441,0.095703125,,
2.4077400000002234,1140,,,,-0.03125,0.072265625,-1.041015625,0.054308904185136786,1.1448925280099949,23.031647359783413,0.31496868276352136,1163,0,7.254247630784916,6.616983072708441,91.21529081290099,0.17302334242505038,0.1578237449672112,0.095703125,,
2.417055000000168,1140,,,,-0.09375,0.009765625,-1.009765625,0.054308904185136786,1.1448925280099949,23.031519644224165,0.3131689896817671,1163,0,7.212757737817454,6.6159649102942035,91.72587172318036,0.173049969812957,0.15873159332763528,0.095703125,,
2.4249200000001583,1140,,,,-0.09375,0.056640625,-0.96875,0.054308904185136786,1.1448925280099949,23.031934577183712,0.31304305296310647,1163,0,7.209987115688124,6.615623185783828,91.75638013816936,0.17305890856514167,0.15879259000599832,0.095703125,,
2.4342500000002327,1140,,,,-0.03125,0.02734375,-0.990234375,0.054308904185136786,1.1448925280099949,23.03180631152379,0.3126013651196819,1163,0,7.199774094154443,6.614760481910033,91.87455599864741,0.17308147908620924,0.15901784042634654,0.095703125,,
2.443560000000289,1140,,,,-0.125,0.02734375,-0.9765625,0.054308904185136786,1.1448925280099949,23.03197875516043,0.3128729962250738,1163,0,7.20608420211929,6.61278501678951,91.76669091439021,0.17313318444546033,0.15887859424030668,0.095703125,,
2.451100000000093,1140,,,,-0.03125,0.0234375,-0.974609375,0.054308904185136786,1.1448925280099949,23.0319061014997,0.31382959077977246,1163,0,7.228093666711795,6.61215741301051,91.47857952453062,0.17314961766597237,0.15839481069298722,0.095703125,,
2.4588000000002794,1140,,,,-0.0625,0.04296875,-0.990234375,0.054308904185136786,1.1448925280099949,23.031910254283115,0.31340542123188975,1163,0,7.218325535018681,6.611961051063479,91.59965173344551,0.17315475986142542,0.15860915699294958,0.095703125,,
2.4669300000001675,1140,,,,-0.125,0.05859375,-0.953125,0.053707239387405944,1.1448925280099949,23.031721047593084,0.31389952700553436,1163,0,7.229646342962879,6.538620704299652,90.44177811912127,0.17509694777939006,0.1583607930039896,0.095703125,,
2.4751850000000557,1140,,,,-0.0625,0.0625,-1.056640625,0.053707239387405944,1.1448925280099949,23.03180153570864,0.3136265270812372,1162,0,7.223383928068608,6.536417754136323,90.48969041694056,0.1751559602024355,0.1584980861340035,0.095703125,,
2.4824850000001026,1140,,,,-0.0625,0.05078125,-0.9296875,0.053707239387405944,1.1448925280099949,23.031811381595244,0.3127378081086051,1162,0,7.20291820825092,6.535571410810191,90.7350496264655,0.17517864254627835,0.15894842824933428,0.095703125,,
2.4903950000002513,1140,,,,-0.09375,0.013671875,-0.99609375,0.053707239387405944,1.1448925280099949,23.031912387757764,0.31414011449692236,1162,0,7.235247594573308,6.535246124810948,90.32512072859281,0.1751873619056871,0.1582381961425487,0.09765625,,
2.5007900000002703,1140,,,,-0.0625,0.021484375,-0.955078125,0.053707239387405944,1.1448925280099949,23.031848367260253,0.31518614397383576,1162,0,7.259319475466844,6.535103202494737,90.023634096562,0.175191193242815,0.1577134787743127,0.095703125,,
2.508100000000093,1140,,,,-0.03125,0.037109375,-1.0078125,0.053707239387405944,1.1448925280099949,23.031857595343,0.316851355662105,1162,0,7.297675302500979,6.537408058614176,89.58206261072958,0.17512942709785403,0.15688455303261162,0.095703125,,
2.5167350000003355,1140,,,,-0.0625,-0.01953125,-0.95703125,0.053707239387405944,1.1448925280099949,23.03195023431071,0.3171438616070399,1163,0,7.3044416376504655,6.540062939522288,89.53542603190617,0.1750583348504628,0.15673922591272274,0.095703125,,
2.524820000000298,1140,,,,0,0.029296875,-0.978515625,0.053707239387405944,1.1420062365685115,23.031654337368757,0.3164125788047149,1163,0,7.287505143025646,6.5413882410788435,89.76169639261444,0.17458163228974855,0.15670743473319465,0.095703125,,
2.5328000000002793,1140,,,,-0.03125,-0.013671875,-0.95703125,0.053707239387405944,1.1420062365685115,23.03167121785303,0.31486444844667805,1163,0,7.2518544548145245,6.541823692432171,90.2089766582262,0.17457001140058662,0.157477820836618,0.095703125,,
2.540820000000298,1140,,,,0.0625,0.01953125,-0.953125,0.053707239387405944,1.1420062365685115,23.03168749448739,0.31529606080088035,1163,0,7.261800340608771,6.541997966601218,90.08782477834951,0.17456536097974687,0.15726213652312768,0.095703125,,
2.549065000000177,1140,,,,-0.03125,0.03125,-1.01953125,0.053707239387405944,1.1420062365685115,23.031637267726055,0.31731402339477055,1163,0,7.308261486791094,6.538616646657205,89.46883822472772,0.174655634101496,0.15626236672463983,0.095703125,,
2.5572350000001025,1140,,,,0.0625,0.00390625,-0.921875,0.053707239387405944,1.1420062365685115,23.03165514750849,0.3187866692687854,1162,0,7.3421846322215085,6.537297670463059,89.03750038883295,0.17469087291654864,0.15554038665232767,0.095703125,,
2.5664750000000933,1140,,,,-0.03125,0.0390625,-1.01171875,0.053707239387405944,1.1420062365685115,23.031599839689836,0.31844863091269837,1162,0,7.334381436678352,6.536737611068888,89.12459308946569,0.17470584020914534,0.1557058691899329,0.095703125,,
2.5746700000001583,1140,,,,-0.03125,0.0625,-0.966796875,0.053707239387405944,1.1420062365685115,23.031404420709986,0.3187293490853227,1162,0,7.3407845395337175,6.536543570199009,89.044209580005,0.17471102644753617,0.1555700525493221,0.095703125,,
2.5829600000001958,1140,,,,-0.03125,0.04296875,-0.974609375,0.053707239387405944,1.1420062365685115,23.031302004907023,0.3195087297979916,1163,0,7.3587020491817805,6.539356537441156,88.86562458617647,0.17463587281561155,0.15519125912911397,0.095703125,,
2.5911750000000464,1140,,,,-0.0625,0.08984375,-0.984375,0.053707239387405944,1.1420062365685115,23.03147300503444,0.3198275141842608,1163,0,7.366098759202072,6.541931042317312,88.81134038754,0.1745671467921779,0.15503542294241773,0.095703125,,
2.5991149999999905,1140,,,,0,0.0546875,-0.9765625,0.053707239387405944,1.1420062365685115,23.031694675381743,0.3187375416219564,1163,0,7.34106574021868,6.542899708892079,89.12738205089518,0.17454130238561913,0.15556409341383898,0.09375,,
2.6079899999999907,1140,,,,-0.03125,0.064453125,-1,0.053707239387405944,1.1420062365685115,23.031640636126024,0.3197942309588333,1163,0,7.365385804950136,6.543296746437193,88.83847933722042,0.17453071147817512,0.1550504300536424,0.09375,,
2.6168900000001303,1140,,,,-0.0625,0.08203125,-0.9921875,0.054689762041174136,1.1420062365685115,23.031660470852653,0.31893082177351184,1163,0,7.345506400777546,6.663153656174232,90.71060989707823,0.17139125037440828,0.15547004852485413,0.09375,,
2.6248250000001865,1140,,,,0,0.103515625,-0.943359375,0.054689762041174136,1.1420062365685115,23.031677289215832,0.31926708608238763,1163,0,7.353256495717843,6.658390525677657,90.55022804597066,0.17151385641386424,0.15530618811319274,0.09375,,
2.633340000000084,1140,,,,-0.125,0.05859375,-1.015625,0.054689762041174136,1.1420062365685115,23.031693302230646,0.3195872483539597,1162,0,7.360635487392216,6.656512449004162,90.43393685784166,0.1715622475459142,0.15515049461756603,0.09375,,
2.6417100000001956,1140,,,,0.03125,0.037109375,-0.962890625,0.054689762041174136,1.1420062365685115,23.031710264182976,0.31945157258405865,1162,0,7.357516063193657,6.6557299252375355,90.46164314248878,0.17158241836679616,0.15521627499822327,0.09375,,
2.6502600000002423,1140,,,,-0.03125,0.07421875,-1.005859375,0.054689762041174136,1.1420062365685115,23.031724625240848,0.3193360185888488,1162,0,7.354859243059158,6.655462702586596,90.4906876208054,0.1715893075510256,0.15527234428670167,0.091796875,,
2.657910000000149,1140,,,,0,0.01171875,-0.82421875,0.054689762041174136,1.1420062365685115,23.031608574043588,0.3183846139687758,1162,0,7.332909804926815,6.655358602249846,90.76013177985992,0.1715919914792354,0.15573711759024006,0.09375,,
2.6687750000001396,1140,,,,-0.03125,0.060546875,-1.00390625,0.054689762041174136,1.1420062365685115,23.03162785576447,0.31704397338188045,1162,0,7.302038808844367,6.655316977943801,91.14327042308726,0.17159306466592086,0.15639553095572323,0.09375,,
2.676810000000289,1140,,,,-0.03125,0.017578125,-0.923828125,0.054689762041174136,1.140787838022001,23.031996890217187,0.3181662195051536,1162,0,7.328003378214857,6.655297818382872,90.82007028228391,0.1714104866758906,0.15567512447024873,0.09375,,
2.6930200000002515,1140,,,,-0.0625,0.078125,-1.0625,0.054689762041174136,1.140787838022001,23.03211788353811,0.32193717740180655,1162,0,7.4148950210119295,6.654037338236614,89.73879359560401,0.17144295711516416,0.15385084141977706,0.09375,,
2.701870000000112,1140,,,,-0.03125,0.029296875,-0.94921875,0.054689762041174136,1.140787838022001,23.03211146896799,0.3209533329735031,1162,0,7.392232941382523,6.652061659349844,89.98717589256259,0.17149387610058606,0.1543224959316077,0.091796875,,
2.7104650000003168,1140,,,,-0.03125,0.025390625,-0.998046875,0.054689762041174136,1.140787838022001,23.032237839111566,0.3201200652875519,1161,0,7.373081480774817,6.651392505779497,90.21184050553202,0.17151112899002022,0.1547233461337143,0.091796875,,
2.7194150000000374,1140,,,,-0.0625,0.078125,-0.9765625,0.054689762041174136,1.140787838022001,23.032150741717295,0.3204349310411216,1161,0,7.380305634650899,6.651114322286305,90.1197680900774,0.17151830245940772,0.15457189640845576,0.091796875,,
2.728220000000205,1140,,,,-0.0625,0.0546875,-0.9609375,0.054689762041174136,1.140787838022001,23.032215152517708,0.31883629876419556,1161,0,7.343506231569368,6.651016541805788,90.57004014258746,0.1715208240501941,0.15534647919515762,0.091796875,,0.24607999999984168,2549,
2.749300000000279,1140,,,,0,0.017578125,-0.96875,0.054689762041174136,1.140787838022001,23.032237931896514,0.3177983389137068,1163,0,7.319606956221982,6.660084859740167,90.98965148775929,0.1712872826768317,0.15585370155050227,0.091796875,,
2.76754000000027,1350,,,,-0.09375,0.041015625,-0.951171875,0.0549806754549674,1.140787838022001,23.032429246468062,0.31869416268374073,1163,0,7.340300753275641,6.693602486247962,91.18975790277956,0.1704295766540895,0.15541431834559633,0.091796875,,
2.7925600000002886,1350,,,,-0.041015625,0.10546875,-1.06640625,0.0549806754549674,1.140787838022001,22.991237276286462,1.820991727913329,1162,0,41.866852894610226,6.690262775400066,15.979855930994383,0.17051465335810878,0.02724799594786026,0.099609375,,
2.801630000000354,1350,,,,-0.09375,-0.1875,-0.71875,0.0549806754549674,1.140787838022001,22.97075782163533,2.6595836215609934,1182,0,61.09265127726541,6.8045614159347965,11.138101348806575,0.16765045802225034,0.01867307792625667,0.115234375,,
2.8094600000001955,1350,,,,-0.15625,0.423828125,-0.90625,0.0549806754549674,1.140787838022001,22.952144879493467,3.2902008200510937,1208,0,75.51716590444092,6.954430138640961,9.209071944570942,0.16403757249403247,0.015106338067103164,0.126953125,,
2.8263300000003073,1350,,,,-0.75,0.01171875,-1.1328125,0.0549806754549674,1.14031114927627,22.92474000043129,4.040204538419368,1222,0,92.62063859182652,7.036799117885239,7.59744180656752,0.16204969477926015,0.012311631258574577,0.140625,,
2.8467350000001024,1350,,,,0,0.15625,-1.0234375,0.0549806754549674,1.14031114927627,22.903260210949263,4.589871417909236,1501,0,105.12301941917387,8.640996918842843,8.219890340465973,0.13196523039947738,0.010847397226380309,0.14453125,,
2.866640000000363,1350,,,,-0.15625,0.3046875,-0.94921875,0.0549806754549674,1.14031114927627,22.892258616642213,4.8444759993921025,1791,0,110.90099744020026,10.311283364486124,9.297737263405722,0.11058867349176946,0.010282244304350334,0.15234375,,
2.874795000000391,1350,,,,0.125,-0.052734375,-0.935546875,0.0549806754549674,1.14031114927627,22.889363505133307,4.924421602416392,1893,0,112.71687611023984,10.899398784488408,9.669713321214237,0.10462147241544328,0.010116596455006595,0.15234375,,
2.882840000000084,1350,,,,-0.0625,-0.0546875,-1.037109375,0.0549806754549674,1.14031114927627,22.887534403197982,4.970841127129761,1974,0,113.77029731001385,11.364280529515547,9.98879391037267,0.10034169310715536,0.010022924930652368,0.15625,,
2.891020000000019,1350,,,,-0.4375,0.12109375,-0.65625,0.0549806754549674,1.14031114927627,22.88665970956315,4.96839800223962,2005,0,113.71003437893155,11.54607700556942,10.153964923704835,0.09876178278788753,0.01002823678230766,0.16015625,,
2.8986750000002792,1350,,,,0.125,0.126953125,-1.22265625,0.0549806754549674,1.14031114927627,22.886335337877618,4.956365822081549,2095,0,113.43305026135381,12.062741712248735,10.634239037437277,0.0945316725233681,0.01005272402222238,0.1640625,,
2.9074550000000743,1350,,,,-0.84375,-0.3359375,-0.943359375,0.0549806754549674,1.14031114927627,22.886416951919642,4.940372564636878,2131,0,113.06742641210415,12.268176075886943,10.850318668413243,0.09294871073113693,0.010085231312509975,0.173828125,,
2.916130000000121,1350,,,,-0.34375,-0.375,-1.0546875,0.05556402392905366,1.14031114927627,22.886803582309938,4.900566233371239,2251,0,112.158296825268,13.097364376248912,11.677570671970319,0.08706416928768805,0.01016697989853365,0.18359375,,
2.9250850000001956,1350,,,,0.4375,-0.25,-0.96484375,0.05556402392905366,1.14031114927627,22.887453617136646,4.857043397707946,2293,0,111.1653554814604,13.342149698654271,12.002075323619515,0.08546682319051517,0.010257792496030343,0.189453125,,
2.9341750000002795,1350,,,,-0.21875,0.173828125,-0.97265625,0.05556402392905366,1.14031114927627,22.88843750410593,4.809756310717167,2321,0,110.08780672782898,13.507415393192554,12.269674357839696,0.08442112099780112,0.010358196635668025,0.189453125,,
2.9429300000001675,1350,,,,0.15625,0.048828125,-1.072265625,0.05556402392905366,1.14031114927627,22.889732659205556,4.753160591136331,2338,0,108.79857521738207,13.60509286551392,12.504844698867268,0.08381502137091042,0.01048093825675476,0.19140625,,
2.951215000000084,1350,,,,-0.0625,-0.03125,-0.908203125,0.05556402392905366,1.14031114927627,22.89103658308833,4.694705242305225,2398,0,107.46666944842546,13.952643335884321,12.98322857449338,0.08172724850950236,0.010610835481632925,0.19140625,,
2.9592300000002143,1350,,,,0,-0.0859375,-0.96875,0.05556402392905366,1.14031114927627,22.892454628365062,4.63731713648958,2421,0,106.1595721444275,14.087294533303437,13.269923991534194,0.08094607141069478,0.010741482150332186,0.189453125,,
2.970730000000214,1350,,,,-0.0625,0.1796875,-0.966796875,0.05556402392905366,1.3382595908849115,22.89399330891313,4.57794678587,2460,0,104.80748308426816,14.313027663993108,13.656494023890481,0.09349940643596566,0.01276874085230072,0.189453125,,
2.9793100000002886,1350,,,,0.03125,-0.1015625,-0.939453125,0.05556402392905366,1.3382595908849115,22.89638277516425,4.48512046991434,2485,0,102.69303507188327,14.460505665069771,14.081291545183836,0.09254583635464138,0.013031649030025785,0.189453125,,
2.993945000000298,1350,,,,-0.0625,0.046875,-0.95703125,0.05556402392905366,1.3382595908849115,22.899406039541844,4.374749283462118,2517,0,100.17916016319379,14.647403994012137,14.62120861280054,0.09136496756913323,0.013358662507300528,0.1875,,
3.0020900000003166,1350,,,,-0.0625,0.009765625,-0.953125,0.05556402392905366,1.3382595908849115,22.900891851518896,4.318705387464233,2541,0,98.9022050168904,14.782585766241901,14.946669554755982,0.09052946568664692,0.013531140085869319,0.1875,,
3.009940000000177,1350,,,,-0.125,0.1328125,-1.10546875,0.05556402392905366,1.3382595908849115,22.902633511914125,4.259032415324303,2550,0,97.54305852353495,14.836966922172385,15.210684539477054,0.090197652788793,0.013719680427716131,0.1875,,
3.0186500000001395,1350,,,,-0.125,0.115234375,-1.033203125,0.05556402392905366,1.3382595908849115,22.904584174455632,4.19554221515442,2566,0,96.09714982448646,14.93229994877675,15.53875424614504,0.08962179941975659,0.013926111162809018,0.185546875,,
3.028390000000363,1350,,,,-0.0625,0.0078125,-0.9921875,0.05556402392905366,1.3382595908849115,22.906922318792265,4.115263780855077,2579,0,94.2680277493866,15.004372573306245,15.916714215338908,0.08919130635730563,0.01419632533781974,0.185546875,,
3.0371400000001305,1350,,,,0,0.072265625,-0.990234375,0.05556402392905366,1.3382595908849115,22.909389412521065,4.041189794119342,2598,0,92.58119068338584,15.11893699287375,16.330462895620244,0.08851545525427448,0.014454983577188633,0.18359375,,
3.044820000000298,1350,,,,-0.0625,-0.0703125,-0.92578125,0.05556402392905366,1.3382595908849115,22.911258768054502,3.9741085351301306,2605,0,91.05182902070044,15.157663957754863,16.64729212008339,0.08828930332633743,0.014697778235521894,0.18359375,,
3.0514850000003353,1350,,,,-0.03125,0.02734375,-0.998046875,0.05556402392905366,1.3382595908849115,22.9130989817596,3.9181305224087097,2615,0,89.77651248340422,15.213965430983084,16.94648746106671,0.08796257602633693,0.014906566916734459,0.18359375,,
3.058440000000177,1350,,,,-0.09375,0.041015625,-1.005859375,0.05556402392905366,1.3382595908849115,22.914598486842667,3.862996454541408,2619,0,88.51901271191313,15.23852870791387,17.21497816238412,0.08782078746158146,0.015118329383545022,0.18359375,,
3.067,1350,,,,-0.125,-0.12890625,-0.95703125,0.14925749531501906,1.3382595908849115,22.916491977146073,3.8018098721251783,2629,0,87.12414543319139,41.09602731860072,47.169504061436115,0.032564208226501586,0.01536037552197418,0.18359375,,
3.0751150000002236,1350,,,,0.0625,0.0078125,-1.009765625,0.14925749531501906,1.3382595908849115,22.918562823116247,3.7390045491224435,2633,0,85.69261065498016,41.15731362914176,48.0290112701215,0.032515717690994934,0.015616977714368846,0.18359375,,
3.083135000000242,1350,,,,-0.125,0.07421875,-1.0625,0.14925749531501906,1.3382595908849115,22.920247463588865,3.682252346097351,2639,0,84.39813499593195,41.248537260391295,48.8737544524882,0.03244380721761905,0.015856506674577782,0.18359375,,
3.0911750000000464,1350,,,,0.0625,-0.16796875,-0.857421875,0.14925749531501906,1.3382595908849115,22.921994528033302,3.6288111724352174,2641,0,83.17958983782617,41.28506281382786,49.633645578585615,0.03241510366399831,0.01608879766652004,0.185546875,,
3.099435000000289,1350,,,,-0.21875,0.20703125,-1.037109375,0.14925749531501906,1.3382595908849115,22.923577660935166,3.5744952063900945,2647,0,81.94021846232381,41.38042661022145,50.50075211753091,0.03234040101834875,0.016332145752091746,0.185546875,,
3.1083250000001863,1350,,,,-0.125,0.16796875,-0.953125,0.14925749531501906,1.3382595908849115,22.925464702636614,3.5161148762464447,2650,0,80.60856748580338,41.41978360218885,51.38384776467293,0.03230967123677079,0.01660195228156862,0.1875,,
3.1164300000001677,1350,,,,0.125,-0.201171875,-0.919921875,0.14925749531501906,3.4863919415866027,22.92677169233382,3.4635707212190874,2655,0,79.40849516564201,41.49554200328392,52.25579696067325,0.08401846977467345,0.04390452097491798,0.1875,,
3.126505000000354,1350,,,,0.09375,0.158203125,-1.02734375,0.14925749531501906,3.4863919415866027,22.928292036636325,3.4184964760889565,2657,0,78.38028552997976,41.5251658777204,52.97909493049422,0.08395853136030856,0.044480470031626626,0.1875,,
3.134780000000261,1350,,,,-0.21875,0.1015625,-0.951171875,0.14925749531501906,3.4863919415866027,22.93007432830634,3.3573131356514043,2660,0,76.98343974388592,41.58124032088571,54.01322733723147,0.08384530895860347,0.0452875573394146,0.189453125,,
3.1423500000000932,1350,,,,-0.1875,-0.10546875,-1.0390625,0.14925749531501906,3.4863919415866027,22.931339522622928,3.3174610776258833,2662,0,76.07382632412566,41.61235820592489,54.69996740880136,0.08378260910697917,0.04582905987576106,0.189453125,,
3.150720000000205,1350,,,,0.0625,0.0703125,-1.0234375,0.14925749531501906,3.4863919415866027,22.93266136163535,3.2778052382536864,2665,0,75.16879753826628,41.65930679777673,55.42100999629424,0.0836881890164496,0.04638083960052415,0.1875,,
3.1583350000001955,1350,,,,0.03125,-0.01171875,-0.890625,0.14925749531501906,3.4863919415866027,22.93403329668182,3.2416174531072963,2667,0,74.34336260466766,41.687686766614235,56.07452408131572,0.08363121612155978,0.04689580642358124,0.1875,,
3.166325000000186,1350,,,,-0.1875,0.15234375,-1.02734375,0.14925749531501906,3.4863919415866027,22.935240612282843,3.200495185502819,2669,0,73.40412715795996,41.72020365119071,56.8363187010072,0.08356603363529123,0.047495857202745004,0.1875,,
3.174310000000289,1350,,,,-0.03125,0.142578125,-0.9765625,0.14925749531501906,3.4863919415866027,22.936357486507077,3.163493213617969,2670,0,72.55901125368084,41.733041755179144,57.51600116114051,0.08354032668021222,0.04804905526341143,0.1875,,
3.1821500000001395,1350,,,,-0.0625,-0.04296875,-0.93359375,0.14925749531501906,3.4863919415866027,22.93751208999924,3.128434465000174,2673,0,71.7585033637118,41.775878032545535,58.217320699683874,0.08345466584497699,0.0485850704538198,0.185546875,,
3.189190000000177,1350,,,,0.0625,-0.001953125,-0.962890625,0.14925749531501906,3.4863919415866027,22.938551707543965,3.0983593644226977,2674,0,71.0718764893631,41.797376598619344,58.81000849172021,0.08341174076704531,0.049054451828190994,0.1875,,
3.1974300000001676,1350,,,,-0.09375,0.1328125,-0.966796875,0.14925749531501906,3.4863919415866027,22.939551330474217,3.066855744821585,2676,0,70.35229478149449,41.820872607031845,59.44493031381889,0.08336487797245039,0.04955619361692329,0.1875,,
3.2053350000001957,1350,,,,0,-0.1875,-0.87890625,0.14925749531501906,3.4863919415866027,22.940526745877065,3.034738156629452,2676,0,69.61849184889161,41.82945480960586,60.08382787205097,0.0833477738941502,0.05007853300174743,0.1875,,
3.2136000000000933,1350,,,,-0.09375,0.19921875,-1.05859375,0.18719399024755656,3.4863919415866027,22.94148007445602,3.0059181195268505,2678,0,68.96021064457155,52.48936248456016,76.11543235431235,0.0664209237178701,0.050556573261584824,0.1875,,
3.2212350000001027,1350,,,,-0.03125,-0.1015625,-0.955078125,0.18719399024755656,3.4863919415866027,22.942591273452415,2.9800584110131245,2678,0,68.37026209488818,52.50056091028122,76.7885909774895,0.06640675606389303,0.050992812295322015,0.1875,,
3.229880000000121,1350,,,,0.0625,-0.125,-0.8828125,0.18719399024755656,3.4863919415866027,22.94278746281808,2.97337047542859,2680,0,68.21740686597649,52.536385148285355,77.01316652434636,0.06636147370524577,0.05110707225263124,0.189453125,,
3.241385000000242,1350,,,,-0.03125,0.27734375,-1.048828125,0.18719399024755656,3.4863919415866027,22.9434595569367,2.956432038317874,2681,0,67.83077890397807,52.55371683629507,77.47768444571547,0.06633958835769353,0.05139837693036039,0.189453125,,
3.2505150000003633,1350,,,,-0.125,-0.173828125,-0.935546875,0.18719399024755656,3.4863919415866027,22.944432020087355,2.925066562773065,2685,0,67.11399090377718,52.63443032618836,78.42542161090005,0.06623785837484295,0.05194731969650144,0.19140625,,
3.258310000000289,1350,,,,-0.0625,0.185546875,-1.052734375,0.18719399024755656,3.4863919415866027,22.945450244388997,2.896232482295294,2687,0,66.4553583186899,52.67727344868976,79.26715735407419,0.06618398624945004,0.05246216452355039,0.19140625,,
3.2660750000001864,1350,,,,-0.0625,-0.00390625,-0.95703125,0.18719399024755656,4.85699087079318,22.94616950126321,2.8688286725403103,2689,0,65.82862899019389,52.70244031843011,80.0600606861809,0.09215874713669918,0.07378234888526537,0.19140625,,
3.2734250000002794,1350,,,,0,-0.09375,-0.93359375,0.18719399024755656,4.85699087079318,22.94684160133044,2.8486686454776042,2689,0,65.36794818245113,52.71150235361583,80.63814731723048,0.09214290342570756,0.07430233020679548,0.19140625,,
3.283040000000037,1350,,,,-0.0625,0.169921875,-1.037109375,0.18719399024755656,4.85699087079318,22.947685694234654,2.833504946641876,2689,0,65.0223809285969,52.71584554354327,81.07338548773257,0.0921353118917785,0.07469721658034628,0.19140625,,
3.2918400000003167,1350,,,,0.03125,-0.11328125,-0.833984375,0.18719399024755656,4.85699087079318,22.947869296308166,2.825277909255221,2691,0,64.83410818733562,52.753583067101204,81.36702199199192,0.09206940246343481,0.07491413095031854,0.19140625,,
3.3004850000001023,1350,,,,-0.09375,0.2109375,-1.109375,0.18719399024755656,4.85699087079318,22.94787689489581,2.81120457063248,2693,0,64.51117641324258,52.78258303705286,81.81928461347648,0.09201881740769716,0.07528913811275899,0.19140625,,
3.308380000000354,1350,,,,0.0625,0.1171875,-0.95703125,0.18719399024755656,4.85699087079318,22.948634309767204,2.7905943889391662,2694,0,64.04033013865319,52.81537739945558,82.47205672598102,0.09196168066846469,0.07584268944706171,0.19140625,,
3.3255500000000464,1350,,,,-0.09375,0.1328125,-1.037109375,0.18719399024755656,4.85699087079318,22.949983501629134,2.7432158414403083,2696,0,62.95675830246276,52.85199582985745,83.94967792963693,0.09189796514835381,0.07714804576593302,0.19140625,,
3.332980000000214,1350,,,,-0.125,-0.14453125,-0.953125,0.18719399024755656,4.85699087079318,22.9502418579541,2.725412715012873,2697,0,62.548880972288764,52.86408991809178,84.51644393368497,0.09187694100699846,0.07765112333416467,0.19140625,,
3.3402200000002047,1350,,,,-0.03125,0.07421875,-0.904296875,0.18719399024755656,4.85699087079318,22.95093730242391,2.715243705234335,2698,0,62.31738803963441,52.879601595592945,84.85529201249746,0.09184998986826648,0.07793957711616686,0.19140625,,
3.348815000000177,1350,,,,-0.0625,0.24609375,-1.078125,0.18719399024755656,4.85699087079318,22.95098971964462,2.714488491515083,2698,0,62.30019746285631,52.88667432069135,84.89005889944835,0.09183770643889654,0.07796108308788174,0.19140625,,
3.3559200000001583,1350,,,,-0.0625,-0.033203125,-0.927734375,0.18719399024755656,4.85699087079318,22.95103861844904,2.7106381999294245,2698,0,62.21196200722341,52.88942456941959,85.0148795552833,0.09183293088050477,0.0780716555801477,0.19140625,,
3.364695000000065,1350,,,,0.09375,0.12890625,-0.94921875,0.18719399024755656,4.85699087079318,22.951493664337498,2.6896120428654426,2698,0,61.73061376135204,52.89055114519915,85.6796132785457,0.0918309748268533,0.07868042410156657,0.193359375,,
3.3727300000002143,1350,,,,-0.125,0.125,-1.06640625,0.18482433088625377,4.85699087079318,22.952098361445643,2.6709066054210755,2699,0,61.30291112185941,52.24516310737912,85.224603777013,0.09296536907752859,0.07922936744616152,0.193359375,,
3.381095000000205,1350,,,,0.125,-0.080078125,-0.91015625,0.18482433088625377,4.85699087079318,22.952905755025053,2.6518742248927833,2700,0,60.86821915814417,52.255051394318144,85.84948289443493,0.09294777712765384,0.0797951860259627,0.19140625,,
3.3894950000003448,1350,,,,-0.03125,0.185546875,-1.060546875,0.18482433088625377,4.85699087079318,22.953349250476425,2.6367028616139114,2700,0,60.52116165235472,52.25890906581065,86.34815928682261,0.09294091586712379,0.08025277007557584,0.193359375,,
3.3974200000001584,1350,,,,-0.1875,0.16796875,-1.04296875,0.18482433088625377,4.85699087079318,22.953813472858986,2.6235270601704084,2700,0,60.219950780149645,52.260304685165806,86.78237695005294,0.09293843386588305,0.08065418200896628,0.1953125,,
3.413450000000186,1350,,,,-0.1875,0.25390625,-1.125,0.18482433088625377,5.608537052514202,22.954984775621963,2.595540129440355,2698,0,59.58058415581921,52.2202526934698,87.64642615268731,0.10740156861047813,0.0941336365190105,0.1953125,,
3.421355000000214,1350,,,,-0.03125,0.013671875,-0.982421875,0.18482433088625377,5.608537052514202,22.955230186169388,2.5899765807920496,2697,0,59.45350858886943,52.2052381635767,87.80850685295012,0.10743245792578812,0.0943348371800584,0.1953125,,
3.428700000000186,1350,,,,-0.03125,-0.001953125,-0.95703125,0.18482433088625377,5.608537052514202,22.95509157476029,2.593581161851777,2697,0,59.53589307688072,52.1947938217082,87.66945639718094,0.10745395549740767,0.09420429866184603,0.197265625,,
3.4397100000001957,1350,,,,-0.0625,0.1484375,-1.04296875,0.18482433088625377,5.608537052514202,22.95484858139357,2.595368543825641,2696,0,59.57629193642951,52.17835838816479,87.58242027523525,0.10748780195021128,0.09414041844864655,0.1953125,,
3.45004000000027,1350,,,,0,-0.048828125,-0.921875,0.18482433088625377,5.608537052514202,22.955410486584682,2.5746538398336587,2698,0,59.10223575424309,52.209580827426215,88.33774249170932,0.10742352195955539,0.09489551420415684,0.1953125,,
3.4585550000001675,1350,,,,-0.1875,0.24609375,-1.03125,0.18482433088625377,5.608537052514202,22.955666888361982,2.557377689520383,2700,0,58.70631034835872,52.25146916741523,89.00485971160347,0.10733740394062961,0.09553550579543453,0.197265625,,
3.4670850000001954,1350,,,,-0.03125,0.10546875,-1.009765625,0.18482433088625377,5.608537052514202,22.955903956219586,2.5462947157561615,2698,0,58.4524969391279,52.22399852011026,89.34434156764259,0.10739386510886338,0.09595034166555623,0.197265625,,
3.4747650000003634,1350,,,,-0.09375,-0.095703125,-0.962890625,0.18482433088625377,5.608537052514202,22.95635193625535,2.536940052874261,2698,0,58.238888694963784,52.21515576039678,89.65685460428797,0.10741205251307638,0.09630226774913034,0.197265625,,
3.4831450000002513,1350,,,,0,0.30078125,-1.01953125,0.18482433088625377,5.608537052514202,22.956591668536458,2.527546921828221,2698,0,58.02386260747671,52.21908557319765,89.995879671873,0.10740396908430125,0.09665914677992345,0.197265625,,
3.491280000000261,1350,,,,-0.15625,-0.017578125,-0.951171875,0.18482433088625377,5.608537052514202,22.956778557187974,2.520936197173128,2698,0,57.87257403530305,52.22076722716982,90.23404971638975,0.10740051037772094,0.09691182992988905,0.197265625,,
3.499630000000121,1350,,,,-0.03125,0.03125,-0.998046875,0.18482433088625377,5.608537052514202,22.957134261123105,2.5101918004640087,2696,0,57.62681018442259,52.173543561763154,90.53692785492136,0.10749772144333657,0.09732513450883797,0.19921875,,
3.5076950000000653,1350,,,,0.0625,0.041015625,-1.029296875,0.18482433088625377,5.608537052514202,22.957340991886923,2.504041888037679,2695,0,57.48614348164933,52.162927862548614,90.74000220453128,0.10751959834948147,0.09756328591262264,0.19921875,,
3.515475000000326,1350,,,,-0.0625,-0.01171875,-0.9296875,0.18169931747095527,5.608537052514202,22.95727520865857,2.498638386222963,2696,0,57.361929079439086,51.292486893367254,89.41904101993082,0.10934422158500283,0.0977745543520177,0.19921875,,
3.523695000000298,1350,,,,-0.09375,0.11328125,-1.060546875,0.18169931747095527,5.608537052514202,22.957605153359268,2.4888142824411337,2696,0,57.137215596324715,51.29702972247464,89.77866559842349,0.10933453813714575,0.09815908937772888,0.197265625,,
3.5324700000002047,1350,,,,-0.0625,0.12890625,-0.94140625,0.18169931747095527,5.608537052514202,22.958028363030053,2.4798111501687896,2695,0,56.93157472053325,51.28239613069139,90.0772486663637,0.1093657370888256,0.098513646953303,0.197265625,,
3.5405450000001584,1350,,,,0.0625,-0.13671875,-0.908203125,0.18169931747095527,5.608537052514202,22.958124576275722,2.473717121767928,2694,0,56.79190584801431,51.26448430369951,90.26723709694264,0.10940394951187407,0.09875592249930279,0.19921875,,
3.548530000000028,1350,,,,-0.1875,0.291015625,-1.033203125,0.18169931747095527,5.608537052514202,22.958416521860183,2.465006119639616,2692,0,56.59263722362061,51.23111949226282,90.52612142782418,0.10947519999755678,0.09910365248314161,0.201171875,,
3.5566750000000464,1350,,,,0,-0.05078125,-1,0.18169931747095527,5.608537052514202,22.958493329720543,2.4579839237054575,2692,0,56.43160751695208,51.21312364404809,90.75255144674665,0.10951366863493431,0.09938644846913841,0.19921875,,
3.56451500000013,1350,,,,0,-0.0078125,-0.9296875,0.18169931747095527,5.929869584453322,22.958468967745862,2.454819579609473,2691,0,56.35889913987903,51.1954765339803,90.8383189084594,0.11582799860291275,0.10521620675619979,0.19921875,,
3.5731400000003632,1350,,,,-0.125,0.2265625,-1.029296875,0.18169931747095527,5.929869584453322,22.9586430717225,2.447972844264909,2690,0,56.20213478074737,51.184649508543046,91.07242938052397,0.11585249955582072,0.10550968584354666,0.19921875,,
3.5860800000000745,1350,,,,-0.03125,-0.19921875,-0.921875,0.18169931747095527,5.929869584453322,22.958645294185207,2.4438172336406097,2690,0,56.10673303097169,51.17449058529151,91.20917904281201,0.11587549805835637,0.1056890904907964,0.201171875,,
3.5948700000003444,1350,,,,0,0.16796875,-1.021484375,0.18169931747095527,5.929869584453322,22.958702357079645,2.4404819585786814,2689,0,56.03029889483072,51.17267306915597,91.33035889244042,0.11587961364534456,0.10583326702546654,0.201171875,,
3.602725000000326,1350,,,,-0.125,-0.03125,-0.91015625,0.18169931747095527,5.929869584453322,22.95862223273797,2.4390255277940764,2690,0,55.99666570862854,51.17454708076354,91.38856114584344,0.11587537013458697,0.10589683348841943,0.201171875,,
3.61079000000027,1350,,,,0.1875,-0.125,-1.0234375,0.18169931747095527,5.929869584453322,22.958499726642625,2.441888002269833,2690,0,56.06208503260386,51.18016522635815,91.2919403489782,0.11586265027138673,0.1057732615724996,0.201171875,,
3.6188750000002328,1350,,,,-0.03125,0.248046875,-1.025390625,0.18169931747095527,5.929869584453322,22.958377419522904,2.4401776976357414,2690,0,56.022520553023796,51.18771615520153,91.3698913399545,0.11584555885388428,0.10584796124695713,0.203125,,
3.627595000000205,1350,,,,-0.0625,-0.171875,-0.955078125,0.18169931747095527,5.929869584453322,22.958613859336936,2.434761230148268,2691,0,55.89874292265827,51.20188994279351,91.59756957976076,0.11581349030433459,0.10608234236426235,0.203125,,
3.635635000000242,1350,,,,-0.125,0.158203125,-1.05859375,0.18169931747095527,5.929869584453322,22.958682633545827,2.429831715489517,2691,0,55.78573520884804,51.2066981712316,91.79174206367694,0.11580261559970642,0.10629723821427382,0.203125,,
3.643795000000391,1350,,,,0.125,0,-0.88671875,0.18169931747095527,5.929869584453322,22.9587468171949,2.425968439267986,2691,0,55.697195183659154,51.20856069079582,91.94100442928544,0.1157984037133688,0.10646621548715024,0.203125,,
3.651685000000056,1350,,,,-0.0625,-0.05078125,-0.888671875,0.18169931747095527,5.929869584453322,22.958807501438137,2.4244191800392274,2691,0,55.66177325731511,51.21187192782612,92.00546251209454,0.11579091646582265,0.10653396824137318,0.203125,,
3.6605550000001674,1350,,,,-0.0625,0.099609375,-1.046875,0.18169931747095527,5.929869584453322,22.95887334977346,2.4236944673765075,2692,0,55.64529431504388,51.2188021030852,92.04516344742927,0.11577524934141582,0.10656551748797498,0.201171875,,
3.6687000000001864,1350,,,,-0.0625,-0.05859375,-0.84375,0.17875750619162298,5.929869584453322,22.958732323815266,2.420955893146571,2691,0,55.58207831851524,50.38034248083936,90.6413434059318,0.1177020498959206,0.10668671924198259,0.201171875,,
3.6767100000001958,1350,,,,0,-0.015625,-0.94140625,0.17875750619162298,5.929869584453322,22.958860317079573,2.4181318688465407,2691,0,55.51755180512631,50.36519992944332,90.71941807922582,0.11773743761089969,0.10681071826199975,0.203125,,
3.6856500000001398,1350,,,,-0.03125,0.16796875,-1.08203125,0.17875750619162298,5.929869584453322,22.95911364394,2.415654267663847,2690,0,55.46128085576292,50.35667325910108,90.79608779693118,0.11775737356481553,0.10691908828927012,0.203125,,
3.6934500000001864,1350,,,,-0.125,-0.1796875,-0.84765625,0.17875750619162298,5.929869584453322,22.959270231700476,2.4079412708106505,2690,0,55.28457433860598,50.34778526267393,91.07022323135693,0.11777816151229036,0.10726083460703094,0.203125,,
3.7014350000002887,1350,,,,0,0.142578125,-0.9921875,0.17875750619162298,5.929869584453322,22.959306484687076,2.407892149633186,2689,0,55.283533845500315,50.34086075579575,91.05941182501512,0.11779436218262548,0.1072628533665268,0.203125,,
3.7095350000003817,1350,,,,-0.03125,0.080078125,-0.994140625,0.17875750619162298,5.929869584453322,22.95924277096884,2.4072111469486184,2689,0,55.267745123775676,50.334366050830454,91.07367405365171,0.11780956133360274,0.10729349589300229,0.203125,,
3.7178000000002793,1350,,,,0.125,-0.27734375,-0.921875,0.17875750619162298,6.033268129927544,22.959410421049032,2.406135381036515,2689,0,55.24344974182455,50.335605564029294,91.11597085132873,0.11986084328026884,0.10921237102540657,0.203125,,
3.7259950000001116,1350,,,,-0.125,0.20703125,-1.01171875,0.17875750619162298,6.033268129927544,22.959340837952777,2.403607271717605,2689,0,55.18523859194626,50.339934416105656,91.21992710465923,0.11985053615797464,0.10932757171784775,0.205078125,,
3.7348600000001024,1350,,,,-0.0625,0.037109375,-0.9453125,0.17875750619162298,6.033268129927544,22.95945052347634,2.4042692352846045,2689,0,55.20070055263317,50.33092055266916,91.17804674359027,0.11987200042594065,0.1092969485808409,0.203125,,
3.743135000000242,1350,,,,0.125,-0.1171875,-0.99609375,0.17875750619162298,6.033268129927544,22.95947765148764,2.3986295935615174,2688,0,55.07128254757254,50.3227581485756,91.37749444114546,0.11989144378999657,0.10955379738461313,0.203125,,
3.7524600000001955,1350,,,,-0.125,0.197265625,-1.064453125,0.17875750619162298,6.033268129927544,22.959438435598923,2.395662954526338,2688,0,55.00307611689248,50.31451120235069,91.47581327164747,0.11991109494562019,0.10968964930444342,0.203125,,
3.760725000000093,1350,,,,-0.03125,-0.107421875,-0.869140625,0.17875750619162298,6.033268129927544,22.95947258409332,2.393976950712146,2687,0,54.964448166826834,50.30802548021681,91.52830085280407,0.11992655391136496,0.10976673706639438,0.203125,,
3.7705500000002794,1350,,,,-0.09375,0.232421875,-1.0390625,0.17875750619162298,6.033268129927544,22.959663788292062,2.3887790696042317,2689,0,54.84556430262228,50.33119307005581,91.76894013222756,0.11987135138103837,0.11000466868455724,0.203125,,
3.7786750000000464,1350,,,,-0.0625,-0.064453125,-0.97265625,0.17875750619162298,6.033268129927544,22.959681039708673,2.388598387227976,2689,0,54.84145710271687,50.330518310049555,91.77458253120732,0.11987295844562906,0.1100129071812837,0.203125,,
3.786630000000121,1350,,,,0.125,-0.07421875,-0.9765625,0.17875750619162298,6.033268129927544,22.95982491563913,2.387182430566963,2688,0,54.80929064750733,50.3151270050259,91.80036160039991,0.11990962736365328,0.11007747151352579,0.203125,,
3.7951150000002234,1350,,,,-0.0625,0.265625,-1.02734375,0.17875750619162298,6.033268129927544,22.95983365602667,2.387194187607472,2688,0,54.80958145210128,50.3114313985354,91.79313190432431,0.11991843527837247,0.11007688747267821,0.203125,,
3.8032000000001864,1350,,,,-0.03125,-0.1796875,-0.931640625,0.17875750619162298,6.033268129927544,22.95977074970274,2.3875568133521723,2688,0,54.817757086456695,50.315269773395116,91.78644375040662,0.11990928712296632,0.11006047037663506,0.203125,,
3.8112400000002236,1350,,,,-0.125,0.19921875,-0.99609375,0.17875750619162298,6.033268129927544,22.959782206354124,2.39014159982967,2688,0,54.87713057443603,50.31148239006645,91.6802352153295,0.11991831373902746,0.10994139210219715,0.203125,,
3.819010000000242,1350,,,,0,0.154296875,-0.986328125,0.17681400804106862,6.033268129927544,22.95979184898904,2.388013068030254,2687,0,54.828282974640324,49.75361648897867,90.7444366112854,0.12126290621032589,0.11003934105903163,0.203125,,
3.827695000000298,1350,,,,-0.09375,-0.08203125,-0.94140625,0.17681400804106862,6.033268129927544,22.959947518363656,2.3904493198469194,2687,0,54.88459092899337,49.75106372334296,90.64668767907575,0.12126912830401983,0.10992644798488249,0.201171875,,
3.8358350000001957,1350,,,,0,0.19140625,-1.08984375,0.17681400804106862,6.033268129927544,22.960014905431365,2.3914621165874923,2687,0,54.90800584262326,49.755201750427865,90.61556868962914,0.12125904262614434,0.10987957106328049,0.201171875,,
3.844620000000112,1350,,,,0,0.03125,-0.931640625,0.17681400804106862,6.033268129927544,22.96023588956004,2.389673937362058,2688,0,54.86747730096657,49.76768949103633,90.70526282453959,0.12122861622929465,0.10996073496933417,0.201171875,,
3.8526450000002517,1350,,,,-0.0625,-0.005859375,-0.93359375,0.17681400804106862,6.033268129927544,22.96003086815358,2.3917712239638385,2689,0,54.9151411317712,49.791877625528564,90.67058119007807,0.12116972521707546,0.10986529408074291,0.19921875,,
3.8604550000000746,1350,,,,-0.0625,0.125,-1.140625,0.17681400804106862,6.033268129927544,22.96002940025658,2.3903836985649383,2689,0,54.88327999694505,49.79022695108533,90.72021015117316,0.12117374230598943,0.10992907366803463,0.19921875,,
3.8678000000000465,1350,,,,-0.03125,-0.013671875,-0.9453125,0.17681400804106862,6.0752111388131285,22.960028033331753,2.390554324582997,2688,0,54.88719430762807,49.77834940300712,90.69210046338452,0.12204525083039665,0.11068540149389294,0.19921875,,
3.87529000000027,1350,,,,0.1875,-0.16796875,-0.87890625,0.17681400804106862,6.0752111388131285,22.95984959359898,2.390703801487016,2689,0,54.89019970498721,49.78095497192397,90.69188168284434,0.12203886289926531,0.11067934114769029,0.201171875,,
3.8839300000004005,1350,,,,-0.21875,0.263671875,-1.056640625,0.17681400804106862,6.0752111388131285,22.95998804249727,2.389582806922653,2689,0,54.86479267350117,49.789705467555706,90.74982888179827,0.12201741467966501,0.11073059502779019,0.201171875,,
3.893035000000149,1350,,,,0.09375,-0.10546875,-0.931640625,0.17681400804106862,6.0752111388131285,22.959988758101257,2.3844235933880746,2689,0,54.7463388987416,49.79068453437181,90.94797119943358,0.12201501537138441,0.11097018103895115,0.203125,,
3.9036049999999816,1350,,,,-0.0625,0.130859375,-1.021484375,0.17681400804106862,6.0752111388131285,22.96006215332926,2.3832848247424723,2689,0,54.7203677051736,49.78571069370256,90.98204705410909,0.12202720527963835,0.11102284932633485,0.201171875,,
3.911600000000326,1350,,,,-0.0625,0.05859375,-0.943359375,0.17681400804106862,6.0752111388131285,22.960179437001045,2.3825506750115184,2688,0,54.703791016012424,49.77824183564676,90.99596373691195,0.122045514561798,0.1110564921731813,0.201171875,,
3.9251150000002237,1350,,,,0.25,-0.23828125,-0.87890625,0.17681400804106862,6.0752111388131285,22.960504524434345,2.3840726010291076,2688,0,54.73950974250878,49.77228627019082,90.92570705202975,0.12206011807120141,0.11098402538478225,0.203125,,
3.9325850000001954,1350,,,,-0.166015625,0.19140625,-1.009765625,0.17681400804106862,6.0752111388131285,22.9605174835979,2.385303721775252,2688,0,54.767807807511815,49.76411597180312,90.86380843780569,0.12208015796473523,0.1109266808736476,0.205078125,,
3.9417100000001954,1350,,,,0,-0.083984375,-0.939453125,0.17681400804106862,6.0752111388131285,22.960705527901187,2.3826061759602974,2688,0,54.70631879518311,49.76547305547075,90.96841855104424,0.12207682888980952,0.11105136065832402,0.205078125,,
3.9501850000002885,1350,,,,-0.125,0.1484375,-1.078125,0.17681400804106862,6.0752111388131285,22.96080209836483,2.3865793393505688,2688,0,54.79777590287469,49.768467419819366,90.82205728208855,0.12206948402823006,0.11086601670806905,0.203125,,
3.959120000000112,1350,,,,-0.125,0.0390625,-0.953125,0.17681400804106862,6.0752111388131285,22.960980175472994,2.3843280045992077,2689,0,54.74650804542749,49.79124819879682,90.94871979319869,0.12201363409403207,0.11096983818167998,0.203125,,
3.9679400000001768,1350,,,,-0.09375,0.171875,-0.9921875,0.1770499470314156,6.0752111388131285,22.96092679019954,2.3827226745161982,2690,0,54.709520890914874,49.87634092250101,91.1657424709481,0.12180546981690037,0.1110448609288038,0.20703125,,
3.97579000000027,1350,,,,0,-0.0078125,-1.03515625,0.1770499470314156,6.0752111388131285,22.96088135874771,2.3796499464049146,2689,0,54.63886009475359,49.852397266432156,91.23981938858012,0.12186397188373206,0.1111884678464672,0.20703125,,
3.983530000000028,1350,,,,-0.0625,-0.12109375,-1.00390625,0.1770499470314156,6.0752111388131285,22.96090331180378,2.379079782350218,2688,0,54.625820853610534,49.84302549473332,91.2444421261981,0.12188688544709367,0.11121500865119877,0.20703125,,
3.990885000000242,1350,,,,0,0.177734375,-0.98828125,0.1770499470314156,6.0752111388131285,22.961039917506106,2.3771505300848075,2689,0,54.581848211198064,49.846626530295175,91.32454866207442,0.12187808005664759,0.11130460652973515,0.205078125,,
3.9990200000000184,1350,,,,-0.09375,0.017578125,-1.017578125,0.1770499470314156,6.0752111388131285,22.960989462030422,2.3785977683922352,2689,0,54.61495829446319,49.84825518899487,91.27216562215783,0.12187409801565871,0.11123712859136299,0.20703125,,
4.00676500000013,1350,,,,0.125,-0.14453125,-0.91796875,0.1770499470314156,6.0752111388131285,22.9607421474031,2.3795731293136977,2687,0,54.636765043060905,49.82606338541124,91.19511989068495,0.1219283789654535,0.11119273137831402,0.20703125,,
4.015380000000121,1350,,,,-0.03125,0.17578125,-1.025390625,0.1770499470314156,6.104963274292741,22.960802569716325,2.3790129743945387,2687,0,54.624047215866604,49.81754788009895,91.20076306910573,0.12254644265081428,0.11176329081158667,0.20703125,,
4.023860000000102,1350,,,,-0.125,0.1171875,-0.92578125,0.1770499470314156,6.104963274292741,22.960759224487823,2.3866258999640677,2688,0,54.79874264800152,49.82981665157309,90.9324087445834,0.1225162700673917,0.11140699547629832,0.20703125,,
4.033180000000168,1350,,,,-0.03125,-0.17578125,-0.916015625,0.1770499470314156,6.104963274292741,22.960329480076282,2.3913231277168596,2688,0,54.90556690570563,49.83442398311797,90.76388204624715,0.12250494309637998,0.1111902420528205,0.20703125,,
4.042305000000168,1350,,,,-0.0625,0.255859375,-1.03515625,0.1770499470314156,6.104963274292741,22.960312019644192,2.3949222257554355,2689,0,54.98816156612555,49.85173066200545,90.65902412841476,0.12246241390663785,0.11102322937185796,0.20703125,,
4.049955000000307,1350,,,,-0.0625,-0.16796875,-0.89453125,0.1770499470314156,6.104963274292741,22.960230746108927,2.392944663373814,2689,0,54.94256163373272,49.86294481657124,90.75467785607802,0.12243487216310261,0.11111537381512471,0.208984375,,
4.060145000000252,1350,,,,-0.25,0.30859375,-1.046875,0.1770499470314156,6.104963274292741,22.960219533182805,2.392357635378462,2690,0,54.929056510175585,49.877402374425124,90.8033116592588,0.1223993829603101,0.1111426931784601,0.208984375,,
4.068695000000298,1350,,,,0.041015625,0,-0.9609375,0.1770499470314156,6.104963274292741,22.960205149346837,2.390174802534241,2691,0,54.87890380898574,49.888350092949274,90.90624380288857,0.12237252310245385,0.11124426419926282,0.208984375,,
4.076975000000326,1350,,,,0,-0.0546875,-0.9140625,0.1770499470314156,6.104963274292741,22.960327598623316,2.389929855290276,2691,0,54.87357241519515,49.89509967956257,90.92737630062886,0.12235596909316092,0.11125507244361957,0.208984375,,
4.085255000000354,1350,,,,-0.125,0.21484375,-1.072265625,0.1770499470314156,6.104963274292741,22.960311444400634,2.3891621272378365,2691,0,54.855906532547465,49.897723899484035,90.96144253833157,0.12234953415091282,0.11129090120259891,0.208984375,,
4.092785000000149,1350,,,,-0.0625,-0.0859375,-0.8515625,0.1770499470314156,6.104963274292741,22.960296422904072,2.3872915863135122,2691,0,54.81292246966312,49.89874120116761,91.03463007064562,0.12234703977161425,0.11137817505847471,0.208984375,,
4.101085000000196,1350,,,,0.0625,0.013671875,-0.96484375,0.1770499470314156,6.104963274292741,22.960281722505446,2.3916686767213555,2691,0,54.91338660441413,49.89533046421183,90.86187093804386,0.12235540315083426,0.11117440849663426,0.208984375,,
4.108745000000112,1350,,,,-0.0625,0.15234375,-1.064453125,0.1770499470314156,6.104963274292741,22.960203199203733,2.3911458004808646,2691,0,54.901193457963316,49.890240706518384,90.87277992366101,0.12236788573952702,0.11119909950531735,0.208984375,,
4.116565000000177,1350,,,,-0.09375,-0.14453125,-0.92578125,0.17675269270394306,6.104963274292741,22.959602260842644,2.3957748163388946,2691,0,55.00603688968435,49.81456963773407,90.5620045625867,0.12255376928255722,0.11098715012929145,0.208984375,,
4.126065000000177,1350,,,,0,0.3125,-0.953125,0.17675269270394306,6.104963274292741,22.959623987894762,2.3953195188186838,2692,0,54.99563548294199,49.823248278101374,90.5949132882646,0.12253242181674519,0.11100814129489092,0.208984375,,
4.133115000000224,1350,,,,-0.0625,0.04296875,-0.984375,0.17675269270394306,6.104963274292741,22.95977152176184,2.3916753991647415,2691,0,54.91232071904101,49.81616006981973,90.71945861604394,0.12254985662757512,0.1111765664672742,0.208984375,,
4.151570000000065,1350,,,,0,0.21875,-1.0859375,0.17675269270394306,6.104963274292741,22.959931517722787,2.3848153410631427,2692,0,54.75519691322447,49.820121257562235,90.98701870530519,0.12254011271331589,0.11149559527596678,0.2109375,,
4.159865000000224,1350,,,,-0.03125,-0.056640625,-0.888671875,0.17675269270394306,6.104963274292741,22.960227982446177,2.3807901258696478,2692,0,54.66348406832385,49.8252707022023,91.1490944117754,0.12252744818550275,0.11168265942694307,0.2109375,,
4.167545000000159,1350,,,,0.03125,0.013671875,-0.970703125,0.17675269270394306,6.117857797435336,22.960023470149043,2.3776438160212376,2691,0,54.59075781950235,49.804443218579586,91.2323719396823,0.12283759042512626,0.11206764737839477,0.2109375,,
4.174655000000028,1350,,,,-0.125,0.21484375,-1.1484375,0.17675269270394306,6.117857797435336,22.960110958920403,2.3766372402751803,2690,0,54.56785474582051,49.7965401373297,91.25618071167392,0.12285708566425317,0.1121146841108669,0.2109375,,
4.181700000000186,1350,,,,-0.03125,-0.126953125,-0.861328125,0.17675269270394306,6.117857797435336,22.960106267542393,2.3765416656334857,2690,0,54.56564919218703,49.793225512197935,91.25379473965384,0.12286526398930783,0.11211921580713678,0.2109375,,
4.189955000000075,1350,,,,-0.1875,0.234375,-1.0234375,0.17675269270394306,6.117857797435336,22.9599724855156,2.386912675347651,2690,0,54.80344935131049,49.791665197528026,90.85498410573564,0.12286911420144803,0.11163271417858378,0.2109375,,
4.198050000000279,1350,,,,-0.125,0.12109375,-0.982421875,0.17675269270394306,6.117857797435336,22.959676308787238,2.393881919422928,2690,0,54.96275399140872,49.79103175640654,90.59049654642382,0.12287067734137004,0.11130915671350139,0.2109375,,
4.205915000000037,1350,,,,0.125,-0.11328125,-0.98828125,0.17675269270394306,6.117857797435336,22.959429642569425,2.3917479089176674,2690,0,54.91316783755773,49.790785430187945,90.67185047032318,0.1228712852102571,0.11140966799680864,0.2109375,,
4.216510000000009,1350,,,,-0.0625,0.13671875,-0.96875,0.17675269270394306,6.117857797435336,22.95962712421582,2.3907171000172913,2692,0,54.88997317588359,49.818941829505235,90.76146142369339,0.12280184148375546,0.11145674598586383,0.212890625,,
4.224575000000186,1350,,,,-0.09375,0.0078125,-1.046875,0.17675269270394306,6.117857797435336,22.95987107967185,2.389066516987745,2692,0,54.85265923079928,49.831598019669556,90.8462756746159,0.12277065236841275,0.11153256529813259,0.212890625,,
4.233310000000289,1350,,,,0,-0.021484375,-0.962890625,0.17675269270394306,6.117857797435336,22.959775252679716,2.3866479170644106,2692,0,54.79689978307505,49.82946466505567,90.93482452897152,0.12277590856250276,0.11164605701516239,0.212890625,,
4.241425000000279,1350,,,,0.125,0.26953125,-0.9921875,0.17675269270394306,6.117857797435336,22.95966022063284,2.386377270578527,2692,0,54.79041129072419,49.82868718493383,90.94417437485022,0.122777824242681,0.11165927857291093,0.212890625,,
4.248495000000112,1350,,,,-0.15625,-0.01953125,-1,0.17675269270394306,6.117857797435336,22.95958054329327,2.3861148092418927,2691,0,54.78419514833409,49.80590477953825,90.91290771851884,0.122833985739553,0.11167194810237842,0.212890625,,
4.25794000000041,1350,,,,-0.0625,0.0390625,-0.984375,0.17675269270394306,6.117857797435336,22.959603915201367,2.3851016182394673,2691,0,54.76098845228399,49.80411604127181,90.94816848433744,0.122838397379959,0.11171927261258505,0.212890625,,
4.266515000000131,1350,,,,-0.03125,0.060546875,-0.96875,0.17662829115382106,6.117857797435336,22.959734933009067,2.382738207414381,2691,0,54.70703765698737,49.776428766500906,90.98724935281393,0.12290672410698537,0.11182944753459784,0.212890625,,
4.273930000000168,1350,,,,0.125,-0.09375,-0.84765625,0.17662829115382106,6.117857797435336,22.95963014734791,2.3803863784352335,2691,0,54.652790856657894,49.77878279259484,91.08186793818729,0.12290091187897503,0.11194044625243596,0.212890625,,
4.282370000000345,1350,,,,-0.0625,0.109375,-1.021484375,0.17662829115382106,6.117857797435336,22.959845013816526,2.3778499897624044,2691,0,54.59506723105002,49.77987087325344,91.18016223440418,0.12289822552999914,0.11205880142145715,0.212890625,,
4.291340000000083,1350,,,,-0.0625,-0.02734375,-0.939453125,0.17662829115382106,6.117857797435336,22.960076037469783,2.376330354094713,2690,0,54.5607256201621,49.76420210622898,91.20883481769414,0.12293692129084825,0.11212933347012843,0.212890625,,
4.298680000000168,1350,,,,0.0625,0.00390625,-0.9921875,0.17662829115382106,6.117857797435336,22.960261504154996,2.37511038468447,2690,0,54.5331555335896,49.75166772523971,91.23196198429278,0.12296789388492523,0.11218602220198047,0.2109375,,
4.307325000000186,1350,,,,-0.125,0.1484375,-1.068359375,0.17662829115382106,6.117857797435336,22.960037590138104,2.3730210578629176,2689,0,54.48465269072187,49.7358469541134,91.28414057520983,0.12300700947306095,0.11228589144475062,0.2109375,,
4.315810000000056,1350,,,,0,-0.0625,-0.859375,0.17662829115382106,6.072261663041822,22.9600356774459,2.3747942714393306,2688,0,54.525361198841175,49.72476252770068,91.19565911056722,0.1221174592771375,0.11136582187686406,0.2109375,,
4.324010000000242,1350,,,,-0.1875,0.04296875,-1.05859375,0.17662829115382106,6.072261663041822,22.9603313696636,2.3721923557197813,2688,0,54.46632255990909,49.72072562344263,91.28709868148958,0.12212737418656727,0.1114865365908037,0.2109375,,
