Time (s),ESC signal (µs),Servo 1 (µs),Servo 2 (µs),Servo 3 (µs),AccX (g),AccY (g),AccZ (g),Torque (N·m),Thrust (N),Voltage (V),Current (A),Motor Electrical Speed (RPM),Motor Optical Speed (RPM),Electrical Power (W),Mechanical Power (W),Motor Efficiency (%),Propeller Mech. Efficiency (N/W),Overall Efficiency (N/W),Vibration (g),App message,90% settling time (s),Max acceleration (RPM/s),
0,1000,,,,-0.03125,0.01953125,-0.951171875,0.016375799990680093,0.11699100979653794,23.052349137668706,0.06925138761044156,0,0,1.5964071654639238,0,0,0,0,0.07421875,,
0,1140,,,,-0.0625,0,-0.98046875,0.015001080902678245,0.11699100979653794,23.051899217626143,0.07791465556062692,0,0,1.796080787559626,0,0,0,0,0.076171875,,
0.00925,1140,,,,-0.0625,0.06640625,-0.95703125,0.015001080902678245,0.11699100979653794,23.051666110199463,0.08352234430638224,0,0,1.9253291936918424,0,0,0,0,0.076171875,,
0.01725499999988824,1140,,,,0.03125,0.01171875,-1.02734375,0.015001080902678245,0.11699100979653794,23.051484047183315,0.0881180482238401,0,0,2.0312517829007803,0,0,0,0,0.078125,,
0.028449999999953433,1140,,,,-0.1875,0.140625,-0.92578125,0.015001080902678245,0.11699100979653794,23.05151209901908,0.08723907225474786,0,0,2.0109925295875204,0,0,0,0,0.078125,,
0.04465999999991618,1140,,,,0.0625,-0.0625,-0.96875,0.015001080902678245,0.11699100979653794,23.05142169857324,0.08518246736654674,0,0,1.9635769765912223,0,0,0,0,0.08203125,,
0.05321500000008382,1140,,,,0.03125,0.044921875,-1.064453125,0.015001080902678245,0.11699100979653794,23.049416866687782,0.17814662481495694,0,0,4.106175818753369,0,0,0,0,0.083984375,,
0.061354999999981376,1140,,,,-0.21875,0.044921875,-0.8515625,0.015001080902678245,0.11699100979653794,23.04675890340143,0.265239476212667,0,0,6.112910259937816,0,0,0,0,0.08984375,,
0.06955499999993481,1140,,,,0.4375,-0.10546875,-1.078125,0.015001080902678245,0.11626274502533848,23.044088114015555,0.33409291000946756,0,0,7.69886645652604,0,0,0,0,0.09375,,
0.078625,1140,,,,-0.125,0.244140625,-1.00390625,0.015001080902678245,0.11626274502533848,23.04224421814888,0.414856952816113,0,0,9.559235222385944,0,0,0,0,0.10546875,,
0.08792500000004656,1140,,,,-0.28125,-0.123046875,-0.939453125,0.015001080902678245,0.11626274502533848,23.040510485249225,0.4725221041071254,0,0,10.88715049419225,0,0,0,0,0.109375,,
0.10456999999983237,1140,,,,0.09375,-0.11328125,-0.962890625,0.015001080902678245,0.11626274502533848,23.03811417743206,0.5429057172188666,0,0,12.507523900868891,0,0,0,0,0.115234375,,
0.11445999999996274,1140,,,,-0.4375,0.47265625,-0.9140625,0.015001080902678245,0.11626274502533848,23.036807796288944,0.5832622000079151,0,0,13.436499196422979,0,0,0,0,0.12109375,,
0.1217249999998603,1140,,,,0.03125,-0.015625,-1.22265625,0.015001080902678245,0.11626274502533848,23.034710302396334,0.656810417843171,0,0,15.129437698613332,0,0,0,0,0.125,,
0.12955000000004657,1140,,,,-0.0625,0.033203125,-1,0.015001080902678245,0.11626274502533848,23.033112239691174,0.6880775392710492,0,0,15.848567191640589,0,0,0,0,0.126953125,,
0.1374049999997951,1140,,,,-0.1875,0.03515625,-0.85546875,0.015001080902678245,0.11626274502533848,23.032797861258466,0.699190623951302,0,0,16.10431630795752,0,0,0,0,0.126953125,,
0.1451599999999162,1140,,,,0.125,-0.11328125,-1.07421875,0.015001080902678245,0.11626274502533848,23.032566659133412,0.7057263803309751,1,0,16.254689898082123,0.000944315789720041,0.005809497416689936,0,0.0071525661673223434,0.12890625,,
0.15277499999990687,1140,,,,-0.15625,0.10546875,-0.970703125,0.014433917784960724,0.11626274502533848,23.03205260355997,0.7074077646877511,1,0,16.293052848455055,0.0014564645975847807,0.008939175556181211,0,0.007135725029969615,0.12890625,,
0.1595649999997113,1140,,,,0,-0.125,-0.9296875,0.014433917784960724,0.11626274502533848,23.03196274485209,0.7059951025085386,1,0,16.260452899024695,0.001661761772960542,0.010219652449288266,0,0.00715003116747824,0.1328125,,
0.16699499999987893,1140,,,,-0.0625,0.0234375,-0.96484375,0.014433917784960724,0.11626274502533848,23.031906508591067,0.7077663149584041,1,0,16.301207596051984,0.0017497412781445295,0.010733813846823852,0,0.00713215535353935,0.1328125,,
0.17545999999972992,1140,,,,-0.09375,0.1484375,-0.9921875,0.014433917784960724,0.11626274502533848,23.03220453967048,0.7048997711082284,1,0,16.235395708131623,0.0017905377512693486,0.011028605544689889,0,0.007161066297084917,0.1328125,,
0.18567499999981374,1140,,,,0,-0.12890625,-0.953125,0.014433917784960724,0.11626274502533848,23.03252324701518,0.6965803715168348,1,0,16.04400360037597,0.0018067445206273037,0.011261182468102694,0,0.00724649208023202,0.134765625,,
0.19461499999999068,1140,,,,-0.041015625,0.08203125,-1.005859375,0.014433917784960724,0.11626274502533848,23.03257744147949,0.6834174890447324,1,0,15.74086624128426,0.0018140743649758995,0.011524615844952974,0,0.007386044912853084,0.1328125,,
0.20216500000003726,1140,,,,0.0625,-0.0546875,-0.9921875,0.014433917784960724,0.11626274502533848,23.032871394598814,0.6745355747203533,1,0,15.536491143615697,0.0018159664658615134,0.011688395076308694,0,0.0074832047951260555,0.1328125,,
0.21060000000009313,1140,,,,-0.03125,0.123046875,-0.958984375,0.014433917784960724,0.11626274502533848,23.03336214459354,0.6627199409806979,399,0,15.26466840105207,0.6031778997236871,3.951464151570531,0.19275033962384547,0.0076164605722667,0.1328125,,
0.21959499999997206,1140,,,,-0.0625,0.017578125,-0.955078125,0.014433917784960724,0.11594628125488146,23.033831790157095,0.6510016047514965,560,0,14.995061458968303,0.8462896205957424,5.643788942856185,0.1370054393119716,0.007732297835000594,0.1328125,,
0.22837999999988823,1140,,,,0.0625,0,-1.04296875,0.014433917784960724,0.11594628125488146,23.034322052046303,0.637770137775866,619,0,14.690602748707239,0.9350600785623753,6.365021875257364,0.12399875036173626,0.007892547585570281,0.1328125,,
0.23650499999988825,1140,,,,-0.125,0.05078125,-0.9453125,0.014433917784960724,0.11594628125488146,23.03479671709058,0.6258753614880906,638,0,14.416911722113749,0.9646990459967519,6.691440334735653,0.12018907008981518,0.008042379913933598,0.1328125,,
0.2445099999997765,1140,,,,-0.0625,0.080078125,-0.98828125,0.014433917784960724,0.11594628125488146,23.035378874710904,0.6120096209931585,646,0,14.09787349454563,0.9763875480010225,6.925778901185205,0.11875026621576706,0.008224380882672857,0.1328125,,
0.2527449999998789,1140,,,,0,0.05859375,-0.953125,0.014433917784960724,0.11594628125488146,23.035742102169486,0.5968764009033531,649,0,13.749490838080765,0.9810436217205998,7.135126916870906,0.11818667252688468,0.00843276908361982,0.130859375,,
0.2605250000001397,1140,,,,-0.09375,0.111328125,-0.99609375,0.014433917784960724,0.11594628125488146,23.03623298916024,0.5853590838908911,650,0,13.484468238831962,0.9828149354201107,7.2884960534805865,0.11797366632947988,0.008598506014570496,0.130859375,,
0.26852499999990687,1140,,,,0,0.0078125,-0.9921875,0.014433917784960724,0.11594628125488146,23.036620195290958,0.5711216431479491,721,0,13.1567123785098,1.0893430698378568,8.279751342874926,0.10643688335222024,0.008812709278669673,0.130859375,,
0.2765100000000093,1140,,,,-0.03125,0.048828125,-0.990234375,0.014433917784960724,0.11594628125488146,23.036981712071213,0.5574119525554248,748,0,12.841088957109227,1.1303827477593171,8.802857386432963,0.10257258568809025,0.009029318435699332,0.12890625,,
0.28450499999988826,1140,,,,-0.0625,0.060546875,-0.98046875,0.014433917784960724,0.11594628125488146,23.037450057891235,0.5449445648100768,759,0,12.554133196131417,1.1464960125513686,9.132418739229752,0.10113099390276903,0.009235705838345777,0.12890625,,
0.29439999999990685,1140,,,,-0.0625,0.064453125,-1.001953125,0.014433917784960724,0.11594628125488146,23.03797166721987,0.5302599823315132,763,0,12.21611444921391,1.1536908574607447,9.444008258575074,0.1005003034435736,0.0094912569571041,0.126953125,,
0.3026899999999441,1140,,,,0,0.0078125,-0.9765625,0.04575269536199869,0.11594628125488146,23.03827130330712,0.5183649861763157,765,0,11.942233185665005,3.6637297070733545,30.678765437867632,0.031647062017438284,0.009708927924306393,0.126953125,,
0.3113649999999907,1140,,,,0.0625,0.056640625,-0.99609375,0.04575269536199869,0.11594628125488146,23.037419727919808,0.5452828702411652,765,0,12.561910352190555,3.666494773573173,29.1873980213034,0.03162319556285261,0.009229987955984948,0.126953125,,
0.3210900000000838,1140,,,,-0.15625,0.015625,-0.9296875,0.04575269536199869,0.11594628125488146,23.036372477330328,0.5761255948921714,784,0,13.27184379765958,3.7569166705833017,28.307420791418703,0.030862084901361293,0.00873626023803324,0.12890625,,
0.3322549999998882,1140,,,,-0.03125,0.02734375,-0.994140625,0.04575269536199869,0.11594628125488146,23.035353085807234,0.6139926762509386,804,0,14.1435380895401,3.8523010772384794,27.237181056467485,0.030097928207106155,0.008197827200015101,0.12890625,,
0.34346500000008384,1140,,,,-0.0625,0.025390625,-0.93359375,0.04575269536199869,0.11594628125488146,23.034662521163003,0.6327028984379475,809,0,14.574097741679791,3.876784002370378,26.600507771286193,0.029907851761663416,0.00795564043208603,0.12890625,,
0.3517600000000093,1140,,,,-0.041015625,0.025390625,-1,0.04575269536199869,0.11594628125488146,23.034205607911726,0.651537492085012,811,0,15.007648553949325,3.8862280879208373,25.894983307682534,0.029835171439181695,0.007725812663994567,0.12890625,,
0.3597949999999255,1140,,,,-0.0625,0.1328125,-1,0.04575269536199869,0.11594628125488146,23.033905987077816,0.6618040867771324,836,0,15.243933116688357,4.006162591024787,26.28037370905954,0.028941980915762604,0.007606060743467104,0.12890625,,
0.36892499999981376,1140,,,,-0.03125,0.017578125,-0.974609375,0.04575269536199869,0.34942442446366384,23.033796679498305,0.6696673163154507,901,0,15.42498080691537,4.314831036275995,27.97300748887518,0.08098218018873847,0.022653151328850207,0.12890625,,
0.37658499999996276,1140,,,,0,-0.0390625,-0.94921875,0.04575269536199869,0.34942442446366384,23.033775115226685,0.6713429096594798,921,0,15.463561606298404,4.410729151982541,28.523371680338016,0.0792214648470546,0.022596632868933708,0.126953125,,
0.38461999999987895,1140,,,,-0.125,0.029296875,-0.99609375,0.04575269536199869,0.34942442446366384,23.03368818476929,0.6721696585809728,929,0,15.48254632301696,4.451139413352186,28.749401555059116,0.07850224223835525,0.022568924850829983,0.126953125,,
0.392839999999851,1140,,,,-0.03125,0.080078125,-1.005859375,0.04575269536199869,0.34942442446366384,23.033604250929596,0.6703735686496693,932,0,15.441119480559868,4.467231653373222,28.930749865625987,0.07821945481600719,0.02262947481907538,0.126953125,,
0.4010349999999162,1140,,,,0.0625,0.046875,-0.9453125,0.04575269536199869,0.34942442446366384,23.033591049044162,0.6682703848458024,934,0,15.392666754725571,4.473436132684102,29.06212551707943,0.07811096752017468,0.02270070742331832,0.126953125,,
0.4096699999999255,1140,,,,-0.03125,0.060546875,-0.9375,0.04575269536199869,0.34942442446366384,23.033867677161687,0.662143022630517,996,0,15.251714766627206,4.7711629030496265,31.28279656455135,0.0732367415583985,0.022910500872220036,0.126953125,,
0.42525499999988825,1140,,,,-0.03125,0.046875,-1.021484375,0.04575269536199869,0.34942442446366384,23.034241391073763,0.6515515625618862,1023,0,15.007995970781785,4.9012180412443405,32.65737844537168,0.07129338493476829,0.02328255052466288,0.126953125,,
0.43350499999988823,1140,,,,-0.041015625,0.046875,-1,0.04575269536199869,0.34942442446366384,23.03447616960265,0.644110968643939,1028,0,14.836758757808495,4.9252545083404815,33.196297039933675,0.07094545548294907,0.023551264138453685,0.125,,
0.4414249999998137,1140,,,,-0.0625,0.0859375,-0.9921875,0.04575269536199869,0.34942442446366384,23.034648455472578,0.6351310388690921,1030,0,14.630020203508625,4.933755005001511,33.723500968360106,0.07082322168600604,0.023884069851104073,0.125,,
0.44933499999996274,1140,,,,-0.125,0.07421875,-1,0.07206101412333003,0.34942442446366384,23.034814825413548,0.6290433122535094,1063,0,14.489896214924382,8.018029700751889,55.335314910630174,0.04357983663129817,0.024115039837467003,0.125,,
0.45744999999995345,1140,,,,0,0.017578125,-0.974609375,0.07206101412333003,0.34942442446366384,23.03500631021881,0.6217371930884229,1075,0,14.321720166089554,8.114878968952912,56.661342875327406,0.043059721013775164,0.024398216164774552,0.125,,
0.46521999999997204,1140,,,,-0.0625,0.072265625,-0.9921875,0.07206101412333003,0.34942442446366384,23.035153764735973,0.6157190890168402,1080,0,14.183183891386072,8.152437442941215,57.479600528147046,0.042861343850753846,0.024636529226408826,0.125,,
0.47468500000005587,1140,,,,-0.0625,0.0546875,-0.98046875,0.07206101412333003,0.34942442446366384,23.035439845794354,0.6039807841022237,1082,0,13.91296302020248,8.16860689911169,58.712201615503254,0.04277650140095034,0.025115025746584536,0.123046875,,
0.4827099999999627,1140,,,,-0.03125,0.06640625,-0.970703125,0.07206101412333003,0.34942442446366384,23.03564538345244,0.5949710043883398,1089,0,13.705541070526323,8.217056839440046,59.954268110660536,0.04252427983539122,0.025495120744638007,0.123046875,,
0.49437999999988824,1140,,,,0,0.01171875,-1.005859375,0.07206101412333003,0.34942442446366384,23.035760326056053,0.5845938193281167,1104,0,13.466563110136212,8.329758112394494,61.85511510449706,0.041948928137988555,0.02594755778485558,0.12109375,,
0.5028049999999348,1140,,,,-0.0625,0.021484375,-0.96875,0.07206101412333003,0.34942442446366384,23.035718872523468,0.5728494752613853,1111,0,13.19599946839386,8.383600673221384,63.53138080447185,0.04167951672361776,0.026479572487145133,0.12109375,,
0.5105100000000093,1140,,,,-0.0625,0.078125,-0.98828125,0.07206101412333003,0.34942442446366384,23.035923247001094,0.5634457928750648,1113,0,12.979494038515668,8.395607513964444,64.68362702776483,0.04161990944460719,0.026921266994443176,0.12109375,,
0.5193100000000559,1140,,,,-0.0625,0.09765625,-1.05859375,0.07206101412333003,0.6320711931421891,23.03613283314311,0.5521162749744931,1119,0,12.718623849652591,8.445860537701316,66.40545893596826,0.07483798605490802,0.049696508098197596,0.12109375,,
0.5277900000000373,1140,,,,-0.0625,0.015625,-0.970703125,0.07206101412333003,0.6320711931421891,23.03626410161869,0.5419690444176742,1128,0,12.484942042107456,8.510411384532825,68.16540562086799,0.07427034541372952,0.05062668220728845,0.119140625,,
0.5364899999997579,1140,,,,-0.03125,0.076171875,-0.962890625,0.07206101412333003,0.6320711931421891,23.036698974549527,0.5310429939640353,1131,0,12.233477594493003,8.535730354501885,69.77353976880876,0.07405004222149827,0.05166733565823678,0.119140625,,
0.5449699999999721,1140,,,,-0.0625,0.07421875,-0.966796875,0.07206101412333003,0.6320711931421891,23.03686120695529,0.5230907679371427,1132,0,12.050369419607614,8.54405377481893,70.90283689491358,0.07397790437661239,0.05245243287842462,0.119140625,,
0.5525649999999441,1140,,,,-0.03125,0.060546875,-0.96484375,0.07206101412333003,0.6320711931421891,23.036883714177215,0.5168246132076427,1133,0,11.906028515089083,8.547269769072528,71.78942800481421,0.07395006946303224,0.05308833187667363,0.119140625,,
0.5606099999998696,1140,,,,0,0.05859375,-0.9765625,0.07206101412333003,0.6320711931421891,23.037374612321397,0.509634581929867,1139,0,11.740642779312147,8.597825578935723,73.23130207219751,0.07351523793303441,0.053836165959835154,0.1171875,,
0.568625,1140,,,,0,0.017578125,-1.021484375,0.07206101412333003,0.6320711931421891,23.03770154900793,0.5007774594790112,1142,0,11.536761653947872,8.617227293119011,74.69364065582653,0.07334971814505897,0.054787574893331935,0.1171875,,
0.5766399999998976,1140,,,,-0.0625,0.00390625,-0.99609375,0.07206101412333003,0.6320711931421891,23.038082009463185,0.49248715581981084,1143,0,11.345959484384077,8.624884371318107,76.01723224191748,0.07328459906594575,0.05570892386951807,0.1171875,,
0.5849799999999814,1140,,,,-0.0625,0.029296875,-0.9765625,0.07206101412333003,0.6320711931421891,23.037981576787654,0.4849695547498691,1143,0,11.172719667630396,8.627813430775943,77.22214185479336,0.07325971965127943,0.05657272463153495,0.115234375,,
0.5939849999998696,1140,,,,-0.09375,0.078125,-0.98046875,0.07206101412333003,0.6320711931421891,23.03838286116578,0.47699213506964233,1145,0,10.98912742949932,8.639326467898572,78.61703782510594,0.07316209145363319,0.0575178691117414,0.115234375,,
0.6017600000000093,1140,,,,0,0.015625,-0.953125,0.06971950428445807,0.6320711931421891,23.038561218822515,0.4713518016591759,1148,0,10.859267338127212,8.381285707348184,77.18095011733655,0.07541458616403314,0.058205694128458205,0.115234375,,
0.6098850000000093,1140,,,,-0.09375,0.02734375,-0.99609375,0.06971950428445807,0.6320711931421891,23.038695472271577,0.46472447540287476,1149,0,10.706645667317995,8.39010670933601,78.36354139323754,0.07533529846990598,0.05903540780018381,0.115234375,,
0.6183149999999441,1140,,,,-0.09375,0.09765625,-0.96875,0.06971950428445807,0.6320711931421891,23.039109388978236,0.45488586584333873,1150,0,10.480165222664759,8.393913747898461,80.09333411791543,0.0753011303339205,0.06031118591291391,0.115234375,,
0.6258299999998417,1140,,,,0,0.0078125,-1.046875,0.06971950428445807,0.6320711931421891,23.039146591743428,0.44950256232573177,1150,0,10.35615542678682,8.395041412459511,81.06330067956715,0.07529101550399737,0.061033382282704905,0.115234375,,
0.6338299999998417,1140,,,,-0.09375,0.064453125,-0.9453125,0.06971950428445807,0.6320711931421891,23.039122947222392,0.443819726520141,1152,0,10.225217245700147,8.409326744886247,82.24105701443646,0.07516311499330842,0.06181494025547322,0.115234375,,
0.6432349999998697,1140,,,,-0.0625,0.015625,-0.951171875,0.06971950428445807,0.6320711931421891,23.039263521767314,0.43763184484235346,1153,0,10.082715398840167,8.414894598644809,83.45861472607656,0.07511338207896057,0.06268858815700554,0.115234375,,
0.6514850000001025,1140,,,,0,0.0234375,-0.94140625,0.06971950428445807,0.6320711931421891,23.03930438086418,0.4319155161207623,1153,0,9.951033042724292,8.417244432052463,84.58663935606907,0.07509241275390462,0.06351814835991611,0.11328125,,
0.6598499999998603,1140,,,,-0.09375,0.095703125,-0.982421875,0.06971950428445807,0.6320711931421891,23.03977709164623,0.42661711703664806,1153,0,9.829163280005123,8.41807315441204,85.64384286439133,0.07508502023540992,0.06430569674511091,0.11328125,,
0.6697199999999721,1140,,,,-0.09375,0.0703125,-0.96484375,0.06971950428445807,0.8898374993075825,23.039899725862263,0.42129064921517034,1154,0,9.706494313360938,8.426259474587404,86.81053326316487,0.10560290743374644,0.09167444708464166,0.11328125,,
0.6777249999998604,1140,,,,-0.03125,0.033203125,-0.9453125,0.06971950428445807,0.8898374993075825,23.040124767956797,0.41676431996558666,1156,0,9.602301930839785,8.437043074867733,87.86479675014611,0.10546793366010312,0.09266918554702855,0.11328125,,
0.6860699999998323,1140,,,,-0.125,0.04296875,-0.96484375,0.06971950428445807,0.8898374993075825,23.040315776778964,0.4114284691769291,1156,0,9.479441849393217,8.440703228671929,89.04219639484599,0.10542219945429722,0.09387024188186159,0.11328125,,
0.6943249999997206,1140,,,,-0.03125,0.068359375,-0.955078125,0.06971950428445807,0.8898374993075825,23.040586533081946,0.40586781133897804,1156,0,9.351432428148302,8.442212763537992,90.2772150513165,0.10540334912557527,0.09515520816138552,0.11328125,,
0.7014550000000745,1140,,,,-0.03125,0.072265625,-0.978515625,0.06971950428445807,0.8898374993075825,23.040733928179886,0.4037236931518988,1156,0,9.30209019441504,8.44269960455155,90.76131738241511,0.10539727113207506,0.09565995176458722,0.11328125,,
0.7092349999998696,1140,,,,-0.125,0.05859375,-1.01171875,0.06971950428445807,0.8898374993075825,23.040828150659692,0.39971563721602027,1157,0,9.209779306225757,8.450084701891106,91.75121814459656,0.10530515736823791,0.09661876465444265,0.11328125,,
0.7179949999998789,1140,,,,-0.03125,0.056640625,-1.005859375,0.06971950428445807,0.8898374993075825,23.040786741393827,0.3968857168983195,1158,0,9.144559163759384,8.453055447400898,92.43808581720407,0.10526814887759729,0.09730786179765552,0.11328125,,
0.7264599999999628,1140,,,,-0.125,0.07421875,-0.921875,0.06971950428445807,0.8898374993075825,23.040944743300273,0.3940287596095282,1158,0,9.078794877434285,8.45419827201778,93.12026966300378,0.10525391890237787,0.09801273311277357,0.11328125,,
0.7346899999999441,1140,,,,-0.03125,0.02734375,-0.98046875,0.06971950428445807,0.8898374993075825,23.040820732495106,0.39102140263879626,1158,0,9.009454040769294,8.454671885103819,93.84222225725341,0.10524802279735729,0.09876708347486077,0.111328125,,
0.7420400000000372,1140,,,,-0.0625,0.064453125,-1.01171875,0.06971950428445807,0.8898374993075825,23.04095944935868,0.38779923700298735,1159,0,8.935266494278068,8.461403690832105,94.69671325696426,0.10516428855317678,0.0995871247799283,0.111328125,,
0.7509150000000373,1140,,,,-0.0625,0.064453125,-0.962890625,0.06388344877496435,0.8898374993075825,23.041125796365705,0.3817958332235959,1160,0,8.797005821833134,7.759532349477709,88.20651601956955,0.11467669174257351,0.1011523144726255,0.111328125,,
0.7588249999999535,1140,,,,-0.125,-0.015625,-0.94140625,0.06388344877496435,0.8898374993075825,23.041267472814386,0.3783939517085686,1160,0,8.71867625141234,7.761721556085514,89.02408269636335,0.11464434698896313,0.10206107827016028,0.111328125,,
0.766655000000028,1140,,,,-0.0625,0.080078125,-0.947265625,0.06388344877496435,0.8898374993075825,23.04120505472858,0.376656994453995,1160,0,8.678631044512263,7.762581761017734,89.44477212136157,0.11463164275784941,0.10253201164373166,0.111328125,,
0.7749350000000559,1140,,,,-0.0625,0.08984375,-1.125,0.06388344877496435,0.8898374993075825,23.04127690905494,0.37522563084829097,1160,0,8.6456776637503,7.762918892673508,89.78959422951849,0.11462666448149984,0.1029228169167703,0.111328125,,
0.7948900000001304,1140,,,,-0.0625,0.048828125,-1.0078125,0.06388344877496435,0.8898374993075825,23.04158309055638,0.3694741174343702,1162,0,8.513268576674026,7.775653912268796,91.3357054606939,0.11443892813999279,0.10452360233831896,0.111328125,,
0.8026099999998696,1140,,,,-0.09375,0.0234375,-0.939453125,0.06388344877496435,0.8898374993075825,23.04156838339791,0.3656090836165847,1163,0,8.42420670174298,7.777972584856934,92.32884306183584,0.1144048130280148,0.10562864027582251,0.111328125,,
0.8111000000000931,1140,,,,-0.0625,0.015625,-0.94921875,0.06388344877496435,0.8898374993075825,23.041689337132397,0.36319709725488164,1163,0,8.368674683095245,7.7786888676813195,92.95006870555383,0.1143942783217175,0.1063295602952589,0.111328125,,
0.8191899999999441,1140,,,,-0.0625,0.0078125,-1.03125,0.06388344877496435,1.0114154892822673,23.0415415072168,0.3611557889566072,1163,0,8.321586101815296,7.781008522187711,93.5039117181079,0.1299851409233385,0.12154119141561656,0.111328125,,
0.8276099999998696,1140,,,,-0.09375,0.0703125,-0.96484375,0.06388344877496435,1.0114154892822673,23.041785589749303,0.35874377278495956,1163,0,8.26609709416878,7.7819803134007,94.14334509681002,0.12996890875457406,0.1223570782873768,0.109375,,
0.8356799999999348,1140,,,,-0.03125,0.025390625,-0.98828125,0.06388344877496435,1.0114154892822673,23.041960666438946,0.35776071913550156,1163,0,8.243508418317138,7.782311258372774,94.40532918096402,0.129963381790225,0.12269235839377497,0.109375,,
0.8436049999999814,1140,,,,-0.0625,0.00390625,-0.8828125,0.06388344877496435,1.0114154892822673,23.042126198361544,0.3561907446070469,1163,0,8.207392087923942,7.782441489825638,94.82234315668236,0.1299612069817087,0.12323226165476207,0.109375,,
0.8508599999998696,1140,,,,-0.0625,0.015625,-1.005859375,0.06388344877496435,1.0114154892822673,23.04229385147732,0.35421820954335503,1163,0,8.162000071842154,7.783444834812511,95.3619794940261,0.12994445399787183,0.1239176035750747,0.109375,,
0.8588549999997486,1140,,,,-0.0625,0.015625,-1.001953125,0.06388344877496435,1.0114154892822673,23.042279615593795,0.35179102291913744,1164,0,8.106067116358531,7.785942209430857,96.0507987124651,0.12990277375256815,0.12477265173898819,0.109375,,
0.8668649999997579,1140,,,,0,0.04296875,-0.99609375,0.06388344877496435,1.0114154892822673,23.042166365389086,0.3483415583434411,1164,0,8.02654413932846,7.786952820127028,97.01501274966543,0.12988591463762947,0.12600883664571577,0.109375,,
0.8749449999998323,1140,,,,-0.03125,0.03125,-1.005859375,0.06388344877496435,1.0114154892822673,23.042256377541673,0.3464904274073854,1164,0,7.983921260684966,7.787344107517229,97.53783702582668,0.12987938831493706,0.1266815461047639,0.109375,,
0.8842349999998697,1140,,,,0,0.03515625,-0.921875,0.06388344877496435,1.0114154892822673,23.04241327234102,0.3432203044291226,1164,0,7.908624098114539,7.78750162764725,98.46847607163217,0.12987676120561334,0.12788766753036024,0.109375,,
0.8921799999999348,1140,,,,-0.03125,0.025390625,-0.96484375,0.06388344877496435,1.0114154892822673,23.042573110153896,0.34179116543058713,1164,0,7.875747917839009,7.787563989031192,98.8803104196863,0.1298757211763331,0.1284215162589644,0.109375,,
0.9020199999997858,1140,,,,-0.03125,0.0390625,-0.958984375,0.05846644966788751,1.0114154892822673,23.042419703258748,0.3391554290477512,1164,0,7.814961740757076,7.127238623818886,91.1999170341227,0.14190846450716071,0.12942040189492804,0.107421875,,
0.9097949999999255,1140,,,,0,0.03125,-0.94921875,0.05846644966788751,1.0114154892822673,23.042431573408194,0.33809056520553993,1164,0,7.790428714363555,7.12724504738173,91.48719934040234,0.14190833660950405,0.12982796279458617,0.107421875,,
0.9180449999999255,1140,,,,-0.0625,0.06640625,-0.96875,0.05846644966788751,1.0114154892822673,23.0424432675046,0.3372713406069535,1164,0,7.771555731690946,7.127247639237424,91.70940652427988,0.14190828500389852,0.130143245985859,0.10546875,,
0.9261249999997672,1140,,,,0,0.056640625,-0.98046875,0.05846644966788751,1.0114154892822673,23.04251997026096,0.3353174335934991,1164,0,7.726558659954857,7.126622446005871,92.23540206769762,0.14192073411284992,0.1309011597264152,0.10546875,,
0.9339449999998324,1140,,,,-0.03125,0.041015625,-1.005859375,0.05846644966788751,1.0114154892822673,23.042724223992998,0.3335654603112086,1164,0,7.686256912600461,7.125124125492993,92.69953120890905,0.14195057818902018,0.1315875205295576,0.10546875,,
0.9418299999998416,1140,,,,0,0.10546875,-0.98046875,0.05846644966788751,1.0114154892822673,23.042721329066886,0.33189775452498677,1164,0,7.647827467262318,7.124534910245678,93.15763124551812,0.14196231782481228,0.13224873254682906,0.10546875,,
0.9528549999999814,1140,,,,-0.03125,0.115234375,-1.0234375,0.05846644966788751,1.0114154892822673,23.042588887020433,0.33434722933706856,1164,0,7.704225751128408,7.124304809103293,92.47269017343922,0.14196690293064115,0.13128061429587903,0.10546875,,
0.9620400000000372,1140,,,,-0.0625,0.046875,-0.96484375,0.05846644966788751,1.0114154892822673,23.04254913255151,0.3408726553708286,1164,0,7.854574909325617,7.124198598319442,90.70126239245602,0.1419690194376185,0.12876769283611122,0.10546875,,
0.9719299999999348,1140,,,,-0.03125,0.0546875,-0.9453125,0.05846644966788751,1.0690022291741401,23.04251590116032,0.3461304348713081,1164,0,7.975716049397654,7.126764259570927,89.35579220011421,0.149998258710258,0.13403213235692785,0.103515625,,
0.9790949999999721,1140,,,,0,0.021484375,-1.00390625,0.05846644966788751,1.0690022291741401,23.04245311784095,0.34943616428116414,1164,0,8.051866433126893,7.127559967103281,88.52059365738059,0.1499815131837599,0.1327645258465868,0.103515625,,
0.9868599999998696,1140,,,,-0.0625,0.029296875,-0.96875,0.05846644966788751,1.0690022291741401,23.042522436252337,0.3526540140407992,1164,0,8.126038030769562,7.1278270223128715,87.71589543788836,0.14997589389132862,0.13155269826775623,0.103515625,,
0.9940849999999627,1140,,,,0,0.0625,-1.04296875,0.05846644966788751,1.0690022291741401,23.04247188498869,0.35446533288536025,1164,0,8.16775746721407,7.127937000528245,87.26920490893939,0.1499735798864268,0.1308807507403577,0.103515625,,
1.009964999999851,1140,,,,-0.0625,0.037109375,-0.984375,0.05846644966788751,1.0690022291741401,23.042224706955356,0.3578920608272307,1174,0,8.246629286416384,7.186926634576961,87.14986917642904,0.14874261051046112,0.12962899046947224,0.103515625,,
1.02575,1140,,,,0,0.046875,-0.97265625,0.05846644966788751,1.0690022291741401,23.04245239417925,0.3507808766666657,1176,0,8.082851651380107,7.199902840429528,89.07627098661622,0.14847453540225355,0.1322555795010308,0.1015625,,
1.0328950000000185,1140,,,,-0.03125,0.0703125,-0.9921875,0.05846644966788751,1.0690022291741401,23.042608066915413,0.3471620539908916,1176,0,7.999519145817444,7.201308565011581,90.02176798060158,0.1484455525719333,0.1336333109138277,0.1015625,,
1.0408349999999627,1140,,,,-0.03125,0.0546875,-0.96875,0.05846644966788751,1.0690022291741401,23.04276016976174,0.3452312298025928,1179,0,7.955080431453047,7.215639704078331,90.7047988546905,0.14815072162900988,0.13437981405536586,0.1015625,,
1.0490349999999162,1140,,,,0,0.05078125,-1.01171875,0.05448300512733988,1.0690022291741401,23.042932359272104,0.34235369987823716,1180,0,7.888833149240761,6.7302159787021045,85.31319970114764,0.15883624426868587,0.13550828227074663,0.099609375,,
1.0572700000000186,1140,,,,-0.0625,0.013671875,-0.91796875,0.05448300512733988,1.0690022291741401,23.0430518560141,0.3402335608182017,1180,0,7.840019585090149,6.732426450962776,85.87257184620111,0.158784093218169,0.1363519845291111,0.099609375,,
1.0662099999999628,1140,,,,0,0.0234375,-0.97265625,0.05448300512733988,1.0690022291741401,23.043329904710045,0.3372258148729105,1180,0,7.770805704501152,6.733342331198011,86.64921743311376,0.15876249514614252,0.1375664596214177,0.099609375,,
1.075,1140,,,,-0.09375,0.056640625,-0.98046875,0.05448300512733988,1.0690022291741401,23.043294319716605,0.3345054800463798,1178,0,7.70810822826682,6.720523845403114,87.18772033788936,0.1590653130269518,0.13868542027652703,0.099609375,,
1.0831499999999068,1140,,,,-0.09375,0.0859375,-0.982421875,0.05448300512733988,1.0690022291741401,23.043329675575404,0.3316808611859734,1176,0,7.643031431387147,6.709692440478821,87.7883664448187,0.1593220909389184,0.139866261021005,0.099609375,,
1.1073299999998416,1140,,,,-0.0625,-0.001953125,-0.984375,0.05448300512733988,1.0690022291741401,23.043177786562566,0.3263044038383987,1175,0,7.51909039018653,6.70347139468987,89.15269064245913,0.159469947171095,0.14217174866913934,0.099609375,,
1.1149150000000372,1140,,,,-0.0625,0.029296875,-0.94921875,0.05448300512733988,1.1070657028947426,23.043223648526318,0.3263723496888206,1173,0,7.520671046574533,6.689814780857048,88.95236528001156,0.1654852546983242,0.1472030482438109,0.099609375,,
1.1341649999998045,1140,,,,-0.03125,0.03125,-1.01171875,0.05448300512733988,1.1070657028947426,23.043089060524952,0.3253103021895999,1171,0,7.496154265661236,6.678699899724069,89.09501676503908,0.16576065993629704,0.14768448776008325,0.099609375,,
1.1429549999998416,1140,,,,-0.03125,0.05078125,-0.9375,0.05448300512733988,1.1070657028947426,23.043035640889023,0.32490822271400555,1170,0,7.486871756016738,6.677793301724016,89.19337100114589,0.1657831641193401,0.1478675926304016,0.099609375,,
1.1510949999997393,1140,,,,0.03125,0.06640625,-0.93359375,0.05448300512733988,1.1070657028947426,23.04272356141428,0.3230550559419805,1169,0,7.444068349188282,6.672283121583197,89.63221196525899,0.1659200730427126,0.14871783156255672,0.099609375,,
1.1589849999998696,1140,,,,-0.03125,0.044921875,-0.978515625,0.05448300512733988,1.1070657028947426,23.042786382936978,0.3221213594455978,1169,0,7.422573675086168,6.670406621375785,89.86649258551616,0.1659667492154186,0.14914849637809635,0.099609375,,
1.1671350000000094,1140,,,,0,0.0390625,-0.97265625,0.05448300512733988,1.1070657028947426,23.042845896631572,0.3203875256632709,1169,0,7.382640381061845,6.669669381050711,90.34260151909787,0.16598509455956573,0.1499552525590463,0.09765625,,
1.1753149999999442,1140,,,,-0.0625,0.0390625,-0.98046875,0.05448300512733988,1.1070657028947426,23.042705691149745,0.31958415713265087,1169,0,7.364083676361829,6.669377891044851,90.56629696445557,0.16599234905870738,0.1503331237867846,0.09765625,,
1.1832299999999814,1140,,,,0,0.0390625,-0.83203125,0.05448300512733988,1.1070657028947426,23.042703715554993,0.32010249941457175,1168,0,7.376027052618593,6.665960273046101,90.37331649535629,0.16607745284219252,0.15008970208450073,0.09765625,,
1.1912449999998789,1140,,,,-0.03125,0.025390625,-0.98828125,0.05448300512733988,1.1070657028947426,23.042767126128457,0.3202743463940033,1168,0,7.380007180430018,6.661325094931986,90.2617698339942,0.16619301522110233,0.1500087568790463,0.09765625,,
1.2002849999999161,1140,,,,-0.0625,0.029296875,-1.005859375,0.05227058112506634,1.1070657028947426,23.043055857519263,0.3215356995634954,1167,0,7.409165085228158,6.388955826116579,86.2304423322191,0.17327803369203354,0.1494184149172122,0.09765625,,
1.2082700000000186,1140,,,,0,0.0078125,-0.95703125,0.05227058112506634,1.1070657028947426,23.043036793956933,0.3204709593379357,1167,0,7.384624107418728,6.388326965574875,86.50849214054168,0.17329509100903062,0.1499149701854918,0.09765625,,
1.2163799999998883,1140,,,,-0.0625,0.056640625,-0.97265625,0.05227058112506634,1.1070657028947426,23.042954155941054,0.31988636605682763,1167,0,7.371126868158058,6.388079244000665,86.66353677340732,0.17330181117186957,0.1501894788539141,0.09765625,,
1.2248950000000187,1140,,,,-0.0625,0.0546875,-0.9375,0.05227058112506634,1.1070657028947426,23.043011023288575,0.31973531741422745,1166,0,7.367664443710715,6.3804421634415105,86.60060745421258,0.17350924505483,0.15026006020670105,0.09765625,,
1.2326049999999813,1140,,,,-0.0625,0.03125,-0.986328125,0.05227058112506634,1.1070657028947426,23.04299387066453,0.31917427371277385,1165,0,7.354730832837252,6.377802698148091,86.71701035845675,0.1735810521727489,0.15052429899296088,0.09765625,,
1.2412799999997952,1140,,,,-0.125,0.12109375,-0.94921875,0.05227058112506634,1.1070657028947426,23.042904072305724,0.3192973097976526,1165,0,7.357537280212591,6.37672411011612,86.6692735253374,0.17361041245903658,0.15046688324258886,0.09765625,,
1.2496099999998695,1140,,,,-0.09375,0.072265625,-0.99609375,0.05227058112506634,1.1070657028947426,23.04289203658216,0.3189680582402144,1165,0,7.349946529147511,6.376346515406418,86.75364494312836,0.17362069332647928,0.1506222798362516,0.09765625,,
1.2591449999997857,1140,,,,-0.0625,0.01953125,-0.91015625,0.05227058112506634,1.1070657028947426,23.042853356353618,0.3194521918314728,1165,0,7.361090010738372,6.375820617372639,86.61516987391242,0.1736350141153978,0.15039426243664364,0.09765625,,
1.2690099999997764,1140,,,,-0.0625,0.05859375,-1.013671875,0.05227058112506634,1.123984746837405,23.04274466521368,0.31959491487134734,1165,0,7.364344019681159,6.3750327591543305,86.56619981517836,0.1763104268324584,0.1526252363867798,0.09765625,,
1.277280000000028,1140,,,,-0.09375,0.03515625,-0.982421875,0.05227058112506634,1.123984746837405,23.043008751782267,0.31837900111957507,1165,0,7.336410109182064,6.374843105223682,86.89322175766986,0.17631567213260324,0.15320636797970907,0.09765625,,
1.285655000000028,1140,,,,-0.0625,0.00390625,-0.931640625,0.05227058112506634,1.123984746837405,23.042959481603027,0.3157734446035928,1165,0,7.276354689366807,6.374770835805479,87.60940206943397,0.17631767098579704,0.15447085729340865,0.09765625,,
1.2932099999999627,1140,,,,-0.03125,0.064453125,-1.001953125,0.05227058112506634,1.123984746837405,23.042815798699742,0.31467887689746354,1164,0,7.251087396089964,6.3734904419534155,87.89702969778327,0.17635309208887964,0.1550091297263216,0.09765625,,
1.301280000000028,1140,,,,-0.125,0.015625,-0.95703125,0.05227058112506634,1.123984746837405,23.04267548059544,0.31458354832179475,1164,0,7.248846615513331,6.371706361682702,87.89958871590065,0.17640247102356613,0.15505704651440047,0.09765625,,
1.308780000000028,1140,,,,-0.0625,0.048828125,-1.001953125,0.05227058112506634,1.123984746837405,23.042642949584128,0.31533148035246666,1164,0,7.266070712525692,6.371024030593449,87.68183358869179,0.17642136357358987,0.154689486423496,0.09765625,,
1.3174849999998697,1140,,,,-0.125,0.02734375,-0.96875,0.05227058112506634,1.123984746837405,23.042780697505655,0.3163110749892617,1164,0,7.288686733169824,6.370741857967109,87.40589479548801,0.17642917762109203,0.1542095013800364,0.09765625,,
1.3251899999999441,1140,,,,-0.03125,-0.009765625,-0.962890625,0.05227058112506634,1.123984746837405,23.042743871163196,0.3163486241417542,1164,0,7.289540320093316,6.370638942239915,87.39424795661687,0.17643202778059372,0.1541914438334592,0.09765625,,
1.3348700000001117,1140,,,,-0.03125,0.01953125,-1.01953125,0.05227058112506634,1.123984746837405,23.04266271064786,0.31639227264720354,1164,0,7.290520422864848,6.370139196350311,87.37564435553877,0.17644586910775475,0.15417071507163121,0.09765625,,
1.3426899999999442,1140,,,,-0.03125,0.017578125,-0.95703125,0.05227058112506634,1.123984746837405,23.042731437657288,0.31486829341179684,1164,0,7.25542552332151,6.369976355466655,87.79604083855995,0.17645037973693756,0.1549164474536358,0.09765625,,
1.3515400000000373,1140,,,,0,0.02734375,-0.970703125,0.05138272124845516,1.123984746837405,23.042995499424578,0.3156325912299324,1164,0,7.27312037918305,6.261716995950733,86.09395513200728,0.17950104541042855,0.15453954949713838,0.095703125,,
1.360339999999851,1140,,,,-0.0625,0.0546875,-0.9921875,0.05138272124845516,1.123984746837405,23.042903985895354,0.3171482719419079,1164,0,7.3080171796500135,6.261692616020505,85.68251089306254,0.17950174429860966,0.1538016016118935,0.095703125,,
1.3690699999998324,1140,,,,0,0.03515625,-0.9921875,0.05138272124845516,1.123984746837405,23.042745106893506,0.31809665372398305,1163,0,7.329820111117508,6.260233549949252,85.4077379123403,0.17954358058199224,0.15334411074189946,0.095703125,,
1.3772900000000372,1140,,,,-0.03125,0.029296875,-0.974609375,0.05138272124845516,1.123984746837405,23.042807168342378,0.3180477232333468,1163,0,7.328712356796336,6.259046091445453,85.4044446926762,0.17957764336862933,0.15336728911117234,0.095703125,,
1.3852600000000093,1140,,,,-0.03125,0.0703125,-0.982421875,0.05138272124845516,1.123984746837405,23.0427351473132,0.3188505664716429,1163,0,7.347189154776849,6.258583192287787,85.18336823026675,0.17959092534272747,0.152981599242839,0.09375,,
1.3933599999998696,1140,,,,0,0.0859375,-1.05078125,0.05138272124845516,1.123984746837405,23.042666062087843,0.32004800944291334,1163,0,7.374759405428989,6.2583995111467585,84.86242285463017,0.17959619625360915,0.1524096834955693,0.09375,,
1.4016450000000187,1140,,,,-0.03125,0.056640625,-0.966796875,0.05138272124845516,1.123984746837405,23.04273155276034,0.31926423179295205,1163,0,7.356719987603247,6.259288589277256,85.08259930817994,0.1795706861579917,0.15278340737875346,0.09375,,
1.412309999999823,1140,,,,0,0.0859375,-0.97265625,0.05138272124845516,1.123984746837405,23.04272833414219,0.317890529181899,1164,0,7.325065103935198,6.261551627881386,85.48117373752122,0.17950578604710926,0.15344365283983263,0.09375,,
1.4211149999999906,1140,,,,-0.01953125,0.046875,-0.96484375,0.05138272124845516,1.1302927007418606,23.04253129562672,0.31971451580346266,1164,0,7.367031736067432,6.262623658884673,85.00877807033447,0.18048229660716308,0.15342579497902611,0.09375,,
1.4294199999999255,1140,,,,-0.0625,0.1171875,-0.88671875,0.05138272124845516,1.1302927007418606,23.042865914187974,0.3183051907123026,1164,0,7.33466382937362,6.262875791783912,85.38735976831758,0.1804750306919162,0.15410286374888807,0.09375,,
1.4375,1140,,,,0,0.064453125,-1.013671875,0.05138272124845516,1.1302927007418606,23.042822430441625,0.3205344050679871,1164,0,7.386017378828875,6.263950551159448,84.80822925104813,0.1804440650529473,0.15303141636001397,0.09375,,
1.4481049999997486,1140,,,,-0.0625,0.052734375,-0.94140625,0.05138272124845516,1.1302927007418606,23.042886910612154,0.3201095151805584,1165,0,7.376247357316492,6.2664175728595675,84.9540053268945,0.18037302615090042,0.15323411024451675,0.09375,,
1.456030000000028,1140,,,,0,0.0234375,-0.93359375,0.05138272124845516,1.1302927007418606,23.042953563165437,0.3199297233867407,1165,0,7.372125759477029,6.267344731255286,85.01407783499185,0.18034634270316807,0.15331978015823244,0.09375,,
1.465219999999972,1140,,,,-0.0625,0.00390625,-0.94921875,0.05138272124845516,1.1302927007418606,23.04307299876481,0.31869990523921166,1165,0,7.343825181126582,6.267627258832213,85.34554001829773,0.18033821318092508,0.15391062189860946,0.09375,,
1.473185000000056,1140,,,,-0.0625,0.052734375,-0.962890625,0.05138272124845516,1.1302927007418606,23.043123490552368,0.3168413435298146,1165,0,7.301014205870043,6.26774132328216,85.84754318438215,0.18033493126834602,0.1548131079971192,0.09375,,
1.4812749999999069,1140,,,,-0.03125,0.06640625,-1.01953125,0.05138272124845516,1.1302927007418606,23.0432985486317,0.31642537794517456,1164,0,7.291484452354278,6.264055208706233,85.90918968062383,0.18044105025940685,0.1550154441290636,0.09375,,
1.490125,1140,,,,-0.0625,0.0390625,-0.978515625,0.05138272124845516,1.1302927007418606,23.0431359372653,0.3164589599413447,1164,0,7.292206832494001,6.262612705345352,85.88089791199026,0.18048261227731957,0.155000087998778,0.09375,,
1.4982700000000186,1140,,,,0,0,-0.95703125,0.051637929619892775,1.1302927007418606,23.04310898893637,0.31724872555040134,1164,0,7.310396959459061,6.293101677894006,86.08426755473575,0.17960820571392935,0.15461440835703913,0.09375,,
1.5046649999998045,1140,,,,-0.03125,0.01171875,-0.96875,0.051637929619892775,1.1302927007418606,23.04306557831265,0.31724317117709755,1164,0,7.310255197705724,6.29293028097984,86.08359230680259,0.17961309759908356,0.1546174066668145,0.091796875,,
1.512494999999879,1140,,,,-0.03125,0.0625,-0.95703125,0.051637929619892775,1.1302927007418606,23.04330611941333,0.3162844864292516,1164,0,7.288240241610676,6.294078036132656,86.35936560101216,0.17958034429397696,0.1550844460763919,0.091796875,,
1.5207250000000931,1140,,,,-0.125,0.05078125,-1.00390625,0.051637929619892775,1.1302927007418606,23.043340242195026,0.3163248890620427,1164,0,7.289182045731246,6.295777607370847,86.37152382629591,0.17953186583632794,0.1550644082766176,0.09375,,
1.5283449999997392,1140,,,,-0.03125,0.056640625,-0.982421875,0.051637929619892775,1.1302927007418606,23.04319166352553,0.316359654639637,1164,0,7.289936156467899,6.296411843496778,86.37128924524765,0.1795137816325148,0.15504836756890159,0.091796875,,
1.5365849999999628,1140,,,,-0.125,0.078125,-0.984375,0.051637929619892775,1.1302927007418606,23.043231289042687,0.3153332496678654,1164,0,7.266297005222066,6.296696897904198,86.65620044678815,0.17950565495983598,0.1555527801753154,0.091796875,,
1.5446799999999348,1140,,,,-0.0625,0.0546875,-0.958984375,0.051637929619892775,1.1302927007418606,23.043070837544292,0.3150978307431642,1164,0,7.260821634571275,6.296810456164347,86.72311169555607,0.17950241770980185,0.1556700822066951,0.09375,,
1.5534399999999442,1140,,,,-0.0625,0.052734375,-0.990234375,0.051637929619892775,1.1302927007418606,23.0433359793485,0.31263834702932547,1165,0,7.204230470624898,6.297291121261169,87.41101699811303,0.17948871649362386,0.15689291248393647,0.09375,,
1.5626799999999348,1140,,,,-0.125,0.0390625,-0.95703125,0.051637929619892775,1.1287799457933505,23.04330295609729,0.31435479237850594,1165,0,7.243772716478976,6.297458959700104,86.93617547350586,0.1792437160792716,0.15582763153590817,0.09375,,
1.571,1140,,,,-0.0625,0.0078125,-0.94921875,0.051637929619892775,1.1287799457933505,23.043231406013213,0.31557827437472724,1165,0,7.27194320312717,6.297528677783213,86.60035566662668,0.17924173172494248,0.15522397717682102,0.09375,,
1.5791550000000278,1140,,,,-0.09375,0.046875,-0.96484375,0.051637929619892775,1.1287799457933505,23.043127235508628,0.31542380873999026,1165,0,7.268350957904334,6.29755369608624,86.64350046605341,0.1792410196509887,0.1553006936966633,0.09375,,
1.5866599999999162,1140,,,,0,0.01171875,-1.0234375,0.051637929619892775,1.1287799457933505,23.04307913796914,0.3143846268979703,1164,0,7.244389837370831,6.296412152814393,86.91431982765187,0.17927351615456183,0.155814357196853,0.09375,,
1.5945900000000839,1140,,,,-0.09375,0.048828125,-0.982421875,0.051637929619892775,1.1287799457933505,23.042927805506142,0.31387862703810887,1164,0,7.232682542530531,6.293382322477874,87.01311422796084,0.17935982401096512,0.15606656854573064,0.09375,,
1.6023449999999722,1140,,,,-0.0625,0.048828125,-0.951171875,0.051637929619892775,1.1287799457933505,23.042980419685176,0.3127597871752106,1164,0,7.2069176519432805,6.292190014592409,87.30764410629523,0.17939381092680967,0.15662450999269917,0.09375,,
1.610339999999851,1140,,,,-0.0625,-0.03515625,-0.97265625,0.051637929619892775,1.1287799457933505,23.043030423053683,0.3133983077823287,1164,0,7.2216467407617415,6.291719812884478,87.12306263018378,0.1794072176389327,0.15630506258663746,0.09375,,
1.6188049999999348,1140,,,,-0.0625,-0.009765625,-0.919921875,0.051637929619892775,1.1287799457933505,23.04327579377017,0.31422425607291576,1163,0,7.240756193780459,6.291533513979624,86.89055874279839,0.1794125300747792,0.15589254983656686,0.09375,,
1.6276549999997951,1140,,,,-0.03125,-0.005859375,-0.974609375,0.051637929619892775,1.1287799457933505,23.0431686677593,0.3162990200600295,1164,0,7.288531668690243,6.2936527407044816,86.35007744756713,0.17935211749020016,0.15487069235663944,0.09375,,
1.6355599999998232,1140,,,,0,0.00390625,-0.99609375,0.051637929619892775,1.1287799457933505,23.043079355238053,0.3154926337882048,1164,0,7.269921796374661,6.294363424390155,86.58089592557936,0.17933186720986247,0.1552671373103692,0.09375,,
1.6437849999999161,1140,,,,-0.03125,0.017578125,-0.958984375,0.051637929619892775,1.1287799457933505,23.043025863799535,0.3149274299930379,1164,0,7.25688091454949,6.294647871278865,86.74040466419366,0.17932376343778217,0.1555461580649936,0.09375,,
1.6527599999997764,1140,,,,-0.0625,0.01953125,-1.00390625,0.05207410510097902,1.1287799457933505,23.042784117687283,0.3167335870567931,1164,0,7.298423669370394,6.347936301898874,86.97681293207914,0.17781841091500805,0.15466078662034233,0.09375,,
1.661399999999907,1140,,,,0,0.037109375,-0.97265625,0.05207410510097902,1.1287799457933505,23.04274635615306,0.31737846768922817,1164,0,7.3132715298674045,6.34894084365432,86.81396304957696,0.1777902761405551,0.15434678463440232,0.091796875,,
1.6692299999997486,1140,,,,-0.03125,0.056640625,-1.04296875,0.05207410510097902,1.1287799457933505,23.0429596502795,0.31712770771600096,1165,0,7.307560972885441,6.351426273099233,86.91581632594067,0.17772070354877198,0.1544674002696202,0.09375,,
1.6774250000000466,1140,,,,-0.0625,0.05859375,-0.935546875,0.05207410510097902,1.1287799457933505,23.042945047801666,0.3158331883382984,1165,0,7.2777268031514035,6.352283640796882,87.28389801670234,0.1776967165861232,0.15510062088406038,0.09375,,
1.6866099999998696,1140,,,,0.0625,0.03125,-0.95703125,0.05207410510097902,1.1287799457933505,23.043003318405763,0.31542430497195184,1165,0,7.268323306174517,6.352636958763816,87.40168387071037,0.1776868335339289,0.1553012845251999,0.09375,,
1.6958649999999906,1140,,,,-0.03125,0.0625,-0.94140625,0.05207410510097902,1.1287799457933505,23.043131279111382,0.3150400688256956,1165,0,7.259509664130788,6.352762794676,87.50953010042784,0.17768331390231296,0.15548983306278222,0.09375,,
1.704310000000056,1140,,,,-0.03125,0.095703125,-0.98046875,0.05207410510097902,1.1287799457933505,23.04340226722392,0.31539660122641616,1165,0,7.267810755775518,6.353700556566357,87.42248209362437,0.1776570890843747,0.15531223689284177,0.09375,,
1.71375,1140,,,,0,0.041015625,-0.9765625,0.05207410510097902,1.1269284936242607,23.043427776192832,0.3160250508455321,1165,0,7.282300434626687,6.353988744560079,87.25249392825694,0.17735764712977695,0.154748970293208,0.091796875,,
1.7214149999998045,1140,,,,0,0,-0.90234375,0.05207410510097902,1.1269284936242607,23.04338096397569,0.31582494550805473,1165,0,7.277674537268968,6.354141791001762,87.3100570582293,0.17735337527722922,0.15484733314924437,0.091796875,,
1.7293599999998697,1140,,,,-0.0625,0.048828125,-1.015625,0.05207410510097902,1.1269284936242607,23.043603095600975,0.31463432036968303,1165,0,7.250308398853137,6.354185920253978,87.64021570805308,0.17735214357391943,0.15543180119103897,0.091796875,,
1.7376799999999348,1140,,,,-0.03125,0.072265625,-0.970703125,0.05207410510097902,1.1269284936242607,23.04362287635508,0.3145414357599558,1165,0,7.24817422463969,6.353922874793097,87.6623916295135,0.17735948575878127,0.155477566997954,0.091796875,,
1.745564999999944,1140,,,,-0.03125,0.048828125,-0.953125,0.05207410510097902,1.1269284936242607,23.043835467877667,0.3140333529614322,1165,0,7.236532917069198,6.3536827140731065,87.8000941457246,0.17736618971044424,0.15572768154845454,0.091796875,,
1.7576599999999163,1140,,,,-0.0625,0.02734375,-1.00390625,0.05207410510097902,1.1269284936242607,23.04365512789008,0.3139420533888781,1165,0,7.234372408434962,6.353568654791451,87.82473856866241,0.17736937378876108,0.15577418883085303,0.091796875,,
1.7652700000000185,1140,,,,-0.01953125,0.03515625,-1.00390625,0.05207410510097902,1.1269284936242607,23.04362241457976,0.3147493647656008,1165,0,7.25296551688734,6.353541561067746,87.59922470711555,0.17737013015381525,0.15537485887674396,0.08984375,,
1.77675,1140,,,,-0.0625,0.03515625,-0.9453125,0.05207410510097902,1.1269284936242607,23.043492231892447,0.31537733289624487,1165,0,7.267395120709577,6.352629506729153,87.41274419807371,0.17739559538779,0.15506635801497873,0.08984375,,
1.7862899999998043,1140,,,,-0.0625,0.06640625,-0.96875,0.05207410510097902,1.1269284936242607,23.043438985630864,0.31548928361640466,1165,0,7.269958057635011,6.352293375502655,87.37730431376269,0.1774049822651787,0.15501169122162192,0.08984375,,
1.7940499999998136,1140,,,,-0.125,0.078125,-0.970703125,0.05207410510097902,1.1269284936242607,23.0434695396645,0.31463280987503733,1165,0,7.250231570534474,6.352197251440516,87.61371536402172,0.1774076668303558,0.15543344825069988,0.091796875,,
1.8026799999999348,1140,,,,0,0.03515625,-0.9765625,0.05258478098284879,1.1269284936242607,23.04359552458271,0.31378405406161136,1165,0,7.230712823859567,6.414457896059217,88.71127995697864,0.17568569501665918,0.1558530287505922,0.08984375,,
1.8107099999999627,1140,,,,-0.125,0.09375,-1,0.05258478098284879,1.1269284936242607,23.043746255118013,0.31437308900921046,1165,0,7.244333692565875,6.412755679840665,88.52098691176286,0.1757323294207056,0.1555599923262388,0.091796875,,
1.8190599999998232,1140,,,,-0.0625,0.0390625,-0.94921875,0.05258478098284879,1.1269284936242607,23.04382676794826,0.3164914668160356,1164,0,7.293174534842571,6.412073608719004,87.91882846195197,0.1757510225852503,0.15451824006685266,0.091796875,,
1.8273999999999069,1140,,,,-0.09375,0.068359375,-1.0078125,0.05258478098284879,1.1269284936242607,23.043694127523857,0.31814185595970274,1164,0,7.3311636178981425,6.411805093584079,87.4595825133467,0.17575838272936783,0.15371754776731517,0.091796875,,
1.8355049999998883,1140,,,,-0.0625,0.052734375,-0.978515625,0.05258478098284879,1.1269284936242607,23.043905830576772,0.3174512557454195,1164,0,7.315316843195791,6.411710181909875,87.64774403276341,0.17576098445681448,0.15405053776617386,0.091796875,,
1.8435549999999348,1140,,,,-0.0625,0.03515625,-1.04296875,0.05258478098284879,1.1269284936242607,23.04391046544518,0.3180710500541803,1165,0,7.329600799098663,6.413359162692596,87.49943330448858,0.17571579339884175,0.15375032345047246,0.091796875,,
1.8511599999999162,1140,,,,-0.0625,0.046875,-0.96484375,0.05258478098284879,1.1269284936242607,23.044014011165167,0.3183458640952033,1165,0,7.335966552606347,6.415713379075713,87.45559747401407,0.17565131530028122,0.15361690726682523,0.091796875,,
1.8587999999998137,1140,,,,-0.125,0.1171875,-1.05859375,0.05258478098284879,1.1269284936242607,23.043928203414872,0.3177383705910656,1165,0,7.321940199370543,6.416561120771225,87.63471082873427,0.17562810864159772,0.15391118514203944,0.091796875,,
1.8689799999997485,1140,,,,-0.03125,0.01171875,-0.97265625,0.05258478098284879,1.126146985742971,23.043866387822426,0.31749438814228276,1165,0,7.3162982592341965,6.416964617832094,87.70780510120652,0.17549527741099313,0.15392305587345556,0.091796875,,
1.8771799999999348,1140,,,,-0.0625,0.015625,-0.97265625,0.05258478098284879,1.126146985742971,23.044053349357313,0.3189171923057948,1165,0,7.3491447935219805,6.417148303611606,87.31830007306569,0.17549025399789642,0.15323510658486833,0.091796875,,
1.8869549999998416,1140,,,,-0.0625,0.037109375,-0.978515625,0.05258478098284879,1.126146985742971,23.04394480658435,0.3208862129782706,1165,0,7.394484181065137,6.4150034545586205,86.75390057612609,0.17554892896319643,0.15229554329518563,0.091796875,,
1.8955549999999348,1140,,,,-0.03125,0.0390625,-0.978515625,0.05258478098284879,1.126146985742971,23.04389190448082,0.31957867307811283,1165,0,7.3643363973894465,6.414184453267188,87.09792854575365,0.17557134409649636,0.15291900382798568,0.091796875,,
1.9043850000000093,1140,,,,0,0.046875,-0.98828125,0.05258478098284879,1.126146985742971,23.044098297093807,0.3184739713264278,1165,0,7.338945500312037,6.4139115519825385,87.39554683584763,0.17557881436560802,0.1534480649427209,0.091796875,,
1.913089999999851,1140,,,,-0.125,0.0703125,-1.02734375,0.05258478098284879,1.126146985742971,23.043977917707583,0.31839554392224595,1165,0,7.337099883240731,6.413798760274582,87.41599354432755,0.1755819020574882,0.15348666416758142,0.091796875,,
1.9217700000000186,1140,,,,0,0.06640625,-0.974609375,0.05258478098284879,1.126146985742971,23.04387442098729,0.31628431496115245,1165,0,7.288416035292789,6.413470654727738,87.99539740420563,0.1755908846192074,0.15451189672623175,0.091796875,,
1.9297699999997857,1140,,,,0,0.06640625,-1.03515625,0.05258478098284879,1.126146985742971,23.044013715499773,0.3154589009309667,1165,0,7.26943923972968,6.413208764997663,88.22150586179386,0.1755980550468454,0.1549152484263487,0.091796875,,
1.9379249999998138,1140,,,,-0.0625,0.060546875,-0.96484375,0.05258478098284879,1.126146985742971,23.044110664748718,0.3136351527738401,1165,0,7.227443168875742,6.413108183387727,88.73273761605117,0.1756008090835111,0.1558154051757349,0.091796875,,
1.9458649999999906,1140,,,,0,0.109375,-0.9921875,0.05258478098284879,1.126146985742971,23.044105333841756,0.3133826477847748,1165,0,7.221622745350582,6.413068425043499,88.80370314514636,0.1756018977351442,0.15594098798196096,0.091796875,,
1.9547600000000094,1140,,,,-0.03125,0.068359375,-0.953125,0.05279825886544473,1.126146985742971,23.04388058577724,0.3135865721663934,1165,0,7.226251522305587,6.438638414664594,89.10066851105537,0.17490452378534987,0.15584109994882459,0.091796875,,
1.9639850000001025,1140,,,,0,0.060546875,-0.943359375,0.05279825886544473,1.126146985742971,23.043738581640845,0.31281472375835645,1164,0,7.208420718775762,6.437565563091522,89.30618528304828,0.17493367247387842,0.15622658966196268,0.08984375,,
1.9733249999997207,1140,,,,-0.0625,0.068359375,-0.974609375,0.05279825886544473,1.126146985742971,23.043676830843122,0.3153184316963822,1164,0,7.266096038819712,6.43717944659102,88.59199509887927,0.17494416538898136,0.1549865264271816,0.08984375,,
1.9818899999998976,1140,,,,-0.0625,0.021484375,-0.935546875,0.05279825886544473,1.126146985742971,23.043416534371325,0.31541136317141916,1164,0,7.268155421232879,6.437053626684451,88.56516204757423,0.17494758488178358,0.15494261204886914,0.08984375,,
1.99,1140,,,,0.0625,0.02734375,-0.9296875,0.05279825886544473,1.126146985742971,23.043644252111836,0.31527991566513164,1164,0,7.265198216423115,6.4371498186889236,88.6025353601176,0.17494497059450717,0.15500567943174556,0.091796875,,
1.9978599999998696,1140,,,,-0.09375,0.0390625,-0.955078125,0.05279825886544473,1.126146985742971,23.043564832199266,0.31536814752738523,1164,0,7.267206353557884,6.4374669094502135,88.5824152536766,0.17493635331775997,0.154962846925577,0.091796875,,
2.0065099999997766,1140,,,,0,0.02734375,-0.94140625,0.05279825886544473,1.126146985742971,23.043326855427395,0.31482022774984714,1164,0,7.2545054087398215,6.437593941835098,88.7392534586775,0.1749329013165363,0.1552341506818993,0.091796875,,
2.0145,1140,,,,-0.0625,0.06640625,-1.02734375,0.05279825886544473,1.1258385856089317,23.043364428822056,0.31543214468863545,1164,0,7.268617862625154,6.437648119375412,88.56770628261332,0.1748835234129202,0.15489032535304045,0.091796875,,
2.024395000000019,1140,,,,0.0625,-0.0390625,-0.94140625,0.05279825886544473,1.1258385856089317,23.04330567904788,0.3146633750474667,1164,0,7.250884337219663,6.437664842158449,88.78454741186725,0.17488306912719853,0.1552691414245662,0.091796875,,
2.0315100000000093,1140,,,,-0.01953125,0.009765625,-0.974609375,0.05279825886544473,1.1258385856089317,23.04350853583009,0.31402504375468443,1164,0,7.236238776225488,6.438298417236536,88.9729957279662,0.17486585936974433,0.15558339358671397,0.091796875,,
2.0395200000000187,1140,,,,-0.125,0.1171875,-0.90234375,0.05279825886544473,1.1258385856089317,23.043532419494063,0.3148065866112236,1165,0,7.254255784445998,6.4387672945713845,88.75848172292024,0.1748531254667554,0.1551969794093649,0.091796875,,
2.0476299999998884,1140,,,,-0.0625,0.083984375,-1.01953125,0.05279825886544473,1.1258385856089317,23.043489548471623,0.31405896726431526,1165,0,7.2370145297590405,6.43895613108812,88.97254668497271,0.1748479975151929,0.15556671621694493,0.091796875,,
2.0565200000000186,1140,,,,-0.0625,0.0625,-1.009765625,0.05279825886544473,1.1258385856089317,23.0434164877566,0.31325057204270923,1165,0,7.218363396608152,6.439029362928654,89.20345248833412,0.17484600894829097,0.15596867651993715,0.091796875,,
2.0640100000000094,1140,,,,-0.125,0.12109375,-0.9296875,0.05279825886544473,1.1258385856089317,23.043230270128134,0.3134609275307583,1165,0,7.223152333779212,6.438612407355302,89.13853827012628,0.17485733173234705,0.1558652695643598,0.09375,,
2.0729299999999347,1140,,,,-0.0625,0.052734375,-0.966796875,0.05279825886544473,1.1258385856089317,23.04306698009041,0.31150666601995103,1164,0,7.178068969842385,6.437606955708615,89.68438423697636,0.17488464166184958,0.15684421399947243,0.09375,,
2.0808950000000186,1140,,,,-0.125,0.12109375,-1.0625,0.05279825886544473,1.1258385856089317,23.0433091269361,0.3117816474249731,1164,0,7.184480881719057,6.43722575121902,89.59903794299974,0.17489499811246034,0.15670423571919204,0.09375,,
2.0899249999998135,1140,,,,-0.0625,0.046875,-0.994140625,0.05279825886544473,1.1258385856089317,23.043563778487115,0.3120707115694856,1164,0,7.191221345449299,6.437067636659682,89.51285640419265,0.17489929408185478,0.15655735396343728,0.09375,,
2.097899999999907,1140,,,,-0.0625,0.00390625,-0.953125,0.052883117849278655,1.1258385856089317,23.043649954180548,0.31210460727910655,1164,0,7.192029319226721,6.447359218797356,89.64589732082139,0.17462011149100165,0.15653976584872717,0.09375,,
2.1061499999999067,1140,,,,-0.0625,0.029296875,-0.990234375,0.052883117849278655,1.1258385856089317,23.043767663236558,0.3117032145999402,1165,0,7.1828164571249875,6.449912549938611,89.7964271875641,0.17455098451213064,0.1567405477126117,0.09375,,
2.1173999999999067,1140,,,,-0.125,0.0234375,-0.953125,0.052883117849278655,1.1258385856089317,23.04394400773004,0.31097595539664813,1165,0,7.166112503910714,6.450999701864699,90.02091019844077,0.17452156838319202,0.15710590435114372,0.09375,,
2.1253799999998884,1140,,,,-0.0625,0.052734375,-0.953125,0.052883117849278655,1.1258385856089317,23.043887384195088,0.3109532159827526,1165,0,7.1655708908598434,6.451353610989297,90.03265349336537,0.17451199445821222,0.15711777927492318,0.09375,,
2.1339899999999905,1140,,,,-0.03125,-0.021484375,-0.9609375,0.052883117849278655,1.1258385856089317,23.043991946734412,0.31029154526472585,1165,0,7.150355870220118,6.451460574079279,90.22572709909997,0.1745091011068615,0.1574521053277693,0.09375,,
2.142029999999795,1140,,,,-0.125,0.08984375,-1.03125,0.052883117849278655,1.1258385856089317,23.043992367705915,0.31062232521015304,1165,0,7.157978491381831,6.453192597835107,90.15384169713163,0.17446226321939062,0.15728443260404254,0.09375,,
2.1513649999997577,1140,,,,0.03125,-0.0234375,-0.966796875,0.052883117849278655,1.1258385856089317,23.043918372717986,0.31146801686900816,1165,0,7.177443556441773,6.453931893100225,89.91964677044106,0.17444227863832032,0.1568578807698862,0.09375,,
2.1600900000000838,1140,,,,0,-0.01953125,-0.98046875,0.052883117849278655,1.123495906984352,23.043813431079414,0.3132008817694936,1165,0,7.2173426859457726,6.454191065687493,89.42614126187532,0.17407230364734771,0.1556661441574777,0.095703125,,
2.1689299999999347,1140,,,,-0.0625,0.0625,-0.931640625,0.052883117849278655,1.123495906984352,23.0438972275008,0.314611433595931,1165,0,7.2498735423813265,6.454284761832375,89.02617023734143,0.17406977665878362,0.15496765570000873,0.095703125,,
2.1794699999999723,1140,,,,0,0.046875,-0.98046875,0.052883117849278655,1.123495906984352,23.04379947738854,0.3147399878240742,1165,0,7.252805166933676,6.453445137443768,88.97860881284558,0.1740924239776481,0.1549050169038721,0.09375,,
2.188834999999963,1140,,,,-0.03125,0.0546875,-0.97265625,0.052883117849278655,1.123495906984352,23.04374554401984,0.3129241400485876,1165,0,7.210944257860881,6.453085773593901,89.49016304708202,0.17410211895550962,0.15580427012171025,0.09375,,
2.197755000000121,1140,,,,0,0.044921875,-0.96484375,0.052883117849278655,1.123495906984352,23.043644632849528,0.31147083212831095,1165,0,7.177423169062729,6.4529855096554,89.90671662596242,0.17410482408542532,0.1565319308226137,0.09375,,
2.2063700000001116,1140,,,,0,0.05078125,-1,0.052883117849278655,1.123495906984352,23.04366224052425,0.3133585021259793,1165,0,7.220927483187667,6.452953715681695,89.3646104424393,0.17410568190719852,0.15558886439452047,0.09375,,
2.214975000000093,1140,,,,-0.03125,0.0546875,-0.962890625,0.052883117849278655,1.123495906984352,23.043680759636054,0.3133261039772671,1165,0,7.220186713712676,6.452640946775383,89.36944711582653,0.17411412106322194,0.1556048273447823,0.09375,,
2.222885000000009,1140,,,,0,0.0078125,-0.91015625,0.052883117849278655,1.123495906984352,23.043826148155436,0.3132988440060347,1165,0,7.219604093693133,6.452393830926034,89.37323636018608,0.17412078934169928,0.15561738461057859,0.09375,,
2.230684999999823,1140,,,,-0.03125,0.068359375,-0.970703125,0.052883117849278655,1.123495906984352,23.043900315843274,0.31412618520666513,1165,0,7.238692498498513,6.452295334090548,89.1361987738658,0.1741234473642873,0.15520702215453872,0.091796875,,
2.238814999999711,1140,,,,0,0.0078125,-0.9765625,0.052883117849278655,1.123495906984352,23.04400348618733,0.3133135051726595,1165,0,7.219997505468337,6.452256579980237,89.36646550214704,0.17412449319983384,0.15560890514621786,0.091796875,,
2.2478649999999907,1140,,,,-0.03125,0.05078125,-1.021484375,0.052883117849278655,1.123495906984352,23.04400332878522,0.3138804626633874,1165,0,7.233062426455745,6.451040390792974,89.18823052318149,0.17415732020339275,0.15532783221599725,0.091796875,,
2.2563199999998322,1140,,,,-0.0625,0.01953125,-0.8984375,0.05308208909945764,1.123495906984352,23.044073498026403,0.3133639236060084,1164,0,7.221181287206789,6.472525728980476,89.63250570162741,0.1735792106555782,0.15558339588770095,0.091796875,,
2.265344999999972,1140,,,,0,0.02734375,-0.9921875,0.05308208909945764,1.123495906984352,23.044209584264806,0.3135603127118078,1164,0,7.2257495634385105,6.471492476433354,89.56153848976979,0.17360692468942596,0.15548503267662586,0.091796875,,
2.284964999999851,1140,,,,-0.03125,0.029296875,-0.97265625,0.05308208909945764,1.123495906984352,23.04408351558168,0.31563245876025875,1164,0,7.273460739899793,6.470565124810083,88.96129856472187,0.17363180577172965,0.1544651091359064,0.091796875,,
2.292505000000121,1140,,,,-0.03125,0.0625,-1.029296875,0.05308208909945764,1.123495906984352,23.04407944794468,0.31698274420236305,1164,0,7.30457554102678,6.469052890576033,88.56165364081785,0.17367239470572807,0.15380714466900097,0.091796875,,
2.300999999999767,1140,,,,-0.0625,0.08203125,-0.9609375,0.05308208909945764,1.123495906984352,23.043946204534244,0.3161461413735355,1164,0,7.285254674582831,6.468459432066483,88.7883776339896,0.1736883285399887,0.1542150490502497,0.091796875,,
2.309024999999907,1140,,,,-0.0625,0.01953125,-0.974609375,0.05308208909945764,1.123495906984352,23.043849295879753,0.318463000478222,1164,0,7.33861338933383,6.468220393189835,88.13954421677191,0.1736947473477004,0.15309375864073668,0.091796875,,
2.317144999999786,1140,,,,-0.09375,0.119140625,-0.974609375,0.05308208909945764,1.1145503724151624,23.04375914439378,0.32379176694619877,1164,0,7.4613794904458866,6.4681282169581795,86.6881013791144,0.17231420513480658,0.14937591283787627,0.091796875,,
2.324280000000028,1140,,,,0,0.03125,-0.97265625,0.05308208909945764,1.1145503724151624,23.043385856697302,0.32869112031198283,1165,0,7.574156313019136,6.47526472245502,85.49156440466851,0.17212429455588243,0.1471517521363236,0.091796875,,
2.334344999999972,1140,,,,-0.09375,0.029296875,-0.974609375,0.05308208909945764,1.1145503724151624,23.043415749706227,0.32781126837992036,1165,0,7.553891344717032,6.478137553380854,85.75894539324386,0.17204796335846456,0.14754651894677384,0.091796875,,
2.3453300000000743,1140,,,,-0.09375,0.029296875,-0.958984375,0.05308208909945764,1.1145503724151624,23.043671171504883,0.32658464734898807,1166,0,7.525709223171965,6.479494692278472,86.09812710179983,0.17201192768061951,0.1480990481247158,0.091796875,,
2.3531799999999348,1140,,,,-0.0625,0.0546875,-0.94921875,0.05308208909945764,1.1145503724151624,23.043828367815152,0.32563187497914314,1166,0,7.503805038109216,6.479830995093335,86.35393593229736,0.17200300027255705,0.14853136065699318,0.091796875,,
2.3619599999999625,1140,,,,-0.03125,-0.0078125,-0.984375,0.05308208909945764,1.1145503724151624,23.043837657057445,0.32446998163138113,1169,0,7.477033581301958,6.5006820034029,86.94199287347524,0.17145129877630239,0.14906317596357357,0.091796875,,
2.3700749999999533,1140,,,,0.0625,-0.03125,-0.890625,0.05308208909945764,1.1145503724151624,23.04364731643087,0.3216823315660476,1171,0,7.412734196535178,6.507958057120358,87.79429943896105,0.17125961209841123,0.15035617666368234,0.091796875,,
2.3781399999998976,1140,,,,-0.03125,0.037109375,-1.03125,0.05308208909945764,1.1145503724151624,23.043795144748987,0.320395989667552,1171,0,7.383139551098181,6.510781578525723,88.1844577562847,0.1711853421855287,0.15095886576454892,0.09375,,
2.3857700000000186,1140,,,,-0.03125,0.05859375,-0.958984375,0.05308208909945764,1.1145503724151624,23.043903545131766,0.3192740835033212,1171,0,7.357321184710879,6.511899613200459,88.50911153277804,0.17115595119983507,0.15148861174244915,0.091796875,,
2.3942199999999723,1140,,,,0,0.0546875,-1.078125,0.05308208909945764,1.1145503724151624,23.043712964686527,0.31832101914362443,1171,0,7.335298195772166,6.506976919455007,88.70773547018746,0.17128543503555438,0.15194343061029938,0.091796875,,
2.402375,1140,,,,-0.03125,0.078125,-0.953125,0.05285990116828249,1.1145503724151624,23.043630277410468,0.319205660383561,1169,0,7.35565722033543,6.4725027221549905,87.99353379683228,0.17219774486924866,0.15152288082890533,0.091796875,,
2.4110800000000747,1140,,,,0,0.056640625,-0.939453125,0.05285990116828249,1.1145503724151624,23.043650919230718,0.3190887403986494,1169,0,7.352969546003508,6.469391037454549,87.98337864694132,0.17228056952539605,0.1515782658206362,0.091796875,,
2.4194199999999255,1140,,,,-0.0625,0.046875,-0.953125,0.05285990116828249,1.1145503724151624,23.043602484591972,0.31963374501288205,1169,0,7.365512960738286,6.468354738846013,87.8194739908197,0.1723081706885488,0.15132012914188733,0.091796875,,
2.427965000000084,1140,,,,-0.03125,0.02734375,-0.958984375,0.05285990116828249,1.1145503724151624,23.043624132225318,0.31949642594495936,1168,0,7.362355551065005,6.467927361319648,87.85133122759913,0.1723195561967105,0.15138502408430093,0.091796875,,
2.436030000000028,1140,,,,-0.03125,0.041015625,-1.0234375,0.05285990116828249,1.1145503724151624,23.043511893400616,0.32001781027628334,1168,0,7.374334217201557,6.464793106535014,87.66612572908717,0.17240309999843706,0.1511391184054737,0.08984375,,
2.443850000000093,1140,,,,0,0.01953125,-0.859375,0.05285990116828249,1.1145503724151624,23.04340580605797,0.31839596289717015,1168,0,7.336927380050068,6.463561489846261,88.0962991050097,0.1724359510102955,0.15190969116659794,0.091796875,,
2.450410000000149,1140,,,,-0.03125,0.044921875,-1.01171875,0.05285990116828249,1.1145503724151624,23.043345908773578,0.31778633510758036,1168,0,7.3228604449654116,6.463107715559554,88.25933204835343,0.17244805772491578,0.1522015038783696,0.091796875,,
2.4634399999999443,1140,,,,-0.09375,0.033203125,-0.99609375,0.05285990116828249,1.1145503724151624,23.043575286806327,0.316790915596222,1168,0,7.299995313717851,6.4628913167375055,88.53281459773962,0.17245383185211788,0.15267823122033314,0.091796875,,
2.4719299999999347,1140,,,,-0.0625,0.064453125,-0.962890625,0.05285990116828249,1.118829461165515,23.043680555411868,0.3168142306021959,1168,0,7.300565925405593,6.46313023572508,88.52916748869728,0.17310953367165077,0.15325242900307853,0.091796875,,
2.479619999999879,1140,,,,-0.0625,0.091796875,-1.01953125,0.05285990116828249,1.118829461165515,23.04358976949765,0.31893884403190076,1168,0,7.349495883428915,6.463337142385446,87.94259150424844,0.1731039920273422,0.15223213658615234,0.091796875,,
2.488935000000056,1140,,,,-0.125,0.0234375,-0.9453125,0.05285990116828249,1.118829461165515,23.04360846884617,0.31944841562974235,1168,0,7.361244215765022,6.463405989904251,87.80317294815544,0.1731021481418792,0.15198917850998642,0.091796875,,
2.4968349999999626,1140,,,,-0.03125,-0.009765625,-0.96484375,0.05285990116828249,1.118829461165515,23.043553149409288,0.31803222710989126,1168,0,7.328592528631785,6.463438858416667,88.19481821597962,0.17310126786587907,0.15266634852386796,0.091796875,,
2.5062700000000184,1140,,,,-0.09375,0.064453125,-0.966796875,0.05285990116828249,1.118829461165515,23.043862291084793,0.3170542490705669,1167,0,7.306154454385442,6.461445356259639,88.43838980684599,0.17315467352542557,0.15313520514118742,0.091796875,,
2.5149499999999536,1140,,,,-0.09375,0.05078125,-0.9453125,0.05285990116828249,1.118829461165515,23.04394513943849,0.31656849781963464,1167,0,7.2949870966301145,6.458638946604334,88.53530323018491,0.17322991274403812,0.15336962853331887,0.091796875,,
2.5234199999999256,1140,,,,0,0.0078125,-1.09375,0.05285990116828249,1.118829461165515,23.04394797647202,0.31726137810655297,1167,0,7.310954692031226,6.45770058888737,88.32910147735036,0.1732550844941363,0.15303465939749478,0.09375,,
2.531284999999916,1140,,,,-0.0625,0.03125,-0.94921875,0.05285990116828249,1.118829461165515,23.044140903870655,0.31539313177255685,1167,0,7.267963768679845,6.457355884878241,88.84683647853623,0.17326433312829737,0.15393987873012463,0.091796875,,
2.5393299999998415,1140,,,,-0.03125,0.00390625,-0.94921875,0.05285990116828249,1.118829461165515,23.044134028410152,0.31547707155561855,1167,0,7.269895919818014,6.457214414408123,88.82127730062146,0.1732681291593859,0.15389896547425708,0.091796875,,
2.547064999999944,1140,,,,0,0.03515625,-0.9921875,0.05285990116828249,1.118829461165515,23.044127505869902,0.3219270423236327,1167,0,7.418527810893368,6.458009299613191,87.05243768352865,0.17324680242137905,0.150815564716577,0.091796875,,
2.555154999999795,1140,,,,-0.03125,0.0625,-1.00390625,0.05276273440449983,1.118829461165515,23.04372993930643,0.3280614583399857,1167,0,7.5597596494816575,6.446451742367628,85.27323673325562,0.17355740892502136,0.147998020180738,0.091796875,,
2.564020000000019,1140,,,,-0.0625,0.01171875,-0.9453125,0.05276273440449983,1.118829461165515,23.04337927261539,0.3346021167829006,1167,0,7.710363482448325,6.446583224975488,83.60932969827331,0.1735538690993583,0.14510722661939215,0.091796875,,
2.572339999999851,1140,,,,-0.03125,0.046875,-0.923828125,0.05276273440449983,1.118829461165515,23.04366702036601,0.33239463719465295,1167,0,7.659591338868949,6.446627435450331,84.16411725174714,0.1735526788802801,0.14606908014634715,0.091796875,,
2.581249999999767,1140,,,,-0.03125,0.025390625,-0.970703125,0.05276273440449983,1.118829461165515,23.043685821854243,0.3300653680113497,1170,0,7.605922641128243,6.462538832666406,84.96719119546252,0.17312537535714773,0.14709976868756988,0.091796875,,
2.589269999999786,1140,,,,-0.03125,0.072265625,-1.0234375,0.05276273440449983,1.118829461165515,23.043993091717645,0.32816665942547296,1172,0,7.562270232732656,6.475103014619227,85.62379834817703,0.1727894457647186,0.14794888660851538,0.091796875,,
2.605189999999944,1140,,,,-0.09375,0.037109375,-0.9609375,0.05276273440449983,1.118829461165515,23.044251879244136,0.32601701993688903,1173,0,7.512818324346228,6.482176694603115,86.2815579287577,0.17260088915765318,0.1489227361641114,0.091796875,,
2.6124799999999815,1140,,,,-0.0625,0.037109375,-0.98046875,0.05276273440449983,1.1261179896370463,23.044415848858616,0.32505702608460607,1173,0,7.490749283686945,6.482854807216681,86.54481096216614,0.1737071125491593,0.15033449218350708,0.091796875,,
2.619929999999935,1140,,,,-0.0625,0.015625,-1.0390625,0.05276273440449983,1.1261179896370463,23.044310163802628,0.3269862252665553,1173,0,7.535171994333536,6.480325802381819,86.00103364933193,0.17377490329624257,0.1494482130578956,0.091796875,,
2.6282699999997856,1140,,,,-0.0625,0.05859375,-0.95703125,0.05276273440449983,1.1261179896370463,23.04409792538465,0.33163285990840674,1173,0,7.642180099004695,6.47915892908218,84.781552451584,0.17380619953345844,0.14735559422156383,0.091796875,,
2.6363949999997858,1140,,,,-0.0625,0.00390625,-0.94140625,0.05276273440449983,1.1261179896370463,23.04402811725592,0.3358009517114873,1173,0,7.738206573040811,6.478702496483243,83.72356611743136,0.17381844439505034,0.14552700021738063,0.091796875,,
2.646435000000056,1140,,,,-0.03125,-0.03125,-0.927734375,0.05276273440449983,1.1261179896370463,23.0438326563122,0.33805346982121104,1173,0,7.790047587445674,6.4785225501498,83.1640946660004,0.17382327234640985,0.14455855076570798,0.091796875,,
2.657429999999935,1140,,,,0.03125,0.015625,-1.005859375,0.05276273440449983,1.1261179896370463,23.04391699657419,0.33231644344568856,1173,0,7.657872539359188,6.480820943844937,84.62952224048448,0.17376162671282566,0.1470536345243584,0.091796875,,
2.6660100000000093,1140,,,,-0.03125,0.060546875,-0.990234375,0.05276273440449983,1.1261179896370463,23.04386040568936,0.3298679952638681,1173,0,7.6014320351651765,6.482546872902688,85.28060032522312,0.17371536399439944,0.14814550527157033,0.091796875,,
2.676010000000009,1140,,,,-0.03125,0.0703125,-0.9609375,0.05276273440449983,1.1261179896370463,23.043867315964288,0.3279568821996201,1173,0,7.5573948787653755,6.483046242996045,85.78414052720714,0.1737019832079167,0.14900875337362499,0.091796875,,
2.6845399999998043,1140,,,,-0.03125,0.0625,-0.978515625,0.05276273440449983,1.1261179896370463,23.04394167210976,0.32660302928221274,1173,0,7.5262211567136665,6.483270930975553,86.14244513918165,0.17369596329172637,0.1496259498875485,0.091796875,,
2.691944999999832,1140,,,,-0.03125,0.01953125,-0.994140625,0.05276273440449983,1.1261179896370463,23.043944263316487,0.32618592313408035,1173,0,7.5166102321801835,6.480497866471219,86.21569652137676,0.17377028938831263,0.14981726534334575,0.091796875,,
2.7000399999998046,1140,,,,-0.0625,0.01953125,-0.935546875,0.05124327350686352,1.1261179896370463,23.04375263664951,0.32542788588721,1173,0,7.499079703452672,6.292646989012971,83.91225640815307,0.17895775682368018,0.15016749176816552,0.091796875,,
2.7073249999999534,1140,,,,0,0.03515625,-0.94921875,0.05124327350686352,1.1261179896370463,23.0437634249112,0.32478311607544363,1173,0,7.484225291247998,6.29218898069525,84.07268268705504,0.17897078315543805,0.15046553862480877,0.08984375,,
2.715379999999888,1140,,,,-0.0625,0.03125,-0.9609375,0.05124327350686352,1.1261179896370463,23.04377504375039,0.32291776617476203,1173,0,7.441244361361605,6.2919769111001775,84.55543999832935,0.1789768153233957,0.1513346336916946,0.08984375,,
2.7309199999999256,1140,,,,-0.09375,0.04296875,-0.96875,0.05124327350686352,1.1261179896370463,23.043474184247124,0.3192602434607651,1171,0,7.356865178244592,6.282994739395885,85.40315184755171,0.17923268064765616,0.15307035841395522,0.091796875,,0.24747999999998138,2614,
2.747494999999879,1140,,,,-0.0625,0.00390625,-1.001953125,0.05124327350686352,1.1261179896370463,23.04345991513816,0.32271889111473606,1170,0,7.436559831260257,6.279988326697538,84.44749278152828,0.17931848453438748,0.15142996428312278,0.091796875,,
2.76835999999987,1350,,,,0,-0.0078125,-0.96484375,0.05124327350686352,1.1335610762510429,23.043226141864153,0.3327902139302206,1170,0,7.668560157393424,6.27579735104022,81.83801420648163,0.18062423192539098,0.14781928458344978,0.091796875,,
2.776839999999851,1350,,,,0,0.03515625,-0.990234375,0.05124327350686352,1.1335610762510429,23.043267492837746,0.3293458345194501,1169,0,7.589204162483564,6.2746524777378365,82.67866226021331,0.18065718862883048,0.14936494683522725,0.091796875,,
2.792695000000065,1350,,,,-0.0625,-0.302734375,-1.28125,0.05124327350686352,1.1335610762510429,23.019917194791233,1.1830119666586305,1169,0,27.232837512928803,6.274094580600905,23.03871044514651,0.18067325279984467,0.04162478756438378,0.099609375,,
2.801619999999879,1350,,,,-0.34375,0.060546875,-0.501953125,0.05124327350686352,1.1335610762510429,23.001558684951284,1.9522124238865208,1185,0,44.9039286335168,6.357173112204444,14.157276001591047,0.17831212965946175,0.02524414034020489,0.109375,,
2.821714999999851,1350,,,,0,-0.00390625,-0.703125,0.05124327350686352,1.1335610762510429,22.955144426887006,3.928431864458444,1195,0,90.1777208198286,6.415021549757526,7.1137543635356195,0.17670417276990893,0.012570300800968917,0.123046875,,
2.841405000000028,1350,,,,-0.25,0.048828125,-1.03125,0.05124327350686352,1.1335610762510429,22.924204794594964,4.753997194823833,1405,0,108.98160528707152,7.541879685867138,6.920323540840548,0.15030219566817582,0.010401398229224994,0.1328125,,
2.8502599999997766,1350,,,,-0.28125,0.21875,-1.095703125,0.05237378054916702,1.1335610762510429,22.916029311786996,4.96895228889447,1433,0,113.86865630117676,7.858832426198487,6.901664322280468,0.14424039281867912,0.009954987729483975,0.13671875,,
2.858380000000121,1350,,,,-0.3125,-0.177734375,-0.97265625,0.05237378054916702,1.1335610762510429,22.910583882099143,5.153084620158207,1622,0,118.0601774416896,8.895556890098527,7.534764967206726,0.12743002942432843,0.009601553214765524,0.142578125,,
2.865854999999981,1350,,,,0.375,-0.0234375,-0.9765625,0.05237378054916702,1.1335610762510429,22.904806670050736,5.233021630985871,1695,0,119.86134875792494,9.295735244631086,7.755406843789979,0.12194420843749297,0.009457269486766846,0.14453125,,
2.8738000000000468,1350,,,,-0.09375,0.244140625,-0.96875,0.05237378054916702,1.1335610762510429,22.901251275504983,5.298806015814023,1819,0,121.34928802831436,9.974670586775877,8.219801491087853,0.11364396111024304,0.009341308009871057,0.146484375,,
2.880399999999907,1350,,,,-0.375,-0.19921875,-0.96484375,0.05237378054916702,1.1335610762510429,22.89914270186033,5.339725706300654,1908,0,122.27514093737062,10.464878732056322,8.558467937008093,0.10832051715789935,0.009270576730160166,0.1484375,,
2.888274999999907,1350,,,,0,-0.1015625,-0.9921875,0.05237378054916702,1.1335610762510429,22.897738457060115,5.355439663270239,1948,0,122.62745673212802,10.686405642472351,8.714529296498528,0.10607505593328648,0.009243941825583447,0.1484375,,
2.8962349999998698,1350,,,,-0.03125,-0.046875,-1.001953125,0.05237378054916702,1.1335610762510429,22.89657144716619,5.34267288446582,2064,0,122.3288914180091,11.318636677052138,9.25262752392263,0.10014996581251435,0.009266503301967809,0.150390625,,
2.905629999999888,1350,,,,-0.21875,0.41796875,-1.029296875,0.05237378054916702,1.1335610762510429,22.896098440990972,5.31740700404579,2108,0,121.74787421544728,11.56371902219879,9.498087007035062,0.0980273797793732,0.009310725822161563,0.15625,,
2.914144999999786,1350,,,,0.28125,-0.166015625,-1.0078125,0.05237378054916702,1.141249100463902,22.896254285336674,5.274638104120429,2155,0,120.76945529506749,11.819639501368956,9.78694444923252,0.09655532221026895,0.00944981574749649,0.16015625,,
2.920839999999851,1350,,,,0.25,-0.0703125,-0.91015625,0.05237378054916702,1.141249100463902,22.89668273249131,5.231262675530954,2213,0,119.77856177195588,12.13710676408031,10.132954165193532,0.09402974882295849,0.009527991349876988,0.162109375,,
2.9333950000000186,1350,,,,-0.125,0.373046875,-0.91796875,0.05237378054916702,1.141249100463902,22.897944985438258,5.150803886660272,2289,0,117.94282402752847,12.556067096769032,10.645893211644974,0.09089224290284113,0.009676291117105426,0.16796875,,
2.9425699999998325,1350,,,,-0.0625,-0.33203125,-0.953125,0.05237378054916702,1.141249100463902,22.898932583099043,5.084049279666695,2328,0,116.41930170424091,12.767678768822904,10.966977624774573,0.08938579370047213,0.00980291999485794,0.169921875,,
2.9533900000001303,1350,,,,-0.15625,0.185546875,-1.0234375,0.05237378054916702,1.141249100463902,22.89978856536178,5.0236825643671095,2361,0,115.04126854350129,12.947766617903781,11.254888599396624,0.08814254489927377,0.009920345237086414,0.171875,,
2.969875,1350,,,,-0.125,-0.00390625,-0.99609375,0.05237378054916702,1.141249100463902,22.90287767643205,4.882664836008114,2441,0,111.82707547410999,13.38658431199712,11.970789949788466,0.08525319632440587,0.010205481057475407,0.169921875,,
2.976625,1350,,,,-0.09375,0.185546875,-0.990234375,0.05237378054916702,1.141249100463902,22.904537577179145,4.80824519337491,2464,0,110.13063271194663,13.514300559479118,12.271154924558177,0.08444751509270039,0.010362685406964913,0.169921875,,
2.985219999999972,1350,,,,-0.0625,-0.08984375,-0.87890625,0.05237378054916702,1.141249100463902,22.90660571199673,4.729063496711317,2497,0,108.3267929061627,13.697178458065062,12.644312723196876,0.08332001396914858,0.01053524312727047,0.169921875,,
2.9933899999998976,1350,,,,-0.09375,0.05078125,-0.9765625,0.05237378054916702,1.141249100463902,22.908716589765426,4.646239230027886,2510,0,106.43937772895877,13.767949563855545,12.9350150833414,0.08289172582822198,0.010722057238722512,0.169921875,,
3.0015949999997393,1350,,,,0.0625,0.16015625,-1.013671875,0.17574930188143212,1.141249100463902,22.910633867805878,4.566135583644695,2529,0,104.61306054764371,46.54231240047061,44.48996344894616,0.0245206789607721,0.01090924110708094,0.169921875,,
3.010964999999851,1350,,,,0.1875,-0.1015625,-0.9765625,0.17574930188143212,1.141249100463902,22.912831997894138,4.477848497275103,2544,0,102.60019033008716,46.81812154130103,45.631612758881765,0.024376225762435574,0.011123264945145376,0.169921875,,
3.0188049999999347,1350,,,,-0.15625,0.111328125,-1.01953125,0.17574930188143212,1.141249100463902,22.915170217178908,4.391304915446335,2563,0,100.6274996129872,47.176076300530454,46.88189260586756,0.024191267904386315,0.0113413242389321,0.171875,,
3.026299999999814,1350,,,,-0.09375,0.013671875,-0.966796875,0.17574930188143212,1.141249100463902,22.916874691185846,4.323065376992071,2574,0,99.07114752633139,47.369511846550104,47.81362993091416,0.024092481766772072,0.011519490073137368,0.171875,,
3.0345699999998326,1350,,,,-0.0625,0.03125,-1.01171875,0.17574930188143212,1.141249100463902,22.918813425113715,4.257692368485262,2591,0,97.58125701484424,47.6833222656421,48.86524699962455,0.023933925872573304,0.01169537199433999,0.171875,,
3.0435449999999253,1350,,,,0.03125,0.16796875,-0.947265625,0.17574930188143212,1.141249100463902,22.920845328547763,4.1864505366730205,2598,0,95.95698522669808,47.81227999894624,49.82678424711851,0.0238693720627641,0.01189334051885545,0.171875,,
3.0515349999999164,1350,,,,-0.03125,-0.060546875,-0.88671875,0.17574930188143212,1.141249100463902,22.922952678616493,4.116294949863701,2610,0,94.35763434695367,48.040072088881075,50.91275594324186,0.023756190422704326,0.012094931251323252,0.171875,,
3.060404999999795,1350,,,,0.25,-0.0234375,-0.9921875,0.17574930188143212,2.6486021244380726,22.92508623361098,4.037802682260463,2615,0,92.56697468512684,48.13627737721269,52.001567017774605,0.055022994480497536,0.028612819349962355,0.171875,,
3.069034999999916,1350,,,,-0.09375,0.259765625,-1.0859375,0.17574930188143212,2.6486021244380726,22.92701097303003,3.97162994394514,2629,0,91.05760330564486,48.38494714848134,53.13663592272678,0.05474020910491383,0.0290871056154174,0.173828125,,
3.077784999999916,1350,,,,-0.0625,0.03125,-0.927734375,0.17574930188143212,2.6486021244380726,22.92909579822375,3.8956411214870292,2635,0,89.3235284700759,48.48716748256389,54.282637859304316,0.05462480614877156,0.029651785703084667,0.173828125,,
3.085424999999814,1350,,,,-0.125,0.236328125,-0.94921875,0.17574930188143212,2.6486021244380726,22.93080971914304,3.8324141808225733,2641,0,87.88036034538787,48.602184537765396,55.30494452543074,0.05449553656132529,0.030138726264076775,0.173828125,,
3.093689999999944,1350,,,,-0.125,0.1484375,-1.01953125,0.17574930188143212,2.6486021244380726,22.93270373749149,3.768028775769289,2643,0,86.41108758905986,48.647490211331444,56.29774091339003,0.05444478457022506,0.03065118375819865,0.173828125,,
3.105969999999972,1350,,,,0.03125,-0.185546875,-0.935546875,0.17574930188143212,2.6486021244380726,22.934863778862397,3.698942291069643,2651,0,84.83473757155544,48.797990732170845,57.52123732452319,0.05427686846728999,0.031220726323389163,0.17578125,,
3.114489999999758,1350,,,,0.03125,0.044921875,-1.03125,0.17574930188143212,2.6486021244380726,22.937100452668545,3.6153674746675684,2657,0,82.92604693976062,48.89340256362251,58.96024755543912,0.054170951203315845,0.031939326932611145,0.17578125,,
3.1223799999998882,1350,,,,-0.1875,0.103515625,-0.947265625,0.17574930188143212,2.6486021244380726,22.938603403740153,3.565964789242213,2660,0,81.79825205212896,48.96137584101874,59.856261732605596,0.05409574545123655,0.03237969098349624,0.177734375,,
3.1310549999999346,1350,,,,0.0625,0.060546875,-0.966796875,0.17574930188143212,2.6486021244380726,22.940165969397654,3.5084791810631093,2664,0,80.48509471376408,49.02391426775308,60.910550508887326,0.05402673703230321,0.03290798294836478,0.177734375,,
3.1387949999999254,1350,,,,0.0625,0.18359375,-1.03515625,0.17574930188143212,2.6486021244380726,22.941714942031844,3.4590025915748397,2666,0,79.35545143965938,49.06311880664006,61.827030048397965,0.0539835662481289,0.03337643572542748,0.1796875,,
3.147840000000084,1350,,,,-0.08203125,-0.0859375,-0.96875,0.17574930188143212,2.6486021244380726,22.943165293086125,3.4113745884260327,2669,0,78.26773105889211,49.12170205283703,62.761116731332976,0.05391918467298106,0.03384028243319264,0.177734375,,
3.1558199999998324,1350,,,,0,0.234375,-1.05078125,0.22719077917662953,2.6486021244380726,22.944170309554476,3.3774820932432297,2671,0,77.49352436484321,63.54756138221396,82.00370534578994,0.04167905214344508,0.03417836711062885,0.1796875,,
3.1657549999998884,1350,,,,-0.125,0.044921875,-0.98046875,0.22719077917662953,2.6486021244380726,22.945443529211772,3.3282299594117877,2676,0,76.36771258591396,63.65385546514959,83.35179005595953,0.04160945327008792,0.03468222413311627,0.1796875,,
3.1735399999998046,1350,,,,0.03125,0.16015625,-0.9921875,0.22719077917662953,2.6486021244380726,22.945297762530835,3.3250921573210794,2677,0,76.29522963758819,63.68966907917197,83.47791779604806,0.04158605567797224,0.034715173373476446,0.181640625,,
3.181504999999888,1350,,,,0,0.1015625,-1.08984375,0.22719077917662953,2.6486021244380726,22.9455645169447,3.317327367735112,2684,0,76.11794914019234,63.858515550279,83.89416198361548,0.041476099179798435,0.03479602583038511,0.181640625,,
3.189409999999916,1350,,,,-0.0625,-0.021484375,-0.9453125,0.22719077917662953,2.6486021244380726,22.94627304774577,3.274383759770324,2687,0,75.13490381479424,63.924090443228835,85.0790873450776,0.041433551984447925,0.03525128788301658,0.181640625,,
3.1975400000000374,1350,,,,0.0625,-0.03125,-1.03125,0.22719077917662953,2.6486021244380726,22.947600163114892,3.2273722932724995,2697,0,74.0604489635325,64.15510746397173,86.62532885205952,0.041284353329553325,0.035762706836171755,0.181640625,,
3.2053949999997857,1350,,,,-0.03125,0.2578125,-1.04296875,0.22719077917662953,2.6486021244380726,22.94890448373821,3.179766905694313,2700,0,72.9721669993306,64.24659308592156,88.04259997720901,0.04122556539139605,0.03629605962588954,0.181640625,,
3.213619999999879,1350,,,,0.125,-0.181640625,-0.861328125,0.22719077917662953,4.44932423197743,22.950327098977994,3.1362780082460144,2703,0,71.97860616257724,64.31169544555407,89.34834789700427,0.06918374956766929,0.06181453725191334,0.18359375,,
3.222504999999888,1350,,,,-0.3125,0.421875,-1.03515625,0.22719077917662953,4.44932423197743,22.951612897554295,3.0867880051036054,2704,0,70.8467633899518,64.33926066328698,90.81467887128943,0.06915410879933045,0.06280208183241406,0.1875,,
3.230629999999888,1350,,,,-0.03125,0.068359375,-0.994140625,0.22719077917662953,4.44932423197743,22.95284902580915,3.050362533911725,2703,0,70.01451071486046,64.30939394054846,91.85152232578396,0.06918622551614555,0.06354860137632967,0.185546875,,
3.238844999999972,1350,,,,0.03125,-0.064453125,-0.98046875,0.22719077917662953,4.44932423197743,22.95397551319149,3.0146009367936992,2702,0,69.1970760852067,64.2908166492005,92.90973013084422,0.06920621737090286,0.06429930979307129,0.18359375,,
3.2472249999998604,1350,,,,-0.1875,0.26171875,-1.080078125,0.22719077917662953,4.44932423197743,22.955035032193912,2.979464287762575,2701,0,68.3937071027606,64.26916290613157,93.96940980193988,0.06922953451993608,0.06505458499701415,0.185546875,,
3.258005000000121,1350,,,,0,-0.11328125,-0.953125,0.22719077917662953,4.44932423197743,22.956003774867323,2.9488414542632477,1880,0,67.69361555555236,44.7388020108942,66.09013515340982,0.09945112591289303,0.06572738352741876,0.1875,,
3.2662899999998043,1350,,,,-0.03125,-0.046875,-0.931640625,0.22719077917662953,4.44932423197743,22.957078296054537,2.906979515363426,2455,0,66.73575633922484,58.40551090983537,87.51756796304824,0.07617987006133993,0.06667076955509502,0.189453125,,
3.2734749999998605,1350,,,,-0.125,0.146484375,-1.01953125,0.22719077917662953,4.44932423197743,22.957720798107594,2.8812657109047715,2592,0,66.14729373611273,61.67364528577978,93.23683827764735,0.07214303956512394,0.06726388912791374,0.19140625,,
3.281155000000028,1350,,,,0.03125,-0.017578125,-0.92578125,0.22719077917662953,4.44932423197743,22.95841299445582,2.850206271266319,2656,0,65.43621269512013,63.18002971700433,96.55208807907665,0.07042295250424574,0.06799483112978566,0.19140625,,
3.288719999999972,1350,,,,-0.0625,0.26953125,-1.046875,0.22719077917662953,4.44932423197743,22.95901304976628,2.829781860986393,2679,0,64.96899867437851,63.73062635465112,98.09390271514873,0.06981453794628702,0.06848380493406138,0.19140625,,
3.2977399999997576,1350,,,,0,0.21484375,-1.08984375,0.22719077917662953,4.44932423197743,22.959796770486577,2.8018905058738306,2690,0,64.33083658801898,63.99515213564524,99.47819044461757,0.0695259575685759,0.06916316447851192,0.19140625,,
3.3058249999999534,1350,,,,-0.0625,-0.06640625,-0.9453125,0.20676047843520787,4.44932423197743,22.960886454346152,2.778356440849268,2693,0,63.79352676804134,58.310399835954705,91.40488508806897,0.07630412832864744,0.06974570081625288,0.19140625,,
3.3135149999998976,1350,,,,0.0625,0.2421875,-1.12109375,0.20676047843520787,4.44932423197743,22.96161565330823,2.760849037380779,2694,0,63.393554473143446,58.331934551325304,92.01556062933419,0.07627595872141946,0.07018575104291364,0.193359375,,
3.321994999999879,1350,,,,-0.21875,-0.029296875,-0.908203125,0.20676047843520787,4.44932423197743,22.96203241163376,2.740671955491656,2695,0,62.931398271655084,58.34663578006526,92.71466610069771,0.07625673995582087,0.07070118182931666,0.193359375,,
3.3297299999999814,1350,,,,0,-0.078125,-1.01953125,0.20676047843520787,4.44932423197743,22.96251896876757,2.72206636896019,2695,0,62.505500631492616,58.35527014084035,93.36021558307266,0.07624545685829222,0.07118292289520026,0.193359375,,
3.338954999999842,1350,,,,0.03125,0.23828125,-1.0078125,0.20676047843520787,4.44932423197743,22.962895666195095,2.7039329238004695,2694,0,62.09012961762003,58.33060077766325,93.94504591452827,0.07627770282937367,0.07165912294560252,0.193359375,,
3.348529999999795,1350,,,,0,-0.185546875,-0.91796875,0.20676047843520787,4.44932423197743,22.963465144949943,2.6851179649911296,2694,0,61.659612799152725,58.32185276797131,94.58679696537556,0.07628914413399555,0.07215945786864508,0.1953125,,
3.3584499999999533,1350,,,,-0.25,0.17578125,-0.9609375,0.20676047843520787,4.44932423197743,22.963717626568318,2.666750187302631,2694,0,61.238498281815794,58.32813423886212,95.24749279520155,0.07628092840680975,0.07265567178838897,0.1953125,,
3.3676450000000187,1350,,,,-0.041015625,0.048828125,-0.955078125,0.20676047843520787,5.45614798993457,22.964529249982196,2.6504427304167413,2694,0,60.86616960805793,58.32713185975029,95.82849099153513,0.09354391028610969,0.08964171764165432,0.1953125,,
3.3775849999999625,1350,,,,-0.03125,0.080078125,-1.01953125,0.20676047843520787,5.45614798993457,22.964750582129057,2.6303412832316613,2694,0,60.40513151529238,58.32012146002659,96.54828985060989,0.09355515477920068,0.09032590200640939,0.1953125,,
3.3855749999999536,1350,,,,-0.0625,0.0234375,-0.982421875,0.20676047843520787,5.45614798993457,22.965150811742284,2.6201288589677674,2693,0,60.17165439239301,58.31823536366713,96.91978050555281,0.09355818048866767,0.09067638317460563,0.1953125,,
3.3937849999999163,1350,,,,0.25,-0.16796875,-0.83984375,0.20676047843520787,5.45614798993457,22.965419688673997,2.6086868498382896,2693,0,59.9095883428612,58.31744085992541,97.34241625259723,0.09355945510434645,0.09107303423133474,0.1953125,,
3.4015049999998883,1350,,,,-0.1875,0.21484375,-1.109375,0.20676047843520787,5.45614798993457,22.965744274032282,2.596384647995931,2694,0,59.627905862897876,58.33493980234444,97.83160914031367,0.09353138973694959,0.09150326363095598,0.197265625,,
3.411125,1350,,,,0.03125,-0.083984375,-0.900390625,0.20676047843520787,5.45614798993457,22.96614066291234,2.5879172919983855,2695,0,59.434472552018114,58.34171385508696,98.16140591476646,0.0935205298131439,0.09180106688352037,0.197265625,,
3.4188900000001303,1350,,,,-0.0625,0.1796875,-1.017578125,0.20676047843520787,5.45614798993457,22.96657866481482,2.5737225174886795,2693,0,59.10960065930899,58.305317947536786,98.63933658356471,0.09357890809966976,0.09230561413165797,0.197265625,,
3.4268049999999346,1350,,,,-0.0625,0.16796875,-1.1171875,0.20676047843520787,5.45614798993457,22.966763629668428,2.565593478823703,2692,0,58.92337899796272,58.29506471107252,98.93367573690584,0.09359536724038038,0.09259733713036411,0.197265625,,
3.434659999999916,1350,,,,0.0625,-0.162109375,-0.921875,0.20676047843520787,5.45614798993457,22.967014902198947,2.5598539385654937,2694,0,58.79220355448636,58.334493920298264,99.22147902865402,0.09353210464788195,0.0928039375982569,0.197265625,,
3.4429799999999813,1350,,,,-0.25,0.1015625,-1.03515625,0.20676047843520787,5.45614798993457,22.967260080791384,2.552016797626218,2695,0,58.6128335216297,58.35052106551483,99.55246583324099,0.09350641417252321,0.09308794102099,0.19921875,,
3.450739999999991,1350,,,,-0.03125,0.142578125,-0.974609375,0.19059539980862397,5.45614798993457,22.96736143424667,2.543872892666575,2694,0,58.426048168655804,53.76981055371639,92.03054500366264,0.10147233054659628,0.0933855388299506,0.19921875,,
3.458844999999972,1350,,,,-0.03125,-0.173828125,-0.955078125,0.19059539980862397,5.45614798993457,22.96768794086767,2.5352210737725858,2694,0,58.228166483520205,53.76237629487127,92.33053269861614,0.10148636213565336,0.09370289877629541,0.19921875,,
3.4660149999998975,1350,,,,-0.0625,0.3984375,-1,0.19059539980862397,5.45614798993457,22.967829675349332,2.525401029903368,2696,0,58.002980716772335,53.7998192921525,92.7535423651005,0.10141573079094768,0.09406668282405792,0.201171875,,
3.474789999999804,1350,,,,-0.03125,0.048828125,-1.001953125,0.19059539980862397,5.45614798993457,22.968035077534992,2.5138024579034934,2696,0,57.737103031121116,53.81522596531266,93.20735391989705,0.10138669664699365,0.09449985717145576,0.19921875,,
3.4835349999999163,1350,,,,-0.0625,-0.056640625,-0.958984375,0.19059539980862397,5.45614798993457,22.968406086034296,2.5039397858856827,2694,0,57.511505817200124,53.777915872050016,93.5080991323418,0.10145703680514502,0.0948705465524915,0.201171875,,
3.492314999999944,1350,,,,0.0625,0.15625,-1.09765625,0.19059539980862397,5.45614798993457,22.96858277707457,2.495117395230908,2694,0,57.3093104308798,53.765567430543946,93.81646197852977,0.10148033863834868,0.09520526331432966,0.201171875,,
3.500739999999758,1350,,,,-0.09375,0.041015625,-0.896484375,0.19059539980862397,5.45614798993457,22.968697639762556,2.4885837462064413,2694,0,57.15952761784335,53.76910287663206,94.06848712277862,0.10147366606530832,0.09545474249565593,0.201171875,,
3.5089950000001116,1350,,,,-0.03125,-0.015625,-0.955078125,0.19059539980862397,5.846720477597024,22.968762893676022,2.4831938259827075,2694,0,57.035890208037,53.77030700950029,94.27451173879187,0.10873511428089871,0.10250949807693463,0.201171875,,
3.5169250000000467,1350,,,,-0.0625,0.21875,-1.078125,0.19059539980862397,5.846720477597024,22.968987135952126,2.4760532317288706,2694,0,56.87243482751312,53.77076948519716,94.54627650157248,0.10873417906371229,0.10280411758929235,0.201171875,,
3.524489999999991,1350,,,,0.03125,-0.140625,-0.890625,0.19059539980862397,5.846720477597024,22.969129137979323,2.4709586310644194,2694,0,56.755767891523256,53.770948059675455,94.74094009695604,0.10873381795515831,0.10301544133402975,0.201171875,,
3.5325449999999257,1350,,,,-0.0625,0.140625,-1.033203125,0.19059539980862397,5.846720477597024,22.969372957536496,2.467430766187653,2693,0,56.675337515464236,53.7544899734942,94.8463517466075,0.10876710913785961,0.10316163491751078,0.203125,,
3.5407299999997486,1350,,,,-0.25,0.02734375,-0.97265625,0.19059539980862397,5.846720477597024,22.96950479733603,2.460693797717986,2693,0,56.52091799145829,53.7480872455045,95.094151254987,0.1087800659936237,0.1034434804912512,0.203125,,
3.5485449999999257,1350,,,,0.0625,-0.078125,-0.904296875,0.19059539980862397,5.846720477597024,22.969823620010587,2.457419498236559,2694,0,56.446492434868674,53.77019177020859,95.25869447468652,0.1087353473200072,0.1035798722895549,0.203125,,
3.555694999999832,1350,,,,-0.1875,0.328125,-1.05859375,0.19059539980862397,5.846720477597024,22.969914247393994,2.45368880241551,2694,0,56.36102138127514,53.77814482896026,95.41726446928269,0.1087192668358557,0.10373695036583358,0.203125,,
3.565549999999814,1350,,,,-0.03125,0.0078125,-1.01953125,0.19059539980862397,5.846720477597024,22.97001726145504,2.4491368032511303,2694,0,56.25671464634328,53.765633528905326,95.57193993090765,0.1087445658843344,0.10392929118510237,0.203125,,
3.576034999999916,1350,,,,-0.03125,0.02734375,-0.884765625,0.19059539980862397,5.846720477597024,22.970157853692204,2.4418342542788,2694,0,56.08931827333682,53.75984627460865,95.84685271556324,0.10875627225069825,0.10423946408306374,0.203125,,
3.5885499999998136,1350,,,,-0.125,0.189453125,-1.01171875,0.19059539980862397,5.846720477597024,22.97053383152297,2.431796491104427,2693,0,55.859663570293094,53.758148480277434,96.2378665468131,0.10875970700036376,0.104668021679715,0.203125,,
3.595405000000028,1350,,,,0.09375,-0.19921875,-0.939453125,0.19059539980862397,5.846720477597024,22.970644070267184,2.427196407526068,2693,0,55.75426476591248,53.75780330934992,96.41917714287001,0.10876040533040388,0.10486588787682556,0.205078125,,
3.6039450000000652,1350,,,,0,0.298828125,-1.01171875,0.1823390597872859,5.846720477597024,22.97091146243656,2.4235887408392216,2693,0,55.672042387175864,51.428937728713905,92.37839231951841,0.11368542178409942,0.10502076494581461,0.20703125,,
3.6118599999998695,1350,,,,-0.15625,-0.1640625,-0.96484375,0.1823390597872859,5.846720477597024,22.97106298008061,2.4208570178901803,2692,0,55.60965902372546,51.397599435590585,92.42566909763315,0.11375473838858757,0.10513857808591423,0.20703125,,
3.619994999999879,1350,,,,-0.0625,0.1171875,-0.9609375,0.1823390597872859,5.846720477597024,22.971239898811998,2.4191107078281124,2691,0,55.56997241130447,51.38523678732852,92.46943008536628,0.1137821063624798,0.10521366529251037,0.205078125,,
3.629179999999935,1350,,,,0.0625,0.20703125,-1.005859375,0.1823390597872859,5.846720477597024,22.971355382023877,2.41724548252082,2690,0,55.52740502457754,51.371781246310384,92.51608502787445,0.11381190871237205,0.10529432223618497,0.205078125,,
3.637659999999916,1350,,,,-0.09375,-0.16796875,-0.8984375,0.1823390597872859,5.846720477597024,22.97153601398062,2.415027771902352,2691,0,55.47689743701826,51.375236122632174,92.60654163466403,0.11380425510144539,0.10539018488253929,0.20703125,,
3.6456799999999348,1350,,,,-0.03125,0.171875,-1.05859375,0.1823390597872859,5.846720477597024,22.971459964527877,2.413982359964278,2691,0,55.45269913699593,51.39213930043654,92.67743518394339,0.11376682421055316,0.10543617476856622,0.20703125,,
3.654030000000028,1350,,,,-0.125,0.1171875,-0.921875,0.1823390597872859,5.846720477597024,22.971486581314018,2.4123583735475482,2692,0,55.415458007268015,51.40654901512227,92.76572072792405,0.11373493435393014,0.1055070315728546,0.205078125,,
3.6625249999999068,1350,,,,-0.0625,-0.083984375,-0.91796875,0.1823390597872859,5.956809842567499,22.971624066808992,2.4106400155799736,2693,0,55.37631619830973,51.42081107887701,92.85704541041056,0.1158443384611348,0.10756962997024568,0.20703125,,
3.670239999999991,1350,,,,0.0625,0.2890625,-1.08203125,0.1823390597872859,5.956809842567499,22.97164048660878,2.4106682935436896,2693,0,55.37700537175232,51.41804294328934,92.85089108396889,0.11585057504303423,0.10756829125335934,0.20703125,,
3.690714999999851,1350,,,,-0.125,0.12890625,-0.990234375,0.1823390597872859,5.956809842567499,22.971918909265042,2.405216936704975,2692,0,55.25244842917756,51.398747190113525,93.0252842206555,0.11589406684436235,0.10781078507684452,0.20703125,,
3.6992249999998603,1350,,,,0,-0.04296875,-0.9375,0.1823390597872859,5.956809842567499,22.971678391297154,2.401860066202197,2692,0,55.17475698169656,51.397261689381665,93.15358055212091,0.11589741645318308,0.10796259319354293,0.20703125,,
3.7079749999998604,1350,,,,-0.25,0.046875,-0.9921875,0.1823390597872859,5.956809842567499,22.971563911658173,2.398081560871822,2692,0,55.087683840936045,51.40853482714001,93.32128570803691,0.11587200184944255,0.1081332419015401,0.20703125,,
3.7185699999998323,1350,,,,0,0.181640625,-1.046875,0.1823390597872859,5.956809842567499,22.971585515919614,2.397234243879145,2692,0,55.06827143496067,51.399956909759005,93.33860600739176,0.11589133922866217,0.10817136051933082,0.208984375,,
3.727769999999786,1350,,,,0,-0.205078125,-0.794921875,0.1823390597872859,5.956809842567499,22.971543213586415,2.3969953247394438,2690,0,55.062681685016734,51.364940380639126,93.28448744009536,0.11597034472199613,0.10818234165642579,0.208984375,,
3.735744999999879,1350,,,,-0.1875,0.32421875,-1.1015625,0.1823390597872859,5.956809842567499,22.971826739471553,2.3919584274639276,2691,0,54.94765456372018,51.380153269189925,93.5074548261324,0.11593600765180075,0.10840880998222899,0.2109375,,
3.744219999999972,1350,,,,0,0.048828125,-0.98046875,0.1823390597872859,5.956809842567499,22.971735794296293,2.3917322924125686,2691,0,54.94224231198813,51.386217503804076,93.52770353275488,0.11592232571168565,0.10841948911989985,0.2109375,,
3.75209999999986,1350,,,,-0.125,-0.134765625,-0.92578125,0.17935552033788132,5.956809842567499,22.971684042346777,2.3899463461788546,2690,0,54.90109234258178,50.5247974439236,92.02876534523179,0.11789873772732756,0.10850075268807254,0.2109375,,
3.760104999999981,1350,,,,-0.09375,0.267578125,-1.0859375,0.17935552033788132,5.956809842567499,22.971502067033935,2.3911079966125044,2690,0,54.927342286685516,50.51649801219244,91.96967468137946,0.11791810748895912,0.10844889984803506,0.212890625,,
3.7674849999998696,1350,,,,0,-0.11328125,-0.86328125,0.17935552033788132,5.956809842567499,22.971526332796167,2.3912448677657134,2691,0,54.930544448043776,50.53619178038711,92.0001654601966,0.11787215523587023,0.1084425778485004,0.212890625,,
3.7758599999998697,1350,,,,-0.09375,0.037109375,-0.97265625,0.17935552033788132,5.956809842567499,22.971648453087983,2.391377344750368,2691,0,54.93387968228444,50.54410216517598,92.00897962696759,0.11785370770067093,0.10843599390793625,0.212890625,,
3.7837999999998138,1350,,,,0.125,0.12890625,-1.10546875,0.17935552033788132,5.956809842567499,22.9717296172416,2.3904559593923995,2692,0,54.91290796108607,50.56239603768616,92.07743300266871,0.11781106730242077,0.10847740656511547,0.21484375,,
3.791034999999916,1350,,,,-0.0625,-0.046875,-0.904296875,0.17935552033788132,5.956809842567499,22.97182926004112,2.389752108813285,2692,0,54.89697741748199,50.569351769961195,92.11682345530619,0.11779486258129011,0.10850888560342754,0.21484375,,
3.7988950000000186,1350,,,,-0.1875,-0.03515625,-0.89453125,0.17935552033788132,5.956809842567499,22.971837753779297,2.389103977809595,2691,0,54.882108955150755,50.54943896409725,92.10549653878255,0.11784126519778636,0.10853828243800469,0.21484375,,
3.807809999999823,1350,,,,-0.0625,0.28125,-1.10546875,0.17935552033788132,6.000026087229271,22.971942448430678,2.3880780609644034,2691,0,54.8587917788342,50.5416768412127,92.13049577353772,0.11871442465353126,0.10937218798800123,0.21484375,,
3.8271999999999533,1350,,,,-0.09375,0.224609375,-1.0078125,0.17935552033788132,6.000026087229271,22.971912599928718,2.3904103877385503,2692,0,54.9122985050917,50.56369815322546,92.08082620787943,0.11866272259293853,0.1092656153643418,0.216796875,,
3.836125,1350,,,,-0.09375,-0.1796875,-0.92578125,0.17935552033788132,6.000026087229271,22.971622833305453,2.3915642861925086,2691,0,54.93811276401769,50.53804850540635,91.99087111435469,0.11872294765373484,0.10921427375930999,0.21875,,
3.844019999999786,1350,,,,0.0625,0.095703125,-0.96875,0.17935552033788132,6.000026087229271,22.971544273385412,2.390417276740494,2691,0,54.911576304509644,50.53458649232304,92.02902173502684,0.11873108110107451,0.10926705243274022,0.21875,,
3.852,1350,,,,-0.15625,0.02734375,-1.01171875,0.17935552033788132,6.000026087229271,22.971500850918837,2.3897323110545337,2691,0,54.895737816857455,50.5434833629785,92.07178074844555,0.11871018157058998,0.1092985781017552,0.21875,,
3.860145000000019,1350,,,,0.1875,-0.171875,-0.86328125,0.17935552033788132,6.000026087229271,22.9713951758872,2.388877529460744,2691,0,54.87584975603987,50.550780192665506,92.11844630634019,0.11869304616785765,0.10933819000349754,0.21875,,
3.8706349999997767,1350,,,,-0.03125,0.1953125,-1.00390625,0.17935552033788132,6.000026087229271,22.971621920127237,2.388805794928515,2692,0,54.87474356170685,50.55753267975203,92.13260855223842,0.11867719347056355,0.10934039410101698,0.220703125,,
3.87875,1350,,,,-0.09375,-0.064453125,-0.900390625,0.17935552033788132,6.000026087229271,22.971580721608284,2.3882818837391007,2692,0,54.862610078267444,50.560587953857606,92.15855367020902,0.11867002204770621,0.1093645759592842,0.22265625,,
3.8870849999999626,1350,,,,-0.0625,-0.22265625,-0.89453125,0.17935552033788132,6.000026087229271,22.97150236261808,2.387270145177467,2692,0,54.83918178015178,50.56139602383811,92.19939901097875,0.11866812546869646,0.10941129849973237,0.22265625,,
3.8952099999999628,1350,,,,-0.03125,0.294921875,-1.060546875,0.17935552033788132,6.000026087229271,22.971592597205778,2.3865288643923703,2692,0,54.82236879429369,50.56685234833981,92.23762756052814,0.11865532079981761,0.10944485288008565,0.224609375,,
3.9029950000001117,1350,,,,-0.0625,-0.162109375,-0.921875,0.17809177008083643,6.000026087229271,22.97171015460109,2.38307935866711,2693,0,54.74340830271351,50.21521409622311,91.72832977177646,0.1194862193703274,0.10960271333584216,0.224609375,,
3.911129999999888,1350,,,,-0.3125,0.29296875,-1.05078125,0.17809177008083643,6.000026087229271,22.97182252593395,2.3804202148207025,2692,0,54.68259071200674,50.209427630528594,91.81976745572157,0.11949998975055243,0.10972461269856834,0.224609375,,
3.9195200000000185,1350,,,,0.125,0.1328125,-1.0390625,0.17809177008083643,6.000026087229271,22.971831291780973,2.376843076388333,2692,0,54.60043815783046,50.207145625014384,91.95374124999395,0.11950542124107363,0.10988970582773215,0.224609375,,
3.9272549999998883,1350,,,,-0.0625,-0.130859375,-0.85546875,0.17809177008083643,6.000026087229271,22.9721298833241,2.374707759007926,2692,0,54.55209507486759,50.200831379121205,92.02365428903384,0.11952045259801643,0.10998708810348719,0.224609375,,
3.934934999999823,1350,,,,-0.1875,0.3359375,-1.1015625,0.17809177008083643,6.000026087229271,22.97221203736802,2.3738374891598317,2692,0,54.532298143232964,50.19639636006581,92.04892892689284,0.11953101262868035,0.11002701686016926,0.2265625,,
3.9433900000001305,1350,,,,-0.03125,0.033203125,-0.95703125,0.17809177008083643,6.000026087229271,22.972397442629333,2.376729778256886,2691,0,54.59918107984947,50.1867473671349,91.91849836307703,0.11955399387286104,0.10989223590101899,0.224609375,,
3.9512999999998137,1350,,,,0.03125,-0.0234375,-0.94140625,0.17809177008083643,6.000026087229271,22.972448294549867,2.376250086513103,2691,0,54.58828224734191,50.182723241018685,91.92947858963313,0.11956358084459096,0.10991417645352694,0.2265625,,
3.9591749999998136,1350,,,,0.0625,0.25390625,-1.14453125,0.17809177008083643,6.059680289021647,22.972230423218065,2.377753891051834,2692,0,54.62231027494607,50.19657508024128,91.89756864470311,0.12071899884274971,0.11093782482871427,0.2265625,,
3.966344999999972,1350,,,,-0.09375,-0.087890625,-0.91796875,0.17809177008083643,6.059680289021647,22.97230662335494,2.3764900424754627,2692,0,54.59345794309613,50.20169304480209,91.95551067149536,0.12070669177658479,0.11099645483782641,0.2265625,,
3.9745449999999254,1350,,,,-0.125,-0.09375,-0.98046875,0.17809177008083643,6.059680289021647,22.97229297681329,2.375238292203413,2692,0,54.56466993824245,50.19672907497473,91.99492846156413,0.12071862849809994,0.11105501592660841,0.2265625,,
3.9834599999999627,1350,,,,-0.03125,0.234375,-1.02734375,0.17809177008083643,6.059680289021647,22.97249550944961,2.3734138026247336,2691,0,54.52323792286242,50.194369050084724,92.06050660655548,0.120724304413015,0.11113940623986182,0.2265625,,
3.991214999999851,1350,,,,0.0625,-0.166015625,-0.89453125,0.17809177008083643,6.059680289021647,22.9724712783056,2.3712244031629406,2691,0,54.472884496077995,50.1935643495253,92.14412787914546,0.12072623985865541,0.1112421408390433,0.2265625,,
3.9993200000000653,1350,,,,-0.3125,0.17578125,-0.98046875,0.17809177008083643,6.059680289021647,22.972513573358835,2.3695747882853633,2691,0,54.4350889869744,50.193247832504355,92.20752416610348,0.12072700115447586,0.11131937876452536,0.2265625,,
4.007260000000009,1350,,,,0.03125,0.10546875,-0.99609375,0.17809177008083643,6.059680289021647,22.972488348339432,2.385392594121092,2691,0,54.798403574661954,50.19312215628399,91.59595696596647,0.12072730343719008,0.11058132890250039,0.2265625,,
4.016020000000019,1350,,,,-0.03125,-0.0859375,-0.875,0.17809177008083643,6.059680289021647,22.971363502589202,2.4260160728922826,2691,0,55.728897073532565,50.19307007933453,90.06650537710502,0.12072742869571022,0.10873497605786249,0.2265625,,
4.0267749999999065,1350,,,,-0.125,0.296875,-1.08203125,0.17809177008083643,6.059680289021647,22.970425503128766,2.438751939665601,2699,0,56.01916975069947,50.33015033806111,89.84451315869899,0.12039861292524576,0.10817154763251349,0.2265625,,
4.044669999999925,1350,,,,-0.09375,0.15234375,-1.033203125,0.17809177008083643,6.059680289021647,22.971121263784465,2.419675002229764,2701,0,55.58264789516786,50.377113600451246,90.63460541762142,0.1202863732345191,0.10902107975227376,0.2265625,,
4.053290000000037,1350,,,,-0.1875,0.02734375,-0.94140625,0.1799264402064473,6.059680289021647,22.97116938784645,2.413047455167377,2703,0,55.43052183356163,50.9327014719919,91.88566116141735,0.11897425649715222,0.10932028219428885,0.2265625,,
4.061139999999898,1350,,,,0,-0.158203125,-0.89453125,0.1799264402064473,6.059680289021647,22.97121022864291,2.4089094266502133,2704,0,55.33556486134171,50.9451890300454,92.06590581970639,0.1189450938232439,0.10950787805646914,0.224609375,,
4.069369999999879,1350,,,,-0.0625,0.3203125,-1.08203125,0.1799264402064473,6.059680289021647,22.971248895326593,2.402663336896537,2703,0,55.192177523526276,50.934557558525874,92.28582716602268,0.11896992100223562,0.10979237567567687,0.2265625,,
4.077869999999879,1350,,,,-0.09375,0.03125,-0.966796875,0.1799264402064473,6.059680289021647,22.971289911629174,2.401715465104496,2703,0,55.17050223415868,50.930112928688416,92.31402808792116,0.11898030341119252,0.10983551071010209,0.2265625,,
4.086379999999888,1350,,,,-0.03125,-0.021484375,-0.95703125,0.1799264402064473,6.059680289021647,22.9714228803372,2.3959092512238658,2702,0,55.03744459277548,50.905277895874335,92.49208111409382,0.11903835003939264,0.11010104727531397,0.2265625,,
4.095119999999879,1350,,,,0.03125,0.166015625,-1.029296875,0.1799264402064473,6.059680289021647,22.971676429626523,2.3909923038139973,2701,0,54.92510154894242,50.894850808730205,92.6622789461373,0.11906273803208015,0.1103262464361948,0.2265625,,
4.103154999999795,1350,,,,-0.0625,-0.02734375,-0.93359375,0.1799264402064473,6.059680289021647,22.971757046948206,2.38691172944397,2700,0,54.83155634129785,50.87591207857699,92.78582530450342,0.11910705953856066,0.11051446818877976,0.224609375,,
4.111270000000019,1350,,,,0,0.005859375,-0.97265625,0.1799264402064473,6.083912823454995,22.971769127411086,2.389503504887368,2700,0,54.89112284341222,50.868341193921964,92.67134385105213,0.11960116411623689,0.11083600604801906,0.224609375,,
4.119165000000037,1350,,,,-0.09375,0.068359375,-1.044921875,0.1799264402064473,6.083912823454995,22.971583623728478,2.39388996092217,2699,0,54.99144342332772,50.84982568066075,92.46861423370082,0.11964471346789363,0.11063380854764325,0.224609375,,
4.127254999999888,1350,,,,0.0625,-0.23828125,-0.84375,0.1799264402064473,6.083912823454995,22.97153893799515,2.394103460034992,2698,0,54.99624085378274,50.84257844066039,92.44737031360816,0.11966176795214423,0.11062415774252927,0.224609375,,
4.134749999999767,1350,,,,-0.09375,0.189453125,-1.025390625,0.1799264402064473,6.083912823454995,22.971759405203066,2.39023775732548,2698,0,54.90796668251308,50.83968807507734,92.59073163105967,0.11966857102802435,0.11080200544728204,0.2265625,,
4.143504999999888,1350,,,,-0.25,0.00390625,-0.95703125,0.1799264402064473,6.083912823454995,22.971771246233043,2.387662667728912,2698,0,54.8488406162391,50.838560976260894,92.68848786059685,0.11967122409888593,0.11092144802152354,0.2265625,,
4.151864999999991,1350,,,,0.03125,-0.125,-0.87109375,0.1799264402064473,6.083912823454995,22.97178416393986,2.3882560782173106,2699,0,54.86250315702553,50.846369782239215,92.6796388358521,0.11965284541474036,0.11089382498720178,0.2265625,,
4.1605249999999065,1350,,,,-0.0625,0.16796875,-1.044921875,0.1799264402064473,6.083912823454995,22.971602101660224,2.385081242600823,2699,0,54.78913728515944,50.84892195100057,92.80840047973132,0.11964683989402217,0.11104231833018705,0.2265625,,
4.169385000000009,1350,,,,-0.03125,-0.103515625,-0.935546875,0.1799264402064473,6.083912823454995,22.971550780476,2.382946854602692,2697,0,54.739984677681306,50.825401111103716,92.84876751495757,0.11970220973083193,0.11114202642324705,0.2265625,,
4.179839999999851,1350,,,,0,0.17578125,-1.041015625,0.1799264402064473,6.083912823454995,22.97135573882524,2.3814051187944867,2697,0,54.70410414208753,50.81148547744115,92.88422920785659,0.11973499232090111,0.11121492470935528,0.224609375,,
4.187209999999963,1350,,,,-0.25,0.0859375,-1,0.1799264402064473,6.083912823454995,22.97102214291338,2.380656535582521,2696,0,54.686113993537546,50.80373285954809,92.90060885575404,0.1197532638059209,0.11125151120033784,0.224609375,,
4.195359999999869,1350,,,,0.0625,-0.193359375,-0.93359375,0.1799264402064473,6.083912823454995,22.970867100383643,2.3906966386411974,2697,0,54.916374763560846,50.81164744903324,92.52549475051792,0.11973461064330733,0.11078504088532638,0.224609375,,
4.202874999999767,1350,,,,-0.125,0.3125,-1.009765625,0.18068729623254787,6.083912823454995,22.970732507716082,2.39400489486794,2697,0,54.99204606217441,51.03445594517757,92.80334084583367,0.11921186795819827,0.11063259614993191,0.2265625,,
4.210639999999898,1350,,,,-0.125,-0.140625,-0.94921875,0.18068729623254787,6.083912823454995,22.97078655311172,2.3912301138746015,2698,0,54.9284365451865,51.04471962977771,92.92949670574752,0.11918789774105942,0.11076071350492755,0.2265625,,
4.218989999999991,1350,,,,-0.03125,-0.025390625,-0.8984375,0.18068729623254787,6.083912823454995,22.97077998264209,2.390186245252107,2698,0,54.90444235722355,51.05815025694485,92.9945703204603,0.11915654587638475,0.11080911784644616,0.2265625,,
4.226319999999832,1350,,,,-0.03125,0.232421875,-1.0390625,0.18068729623254787,6.083912823454995,22.970646404564256,2.3920869464049366,2699,0,54.947783414841645,51.06778528490624,92.93875405192887,0.11913406445008248,0.1107217151513286,0.2265625,,
4.234519999999786,1350,,,,0,-0.3125,-0.96875,0.18068729623254787,6.083912823454995,22.970256523931315,2.4020327335406733,2699,0,55.17530806830922,51.074277121315184,92.56727132014053,0.11911892182054894,0.11026513555525361,0.2265625,,
4.242364999999991,1350,,,,0.1875,-0.2265625,-0.88671875,0.18068729623254787,6.083912823454995,22.9701553292724,2.411013775622821,2700,0,55.38136092707172,51.09157221629235,92.25409300354983,0.1190785986717967,0.10985488116600316,0.228515625,,
4.251159999999916,1350,,,,0,0.294921875,-1.046875,0.18068729623254787,6.083912823454995,22.97031033294305,2.403618024831676,2701,0,55.211851952239215,51.10702251305884,92.56531108079612,0.11904259971123217,0.11019215274136898,0.228515625,,
4.2586949999998325,1350,,,,-0.03125,-0.052734375,-0.93359375,0.18068729623254787,6.05758617314804,22.970402213043158,2.4016774428360814,2702,0,55.167496847937755,51.12445846741991,92.67133980781843,0.11848704817105021,0.10980353503884745,0.228515625,,
4.268324999999954,1350,,,,0.09375,0.11328125,-1.013671875,0.18068729623254787,6.05758617314804,22.970565603486804,2.395926635945873,2703,0,55.03578997213612,51.13640209351562,92.9148143769814,0.1184593738540744,0.11006630732864765,0.2265625,,
4.277179999999935,1350,,,,-0.15625,0.01171875,-0.9921875,0.18068729623254787,6.05758617314804,22.97083025919748,2.3907581108872726,2702,0,54.91769875599117,51.11962454888797,93.08406161740554,0.11849825241488032,0.11030298629341594,0.2265625,,
4.285119999999879,1350,,,,0.0625,-0.16015625,-0.9375,0.18068729623254787,6.05758617314804,22.970968690589135,2.384460762663824,2701,0,54.77337352308899,51.10147448302175,93.29619703172125,0.11854034026279707,0.11059362941365194,0.2265625,,
4.2932399999997575,1350,,,,-0.03125,0.265625,-1.0703125,0.18068729623254787,6.05758617314804,22.971086308158256,2.3823415737857276,2700,0,54.72497390694552,51.095329982982825,93.3674816727468,0.11855459540364068,0.11069144013569333,0.228515625,,
4.301344999999972,1350,,,,-0.15625,-0.126953125,-0.9765625,0.18068729623254787,6.05758617314804,22.971130632978603,2.3822721301209233,2700,0,54.72348430431193,51.092965672543286,93.36570271808775,0.11856008147914791,0.11069445321614385,0.228515625,,
4.315289999999805,1350,,,,-0.0625,0.06640625,-0.94140625,0.18068729623254787,6.05758617314804,22.971314960193183,2.3796170472813643,2698,0,54.66293267774513,51.04313075110204,93.37795879342417,0.11867583520074841,0.11081707249150682,0.2265625,,
4.332069999999832,1350,,,,0,0.037109375,-1.005859375,0.18068729623254787,6.05758617314804,22.971302852184156,2.374991192324642,2698,0,54.556641950159296,51.04739603193335,93.56770176318432,0.11866591920494121,0.11103297337622065,0.2265625,,
