Time (s),ESC signal (µs),Servo 1 (µs),Servo 2 (µs),Servo 3 (µs),AccX (g),AccY (g),AccZ (g),Torque (N·m),Thrust (kgf),Voltage (V),Current (A),Motor Electrical Speed (RPM),Motor Optical Speed (RPM),Electrical Power (W),Mechanical Power (W),Motor Efficiency (%),Propeller Mech. Efficiency (kgf/W),Overall Efficiency (kgf/W),Vibration (g),App message,90% settling time (s),Max acceleration (RPM/s),
0,1000,,,,-0.0625,0.048828125,-0.95703125,0.0008134212699646057,0.023697547167357978,15.273227690730938,-0.03042124600867787,0,0,0.4646306169262769,0,0,0,0,0.05859375,,
0,1000,,,,-0.0625,0.048828125,-0.95703125,0.0008134212699646057,0.023697547167357978,15.27322928679671,-0.03232444662880297,0,0,0.49369868493053065,0,0,0,0,0.05859375,,
0.00790000000037253,1000,,,,-0.0625,0.052734375,-0.95703125,0.0008134212699646057,0.023697547167357978,15.273234459474708,-0.03197105585545122,0,0,0.4883014319972682,0,0,0,0,0.05859375,,
0.01577500000037253,1000,,,,-0.0625,0.0546875,-0.95703125,0.0008134212699646057,0.023697547167357978,15.273304619359894,-0.03163584478194376,0,0,0.4831838942454143,0,0,0,0,0.05859375,,
0.023590000001713633,1000,,,,-0.0625,0.052734375,-0.955078125,0.0008134212699646057,0.023697547167357978,15.273240379858706,-0.031529276856690484,0,0,0.4815542244353497,0,0,0,0,0.05859375,,
0.03186500000022352,1000,,,,-0.0625,0.048828125,-0.955078125,0.0008134212699646057,0.023697547167357978,15.27330999418024,-0.03227617035918812,0,0,0.49296395532085185,0,0,0,0,0.05859375,,
0.04079500000178814,1000,,,,-0.0625,0.046875,-0.95703125,0.0008134212699646057,0.023697547167357978,15.273013439152823,-0.03139227386032269,0,0,0.47945462055427435,0,0,0,0,0.05859375,,
0.04881000000052154,1000,,,,-0.0625,0.046875,-0.95703125,0.0008134212699646057,0.023697547167357978,15.273093437672866,-0.03192905700328191,0,0,0.48765547098790785,0,0,0,0,0.05859375,,
0.05680000000074506,1000,,,,-0.0625,0.05078125,-0.95703125,0.0008134212699646057,0.02338715706502029,15.273237160003502,-0.03159286095480726,0,0,0.482525257925786,0,0,0,0,0.05859375,,
0.06512999999895693,1000,,,,-0.0625,0.05078125,-0.958984375,0.0008134212699646057,0.02338715706502029,15.27327483064175,-0.030845754060558943,0,0,0.47111567912530045,0,0,0,0,0.05859375,,
0.07270000000111759,1000,,,,-0.0625,0.0546875,-0.95703125,0.0008134212699646057,0.02338715706502029,15.273277710383173,-0.030565356227601294,0,0,0.46683317398094437,0,0,0,0,0.05859375,,
0.07925500000081956,1000,,,,-0.0625,0.0546875,-0.9609375,0.0008134212699646057,0.02338715706502029,15.273224483702556,-0.030519768742005737,0,0,0.466135279187342,0,0,0,0,0.05859375,,
0.08624000000022351,1000,,,,-0.0625,0.05078125,-0.95703125,0.0008134212699646057,0.02338715706502029,15.273171780247226,-0.030194375648396513,0,0,0.46116388607527364,0,0,0,0,0.05859375,,
0.09325,1000,,,,-0.0625,0.05078125,-0.95703125,0.0008134212699646057,0.02338715706502029,15.27323614379264,-0.030723488566869676,0,0,0.4692470960429139,0,0,0,0,0.05859375,,
0.10907500000111758,1000,,,,-0.0625,0.046875,-0.95703125,0.0008134212699646057,0.02338715706502029,15.273616439776108,-0.030068369490622304,0,0,0.45925274256923115,0,0,0,0,0.05859375,,
0.11681000000052154,1000,,,,-0.0625,0.046875,-0.953125,0.0008437844733315666,0.02338715706502029,15.273545065928817,-0.029466990701161808,0,0,0.4500654104315002,0,0,0,0,0.05859375,,
0.1258600000012666,1000,,,,-0.0625,0.046875,-0.95703125,0.0008437844733315666,0.02338715706502029,15.273460295634552,-0.029824538895539238,0,0,0.4555239106566269,0,0,0,0,0.05859375,,
0.1362800000011921,1000,,,,-0.0625,0.048828125,-0.95703125,0.0008437844733315666,0.02338715706502029,15.273388345210774,-0.029165481785845597,0,0,0.44545572959039126,0,0,0,0,0.05859375,,
0.1464550000000745,1000,,,,-0.0625,0.052734375,-0.955078125,0.0008437844733315666,0.02338715706502029,15.273488232981869,-0.027493855447765204,0,0,0.41992707766074633,0,0,0,0,0.05859375,,
0.1560750000011176,1000,,,,-0.0625,0.05078125,-0.95703125,0.0008437844733315666,0.02338715706502029,15.273450277257522,-0.026020945633426572,0,0,0.397429619299362,0,0,0,0,0.05859375,,
0.1641450000014156,1000,,,,-0.0625,0.052734375,-0.95703125,0.0008437844733315666,0.02338715706502029,15.273575903898283,-0.025549621680783674,0,0,0.3902340860573347,0,0,0,0,0.05859375,,
0.1731450000014156,1000,,,,-0.0625,0.05078125,-0.95703125,0.0008437844733315666,0.02338715706502029,15.27370927062062,-0.02600427701032102,0,0,0.39718176684832684,0,0,0,0,0.05859375,,
0.1810099999997765,1000,,,,-0.0625,0.046875,-0.95703125,0.0008437844733315666,0.02338715706502029,15.273690980473628,-0.025114406394088754,0,0,0.3835896824213426,0,0,0,0,0.05859375,,
0.18961500000022352,1000,,,,-0.0625,0.046875,-0.95703125,0.0008437844733315666,0.02338715706502029,15.273707993385962,-0.02463772098655191,0,0,0.376309355971111,0,0,0,0,0.05859375,,
0.19659999999962746,1000,,,,-0.0625,0.048828125,-0.953125,0.0008437844733315666,0.02338715706502029,15.273578303519663,-0.02521429077349078,0,0,0.3851124444966248,0,0,0,0,0.05859375,,
0.20504500000178813,1000,,,,-0.0625,0.046875,-0.95703125,0.0008437844733315666,0.023085113601127454,15.27369719069451,-0.02478452727226116,0,0,0.3785513645710267,0,0,0,0,0.05859375,,
0.21519000000134111,1000,,,,-0.0625,0.05078125,-0.953125,0.0008437844733315666,0.023085113601127454,15.273677127552247,-0.02504315484334141,0,0,0.38250106133249295,0,0,0,0,0.05859375,,
0.22325,1000,,,,-0.0625,0.052734375,-0.95703125,0.0008437844733315666,0.023085113601127454,15.2735765772394,-0.02504847488033022,0,0,0.3825797992277811,0,0,0,0,0.05859375,,
0.23193999999947845,1000,,,,-0.0625,0.05078125,-0.95703125,0.0008437844733315666,0.023085113601127454,15.273624626531983,-0.024286984010960536,0,0,0.37095027709399536,0,0,0,0,0.05859375,,
0.24008999999985098,1000,,,,-0.0625,0.05078125,-0.95703125,0.0008437844733315666,0.023085113601127454,15.273535297498267,-0.023617366205751368,0,0,0.3607206763774862,0,0,0,0,0.05859375,,
0.2475449999999255,1000,,,,-0.0625,0.048828125,-0.95703125,0.0008437844733315666,0.023085113601127454,15.273461576478754,-0.022960521704018765,0,0,0.3506866460222371,0,0,0,0,0.05859375,,
0.2564250000007451,1000,,,,-0.0625,0.046875,-0.955078125,0.0008437844733315666,0.023085113601127454,15.273455219305365,-0.023286280699148842,0,0,0.3556619654826247,0,0,0,0,0.05859375,,
0.26482000000029804,1000,,,,-0.0625,0.05078125,-0.953125,0.0008591745014235456,0.023085113601127454,15.273374775291092,-0.022908565594596315,0,0,0.34989110789060873,0,0,0,0,0.05859375,,
0.27182000000029805,1000,,,,-0.0625,0.046875,-0.95703125,0.0008591745014235456,0.023085113601127454,15.273486813373284,-0.023188774541423054,0,0,0.35417344217671115,0,0,0,0,0.05859375,,
0.2800250000003725,1000,,,,-0.03125,0.013671875,-0.9296875,0.0008591745014235456,0.023085113601127454,15.273512035729397,-0.020939876236649557,0,0,0.319825451727151,0,0,0,0,0.05859375,,
0.2915800000000745,1000,,,,-0.0625,-0.0078125,-0.921875,0.0008591745014235456,0.023085113601127454,15.273242397472622,-0.01498343003067009,0,0,0.22884555880399493,0,0,0,0,0.05859375,,
0.3005149999987334,1000,,,,0.01953125,-0.119140625,-0.90234375,0.0008591745014235456,0.023085113601127454,15.272775292347774,-0.007542042440603101,0,0,0.11518791944068135,0,0,0,0,0.060546875,,
0.30926999999955296,1000,,,,0.0625,-0.158203125,-0.896484375,0.0008591745014235456,0.023085113601127454,15.272663420433327,-0.0013391312827715496,0,0,0.020452101357543002,0,0,0,0,0.0625,,
0.3177550000008196,1000,,,,0.0625,-0.140625,-0.91015625,0.0008591745014235456,0.023085113601127454,15.272697173204037,0.0035765517337835034,0,0,0.05462359155437331,0,0,0,0,0.064453125,,
0.3262750000003725,1000,,,,0.09375,-0.15625,-0.91796875,0.0008591745014235456,0.023085113601127454,15.272519798807775,0.008471631151187806,0,0,0.12938315448471246,0,0,0,0,0.06640625,,
0.335679999999702,1000,,,,0.125,-0.17578125,-0.9140625,0.0008591745014235456,0.023085113601127454,15.272602265148544,0.015791311485812434,0,0,0.2411744195678852,0,0,0,0,0.068359375,,
0.34433500000089406,1000,,,,0.125,-0.177734375,-0.951171875,0.0008591745014235456,0.023085113601127454,15.272569267966304,0.020685652340733246,0,0,0.3159230582269178,0,0,0,0,0.072265625,,
0.362855000000447,1000,,,,0.08203125,-0.0234375,-0.958984375,0.0008591745014235456,0.022953872024361492,15.272585903998294,0.030087797144031023,0,0,0.45951846654428835,0,0,0,0,0.07421875,,
0.37026500000059603,1000,,,,0.0625,0.1015625,-1,0.0008591745014235456,0.022953872024361492,15.272247382287475,0.033991076292662514,0,0,0.5191201259317489,0,0,0,0,0.07421875,,
0.3779400000013411,1000,,,,0.0625,0.119140625,-1.0390625,0.0008591745014235456,0.022953872024361492,15.272148150203163,0.03694078021772909,0,0,0.564165068269253,0,0,0,0,0.076171875,,
0.38640000000037256,1000,,,,0.0625,0.1328125,-1.02734375,0.0008591745014235456,0.022953872024361492,15.272008868249516,0.040957268380641454,0,0,0.6254997659284318,0,0,0,0,0.076171875,,
0.3951550000011921,1000,,,,0,0.201171875,-0.970703125,0.0008591745014235456,0.022953872024361492,15.271935673670955,0.044454964252020404,0,0,0.6789133544321975,0,0,0,0,0.076171875,,
0.4044500000011176,1000,,,,0,0.201171875,-0.98046875,0.0008591745014235456,0.022953872024361492,15.271939263000885,0.04733918234374325,0,0,0.7229611175137708,0,0,0,0,0.078125,,
0.41329499999992547,1000,,,,-0.0625,0.23046875,-1.015625,0.0008144231824535931,0.022953872024361492,15.271942607752624,0.049551284288580785,0,0,0.7567443697956401,0,0,0,0,0.080078125,,
0.4225050000008196,1000,,,,-0.0625,0.166015625,-0.9765625,0.0008144231824535931,0.022953872024361492,15.271285181357717,0.05308608621056138,0,0,0.8106927616836243,0,0,0,0,0.080078125,,
0.4310650000013411,1000,,,,-0.125,0.1796875,-0.9765625,0.0008144231824535931,0.022953872024361492,15.271100651262008,0.054300066596282906,0,0,0.8292217823620663,0,0,0,0,0.08203125,,
0.44220999999903143,1000,,,,-0.125,0.1015625,-0.958984375,0.0008144231824535931,0.022953872024361492,15.271143832598018,0.056112234611445794,0,0,0.8568980055198735,0,0,0,0,0.08203125,,
0.459160000000149,1000,,,,-0.09375,-0.03515625,-0.94921875,0.0008144231824535931,0.022953872024361492,15.270571482273887,0.05961535622622323,0,0,0.9103605586937634,0,0,0,0,0.083984375,,
0.467679999999702,1000,,,,-0.0625,-0.044921875,-0.97265625,0.0008144231824535931,0.022953872024361492,15.27044424788024,0.062296477843388445,0,0,0.95129489174677,0,0,0,0,0.083984375,,
0.4760800000000745,1000,,,,-0.03125,-0.041015625,-0.98046875,0.0008144231824535931,0.022953872024361492,15.270383840041065,0.06556645808174853,0,0,1.0012249819402628,0,0,0,0,0.083984375,,
0.4828350000008941,1000,,,,0,-0.046875,-0.98046875,0.0008144231824535931,0.022953872024361492,15.270116139864836,0.06686037166849758,0,0,1.0209656405324865,0,0,0,0,0.083984375,,
0.49010500000044704,1000,,,,0,-0.0234375,-0.98046875,0.0008144231824535931,0.022953872024361492,15.270111051770586,0.06777764666458395,0,0,1.0349721913958652,0,0,0,0,0.083984375,,
0.49821499999985097,1000,,,,0.03125,-0.033203125,-0.966796875,0.0008144231824535931,0.022953872024361492,15.270203932168599,0.06971685447761143,0,0,1.064590585382448,0,0,0,0,0.083984375,,
0.5069199999999255,1000,,,,0.0625,-0.00390625,-1.037109375,0.0008144231824535931,0.022737236539668658,15.270522224345601,0.07070508100593413,0,0,1.0797035108752733,0,0,0,0,0.083984375,,
0.5151700000017881,1000,,,,0.0625,0.05078125,-1.041015625,0.0008144231824535931,0.022737236539668658,15.270594228529744,0.07301376681772871,0,0,1.1149636061700245,0,0,0,0,0.0859375,,
0.523140000000596,1000,,,,0.0625,0.0546875,-1.02734375,0.0008144231824535931,0.022737236539668658,15.270267133343623,0.0741737565443301,0,0,1.1326530767155154,0,0,0,0,0.0859375,,
0.53075,1000,,,,0.0625,0.05078125,-1.017578125,0.0008144231824535931,0.022737236539668658,15.270351305287239,0.0760973047789502,0,0,1.162032577360083,0,0,0,0,0.0859375,,
0.5381150000002235,1000,,,,0.0625,0.05078125,-1.015625,0.0008144231824535931,0.022737236539668658,15.270190932265375,0.07792569393609157,0,0,1.1899402249333924,0,0,0,0,0.0859375,,
0.5458400000017136,1000,,,,0.0625,0.029296875,-1.013671875,0.0008144231824535931,0.022737236539668658,15.270279075142586,0.07808534458642398,0,0,1.1923850035133685,0,0,0,0,0.0859375,,
0.5529599999990314,1000,,,,0.0625,0,-1.015625,0.0008144231824535931,0.022737236539668658,15.270296012607634,0.0786956126649027,0,0,1.2017053002865785,0,0,0,0,0.0859375,,
0.5619650000017137,1000,,,,0,0.037109375,-0.990234375,0.0008144231824535931,0.022737236539668658,15.270279995412164,0.07918415950756581,0,0,1.2091642868819081,0,0,0,0,0.0859375,,
0.5690800000000745,1000,,,,0,0.015625,-0.9609375,0.0008335459059832092,0.022737236539668658,15.270126091886263,0.07991792579372102,0,0,1.2203568038721295,0,0,0,0,0.083984375,,
0.576980000000447,1000,,,,-0.03125,0.03125,-0.970703125,0.0008335459059832092,0.022737236539668658,15.27002051959886,0.08062859337185051,0,0,1.23120027525455,0,0,0,0,0.083984375,,
0.5852350000012666,1000,,,,-0.0625,0.05859375,-0.982421875,0.0008335459059832092,0.022737236539668658,15.270216049414092,0.08225627573868306,0,0,1.2560711019498692,0,0,0,0,0.083984375,,
0.5973450000006706,1000,,,,-0.0625,0.05859375,-0.93359375,0.0008335459059832092,0.022737236539668658,15.270303394992865,0.08294803758034368,0,0,1.2666416998711179,0,0,0,0,0.083984375,,
0.6139949999991804,1000,,,,0,0.0390625,-0.921875,0.0008335459059832092,0.022737236539668658,15.27023548342692,0.08418442235390632,0,0,1.2855159533804186,0,0,0,0,0.08203125,,
0.622660000000149,1000,,,,0,0.05859375,-0.91796875,0.0008335459059832092,0.022737236539668658,15.270101336779302,0.08543845055878187,0,0,1.3046537980900073,0,0,0,0,0.08203125,,
0.6295400000009685,1000,,,,0.03125,0.03125,-0.912109375,0.0008335459059832092,0.022737236539668658,15.270068755596988,0.08516660952565162,0,0,1.3004999831377817,0,0,0,0,0.08203125,,
0.6364400000013412,1000,,,,0.0625,0.0078125,-0.9609375,0.0008335459059832092,0.022737236539668658,15.27006580290113,0.08612052424274717,0,0,1.3150660721670913,0,0,0,0,0.08203125,,
0.6432400000002235,1000,,,,0.0625,0.01171875,-0.9609375,0.0008335459059832092,0.022737236539668658,15.270063001420668,0.088982053763359,0,0,1.3587615669622932,0,0,0,0,0.08203125,,
0.6516799999997019,1000,,,,0.0625,0.01171875,-0.962890625,0.0008335459059832092,0.022737236539668658,15.269795641288184,0.08892618947547036,0,0,1.3578847404489045,0,0,0,0,0.08203125,,
0.671679999999702,1000,,,,0,0.01953125,-0.97265625,0.0008335459059832092,0.02302331551745444,15.269930042158247,0.09113495150916527,0,0,1.391624333940438,0,0,0,0,0.080078125,,
0.6804049999993295,1000,,,,0,-0.025390625,-1.01171875,0.0008335459059832092,0.02302331551745444,15.269634482104928,0.09226263372712783,0,0,1.4088166933695683,0,0,0,0,0.080078125,,
0.6884499999992549,1000,,,,0,-0.04296875,-1.013671875,0.0008335459059832092,0.02302331551745444,15.269554303186693,0.09203948807364797,0,0,1.4054019611780717,0,0,0,0,0.080078125,,
0.6965050000008196,1000,,,,0,-0.05859375,-1.00390625,0.0008335459059832092,0.02302331551745444,15.269543537091074,0.0922521011500186,0,0,1.4086474748983386,0,0,0,0,0.08203125,,
0.7052000000011176,1000,,,,-0.0625,0.048828125,-1.052734375,0.0008335459059832092,0.02302331551745444,15.269458958158692,0.09176549191962484,0,0,1.4012094126419545,0,0,0,0,0.08203125,,
0.7134199999999254,1000,,,,-0.0625,0.0234375,-1.021484375,0.0008335459059832092,0.02302331551745444,15.269485660338066,0.09285058647376442,0,0,1.4177806987151254,0,0,0,0,0.08203125,,
0.7214550000019372,1000,,,,-0.0625,0.03125,-1.00390625,0.0009019095938434525,0.02302331551745444,15.269610112019103,0.09002051402422749,0,0,1.3745781512335016,0,0,0,0,0.08203125,,
0.7293850000016391,1000,,,,-0.03125,0.03515625,-0.970703125,0.0009019095938434525,0.02302331551745444,15.269629057518422,0.08358499167726634,0,0,1.2763118176876216,0,0,0,0,0.08203125,,
0.737484999999404,1000,,,,-0.0625,0.05859375,-0.962890625,0.0009019095938434525,0.02302331551745444,15.269744830782553,0.07807073032853303,0,0,1.192120130869536,0,0,0,0,0.080078125,,
0.7478950000014156,1000,,,,-0.0625,0.0546875,-0.9609375,0.0009019095938434525,0.02302331551745444,15.269855984752347,0.07126944682096385,0,0,1.088274189069084,0,0,0,0,0.080078125,,
0.7653450000006705,1000,,,,-0.0625,0.046875,-0.955078125,0.0009019095938434525,0.02302331551745444,15.270389692740236,0.059926200265392485,0,0,0.9150964308577366,0,0,0,0,0.080078125,,
0.773960000000894,1000,,,,-0.0625,0.048828125,-0.95703125,0.0009019095938434525,0.02302331551745444,15.270557837597117,0.054824318816659875,0,0,0.8371979313966685,0,0,0,0,0.080078125,,
0.785210000000894,1000,,,,-0.0625,0.05078125,-0.95703125,0.0009019095938434525,0.02302331551745444,15.2704006481433,0.049907177254682925,0,0,0.7621025918969127,0,0,0,0,0.080078125,,
0.7931900000013411,1000,,,,-0.0625,0.05078125,-0.955078125,0.0009019095938434525,0.02302331551745444,15.270776969118817,0.04583608390583384,0,0,0.6999526144638051,0,0,0,0,0.080078125,,
0.8023250000011176,1000,,,,-0.0625,0.05078125,-0.95703125,0.0009019095938434525,0.02302331551745444,15.270913849020292,0.04203644546732832,0,0,0.6419349372506103,0,0,0,0,0.078125,,
0.8117100000008941,1000,,,,-0.0625,0.048828125,-0.95703125,0.0009019095938434525,0.023061152847228705,15.271052225613532,0.03844346997116102,0,0,0.5870722376634055,0,0,0,0,0.078125,,
0.8205649999994784,1000,,,,-0.0625,0.05078125,-0.955078125,0.0009019095938434525,0.023061152847228705,15.2712498284773,0.03330417335679925,0,0,0.5085963516625988,0,0,0,0,0.078125,,
0.8296749999988824,1000,,,,-0.0625,0.048828125,-0.955078125,0.0009019095938434525,0.023061152847228705,15.27136460801545,0.02888989097060199,0,0,0.44118805849787635,0,0,0,0,0.078125,,
0.8387949999999255,1000,,,,-0.0625,0.052734375,-0.955078125,0.0009019095938434525,0.023061152847228705,15.271545819247022,0.025212834479276053,0,0,0.3850389569833554,0,0,0,0,0.078125,,
0.8477650000005961,1000,,,,-0.0625,0.048828125,-0.95703125,0.0009019095938434525,0.023061152847228705,15.271422794057795,0.022652813312731293,0,0,0.34594068957358054,0,0,0,0,0.078125,,
0.8563450000006706,1000,,,,-0.0625,0.05078125,-0.955078125,0.0009019095938434525,0.023061152847228705,15.271309089873343,0.019106855418952517,0,0,0.2917866948383453,0,0,0,0,0.078125,,
0.8642949999999255,1000,,,,-0.0625,0.046875,-0.955078125,0.0009019095938434525,0.023061152847228705,15.271441951711806,0.016708451983795586,0,0,0.2551621545734983,0,0,0,0,0.076171875,,
0.8725300000011921,1000,,,,-0.0625,0.046875,-0.95703125,0.0009331832073427486,0.023061152847228705,15.27153500345794,0.014863746379944184,0,0,0.22699222312383885,0,0,0,0,0.076171875,,
0.8803800000008196,1000,,,,-0.0625,0.05078125,-0.95703125,0.0009331832073427486,0.023061152847228705,15.271557601228695,0.012711897798315497,0,0,0.19413047944790734,0,0,0,0,0.076171875,,
0.8894349999986589,1000,,,,-0.0625,0.05078125,-0.953125,0.0009331832073427486,0.023061152847228705,15.27173917770751,0.010247103994861728,0,0,0.156491099536373,0,0,0,0,0.076171875,,
0.903964999999851,1000,,,,-0.0625,0.048828125,-0.958984375,0.0009331832073427486,0.023061152847228705,15.271997301433752,0.008614639094401702,0,0,0.1315627450025285,0,0,0,0,0.076171875,,
0.9225050000008196,1000,,,,-0.03125,0.02734375,-0.95703125,0.0009331832073427486,0.023061152847228705,15.2722696508847,0.007312307569118229,0,0,0.1116755329657788,0,0,0,0,0.076171875,,
0.9311199999991804,1000,,,,-0.03125,0.021484375,-0.96484375,0.0009331832073427486,0.023061152847228705,15.272058755300984,0.014500522860648318,0,0,0.22145283711040623,0,0,0,0,0.07421875,,
0.9380299999993295,1000,,,,-0.0625,0.05859375,-0.9453125,0.0009331832073427486,0.023061152847228705,15.271926256839972,0.021222125366062147,0,0,0.3241027336039141,0,0,0,0,0.07421875,,
0.9457000000011175,1000,,,,-0.0625,0.064453125,-0.990234375,0.0009331832073427486,0.023061152847228705,15.271669013397212,0.027500421985737072,0,0,0.4199773422949283,0,0,0,0,0.07421875,,
0.9535649999994784,1000,,,,-0.03125,0.0234375,-0.958984375,0.0009331832073427486,0.023149425838193422,15.271488227913103,0.03335906282411345,0,0,0.5094425352126623,0,0,0,0,0.07421875,,
0.9625049999989569,1000,,,,0,0.0078125,-0.97265625,0.0009331832073427486,0.023149425838193422,15.271152340029564,0.03940209383480281,0,0,0.6017153774674134,0,0,0,0,0.07421875,,
0.971375,1000,,,,-0.03125,0.07421875,-0.9921875,0.0009331832073427486,0.023149425838193422,15.271052223813763,0.04516830780537735,0,0,0.6897675873572123,0,0,0,0,0.07421875,,
0.9795600000005216,1000,,,,-0.09375,0.07421875,-0.978515625,0.0009331832073427486,0.023149425838193422,15.27109900383969,0.05069412597045948,0,0,0.7741550166080076,0,0,0,0,0.07421875,,
0.988554999999702,1000,,,,-0.0625,0.05078125,-0.95703125,0.0009331832073427486,0.023149425838193422,15.271074801802353,0.05568952892624758,0,0,0.8504389619098627,0,0,0,0,0.07421875,,
0.9979450000002981,1000,,,,-0.03125,0.05859375,-1.009765625,0.0009331832073427486,0.023149425838193422,15.270832545888783,0.061025426307370026,0,0,0.9319090661813237,0,0,0,0,0.07421875,,
1.005929999999702,1000,,,,-0.0625,0.04296875,-0.970703125,0.0009331832073427486,0.023149425838193422,15.270823755443116,0.06544323745045698,0,0,0.999372145091543,0,0,0,0,0.07421875,,
1.013199999999255,1000,,,,-0.0625,0.03125,-0.94140625,0.0009331832073427486,0.023149425838193422,15.270874974544807,0.06981382925666642,0,0,1.0661182580727713,0,0,0,0,0.07421875,,
1.021035000000149,1000,,,,-0.03125,0.06640625,-0.984375,0.0009459879273909835,0.023149425838193422,15.270832451350488,0.07479660634999578,0,0,1.1422064435004036,0,0,0,0,0.07421875,,
1.0288149999994785,1000,,,,-0.03125,0.02734375,-0.966796875,0.0009459879273909835,0.023149425838193422,15.270705178072282,0.07713282948229695,0,0,1.1778726985746784,0,0,0,0,0.07421875,,
1.0365950000006705,1000,,,,-0.0625,0.01953125,-0.953125,0.0009459879273909835,0.023149425838193422,15.270510408550663,0.08036496645730558,0,0,1.2272140567691097,0,0,0,0,0.07421875,,
1.0448699999991804,1000,,,,-0.03125,0.046875,-0.96875,0.0009459879273909835,0.023149425838193422,15.27028197748613,0.08403506143532159,0,0,1.283239084112731,0,0,0,0,0.07421875,,
1.0557949999999254,1000,,,,-0.0625,0.04296875,-0.966796875,0.0009459879273909835,0.023149425838193422,15.270173023220957,0.0877346513704718,0,0,1.3397233065590741,0,0,0,0,0.07421875,,
1.0645999999996274,1000,,,,0,0.00390625,-0.958984375,0.0009459879273909835,0.023149425838193422,15.270230542916932,0.09226208048821412,0,0,1.4088632394241876,0,0,0,0,0.072265625,,
1.0726899999994786,1000,,,,-0.0625,0.060546875,-0.978515625,0.0009459879273909835,0.023149425838193422,15.269975959079174,0.09541070257597543,0,0,1.4569191345739982,0,0,0,0,0.072265625,,
1.0804150000009687,1000,,,,-0.0625,0.03125,-0.953125,0.0009459879273909835,0.023149425838193422,15.269944774506975,0.0984113975315853,0,0,1.5027366054893596,0,0,0,0,0.072265625,,
1.088554999999702,1000,,,,0,0.0078125,-0.9609375,0.0009459879273909835,0.023149425838193422,15.269849775047481,0.10138628686815827,0,0,1.548153369726646,0,0,0,0,0.072265625,,
1.0972200000006707,1000,,,,-0.0625,0.080078125,-0.9921875,0.0009459879273909835,0.023149425838193422,15.26965825072956,0.10329880337883217,0,0,1.577337425304075,0,0,0,0,0.072265625,,
1.1061699999999255,1000,,,,-0.0625,0.05859375,-0.95703125,0.0009459879273909835,0.02318918509603738,15.26955831187054,0.10733108195163331,0,0,1.6388982145366204,0,0,0,0,0.072265625,,
1.1147999999988825,1000,,,,-0.03125,0.0234375,-0.96484375,0.0009459879273909835,0.02318918509603738,15.26942872935322,0.10975913142073208,0,0,1.6759592346245822,0,0,0,0,0.072265625,,
1.122949999999255,1000,,,,-0.03125,0.0703125,-0.986328125,0.0009459879273909835,0.02318918509603738,15.26942300568268,0.11209355313958534,0,0,1.7116038790982986,0,0,0,0,0.072265625,,
1.131320000000298,1000,,,,-0.125,0.0390625,-0.9453125,0.0009459879273909835,0.02318918509603738,15.269291813367,0.11341255897430193,0,0,1.7317294582793104,0,0,0,0,0.072265625,,
1.139484999999404,1000,,,,-0.0625,0.04296875,-0.953125,0.0009459879273909835,0.02318918509603738,15.269031857539776,0.1159900311843325,0,0,1.771055481310605,0,0,0,0,0.072265625,,
1.1476650000009685,1000,,,,-0.03125,0.05859375,-1.01171875,0.0009459879273909835,0.02318918509603738,15.269111906882953,0.11843037069080463,0,0,1.808326583251527,0,0,0,0,0.072265625,,
1.1556850000005214,1000,,,,0,0.0390625,-0.9921875,0.0009459879273909835,0.02318918509603738,15.269188919563002,0.120133338902939,0,0,1.834338647246863,0,0,0,0,0.072265625,,
1.1637650000005961,1000,,,,-0.09375,0.072265625,-0.98046875,0.0009459879273909835,0.02318918509603738,15.269031515585146,0.12206852557732843,0,0,1.8638681641012393,0,0,0,0,0.072265625,,
1.172054999999702,1000,,,,0,0.0078125,-0.95703125,0.0009196896720634681,0.02318918509603738,15.268976075266051,0.12465446667237291,0,0,1.9033460692955113,0,0,0,0,0.072265625,,
1.181699999999255,1000,,,,-0.03125,0.02734375,-0.962890625,0.0009196896720634681,0.02318918509603738,15.26882873570505,0.12734042770402088,0,0,1.9443391817441253,0,0,0,0,0.072265625,,
1.189734999999404,1000,,,,-0.0625,0.048828125,-0.97265625,0.0009196896720634681,0.02318918509603738,15.268709550758787,0.12826625782817896,0,0,1.9584602359412053,0,0,0,0,0.072265625,,
1.197304999999702,1000,,,,0,0.01171875,-0.95703125,0.0009196896720634681,0.02318918509603738,15.268541189895178,0.12992391179275165,0,0,1.9837485987599364,0,0,0,0,0.072265625,,
1.208800000000745,1000,,,,-0.0625,0.044921875,-0.966796875,0.0009196896720634681,0.02318918509603738,15.26851480708381,0.13167677998869476,0,0,2.010508865006503,0,0,0,0,0.072265625,,
1.2179900000002235,1000,,,,-0.03125,0.037109375,-0.962890625,0.0009196896720634681,0.02318918509603738,15.268535555103686,0.1328330416823314,0,0,2.028166019819247,0,0,0,0,0.0703125,,
1.2250800000000746,1000,,,,-0.0625,0.05859375,-0.9765625,0.0009196896720634681,0.02318918509603738,15.268606566887886,0.13380189680209936,0,0,2.0429685201745897,0,0,0,0,0.072265625,,
1.2326349999997765,1000,,,,-0.0625,0.03515625,-0.95703125,0.0009196896720634681,0.02318918509603738,15.268459197598762,0.1348544874937962,0,0,2.05902023991212,0,0,0,0,0.0703125,,
1.2525800000000744,1000,,,,-0.0625,0.0703125,-0.990234375,0.0009196896720634681,0.023350782993027102,15.268592233978067,0.13594257931659093,0,0,2.0756518108202475,0,0,0,0,0.0703125,,undefined,0,
1.2769399999994784,1000,,,,-0.01953125,0.048828125,-1,0.0009196896720634681,0.023350782993027102,15.268345902457453,0.14031673284487528,0,0,2.1424044129782684,0,0,0,0,0.0703125,,
1.289199999999255,1180,,,,-0.09375,0.0390625,-0.947265625,0.0009196896720634681,0.023350782993027102,15.26851986582442,0.1406030873993107,0,0,2.146801033152623,0,0,0,0,0.0703125,,
1.2977400000002235,1180,,,,-0.03125,0.037109375,-0.984375,0.0009196896720634681,0.023350782993027102,15.26827917832657,0.14083783027165975,0,0,2.1503513114574737,0,0,0,0,0.0703125,,
1.3049850000012666,1180,,,,-0.03125,0.037109375,-0.966796875,0.0009196896720634681,0.023350782993027102,15.268265649288987,0.14205208150736937,0,0,2.168888916488967,0,0,0,0,0.0703125,,
1.3136550000011922,1180,,,,-0.0625,0.046875,-0.974609375,0.0009196896720634681,0.023350782993027102,15.268353989056092,0.14226885983080628,0,0,2.172211313516153,0,0,0,0,0.0703125,,
1.327855000000447,1180,,,,-0.03125,0.01953125,-0.96875,0.0008945866361879109,0.023350782993027102,15.268323079846002,0.14433056332336802,0,0,2.2036856711173547,0,0,0,0,0.0703125,,
1.3457050000000745,1180,,,,-0.0625,0.048828125,-0.970703125,0.0008945866361879109,0.023350782993027102,15.268541485130074,0.14496934686008872,0,0,2.213470486605476,0,0,0,0,0.0703125,,
1.371960000000894,1180,,,,-0.03125,0.0234375,-0.94921875,0.0008945866361879109,0.023350782993027102,15.268348891384736,0.14933799162631506,0,0,2.2801445588892704,0,0,0,0,0.068359375,,
1.381375,1180,,,,-0.041015625,0.044921875,-0.978515625,0.0008945866361879109,0.023350782993027102,15.268364330081688,0.14944983630817332,0,0,2.281854549824261,0,0,0,0,0.068359375,,
1.4045650000013412,1180,,,,-0.0625,0.080078125,-0.98828125,0.0008945866361879109,0.02347259587685007,15.267969586809574,0.150549649087103,0,0,2.2985874635667423,0,0,0,0,0.068359375,,
1.4130950000006706,1180,,,,-0.03125,0.021484375,-0.9609375,0.0008945866361879109,0.02347259587685007,15.267971020741292,0.15045399376979235,0,0,2.2971272168319805,0,0,0,0,0.068359375,,
1.4206849999986588,1180,,,,0,0.00390625,-1.02734375,0.0008945866361879109,0.02347259587685007,15.268292999866063,0.149524192971684,0,0,2.2829791888601854,0,0,0,0,0.068359375,,
1.4290800000000745,1180,,,,-0.03125,0.052734375,-0.974609375,0.0008945866361879109,0.02347259587685007,15.268575110446335,0.14485703147963774,0,0,2.211760465423138,0,0,0,0,0.068359375,,
1.4374350000005216,1180,,,,-0.0625,0.068359375,-0.97265625,0.0008945866361879109,0.02347259587685007,15.268980631200277,0.13557407239439928,0,0,2.070077885483027,0,0,0,0,0.068359375,,
1.4452500000018627,1180,,,,-0.0625,0.05078125,-0.95703125,0.0008945866361879109,0.02347259587685007,15.269126470237623,0.12886068777716536,0,0,1.9675901387113413,0,0,0,0,0.068359375,,
1.454875,1180,,,,-0.0625,0.05078125,-0.95703125,0.0008945866361879109,0.02347259587685007,15.269478990756784,0.12141350630418567,0,0,1.8539209837058794,0,0,0,0,0.068359375,,
1.463765000000596,1180,,,,-0.0625,0.052734375,-0.95703125,0.0008945866361879109,0.02347259587685007,15.26972103022458,0.11302516957415147,0,0,1.72586280879112,0,0,0,0,0.068359375,,
1.471730000000447,1180,,,,-0.0625,0.052734375,-0.95703125,0.0008449836371060733,0.02347259587685007,15.269825655354344,0.10648416562281375,0,0,1.6259946441162425,0,0,0,0,0.068359375,,
1.479910000000149,1180,,,,-0.0625,0.0546875,-0.953125,0.0008449836371060733,0.02347259587685007,15.270127773304914,0.10025739971363286,0,0,1.5309433038464773,0,0,0,0,0.068359375,,
1.487554999999702,1180,,,,-0.0625,0.046875,-0.95703125,0.0008449836371060733,0.02347259587685007,15.270316761612207,0.09519701942609025,0,0,1.453688641397749,0,0,0,0,0.068359375,,
1.4949300000015646,1180,,,,-0.0625,0.046875,-0.95703125,0.0008449836371060733,0.02347259587685007,15.270448000910438,0.08977353933157665,0,0,1.3708821642205293,0,0,0,0,0.068359375,,
1.502964999999851,1180,,,,-0.0625,0.046875,-0.955078125,0.0008449836371060733,0.02347259587685007,15.270523481725172,0.08334606036170324,0,0,1.2727379718626728,0,0,0,0,0.068359375,,
1.511679999999702,1180,,,,-0.0625,0.046875,-0.955078125,0.0008449836371060733,0.02347259587685007,15.270531461149055,0.07831618054581203,0,0,1.1959296989418522,0,0,0,0,0.068359375,,
1.5191699999999255,1180,,,,-0.0625,0.05078125,-0.95703125,0.0008449836371060733,0.02347259587685007,15.270767758433747,0.0736594461825056,0,0,1.1248362958678921,0,0,0,0,0.068359375,,
1.5300100000016392,1180,,,,-0.0625,0.05078125,-0.95703125,0.0008449836371060733,0.02347259587685007,15.270924257725264,0.06866934328261469,0,0,1.0486443400965442,0,0,0,0,0.068359375,,
1.5478499999996276,1180,,,,-0.0625,0.052734375,-0.95703125,0.0008449836371060733,0.02347259587685007,15.271485105713548,0.05718934281814998,0,0,0.8733661970529235,0,0,0,0,0.06640625,,
1.5566899999994785,1180,,,,-0.0625,0.05078125,-0.95703125,0.0008449836371060733,0.024105208775096903,15.272060593648572,0.05173393873954708,0,0,0.7900838471784662,0,0,0,0,0.06640625,,
1.565554999999702,1180,,,,-0.0625,0.046875,-0.955078125,0.0008449836371060733,0.024105208775096903,15.27212317507271,0.047098716771453164,0,0,0.7192974039214957,0,0,0,0,0.06640625,,
1.573660000000149,1180,,,,-0.0625,0.044921875,-0.951171875,0.0008449836371060733,0.024105208775096903,15.272479387420903,0.042694633127343215,0,0,0.6520529043908468,0,0,0,0,0.06640625,,
1.581949999999255,1180,,,,-0.0625,0.046875,-0.95703125,0.0008449836371060733,0.024105208775096903,15.272455634839178,0.03911875004182201,0,0,0.5974393745040899,0,0,0,0,0.06640625,,
1.5908100000005216,1180,,,,-0.0625,0.046875,-0.95703125,0.0008449836371060733,0.024105208775096903,15.272650715858612,0.03558338739958018,0,0,0.5434526470408726,0,0,0,0,0.06640625,,
1.598620000001043,1180,,,,-0.0625,0.05078125,-0.953125,0.0008449836371060733,0.024105208775096903,15.27271746078792,0.03236569265153984,0,0,0.49431207928966775,0,0,0,0,0.06640625,,
1.605875,1180,,,,-0.0625,0.048828125,-0.95703125,0.0008449836371060733,0.024105208775096903,15.272970223856666,0.02992139636570676,0,0,0.4569885957496524,0,0,0,0,0.06640625,,
1.6145400000009686,1180,,,,-0.0625,0.05078125,-0.955078125,0.0008449836371060733,0.024105208775096903,15.27313734940774,0.026646245456269826,0,0,0.40697176669964097,0,0,0,0,0.06640625,,
1.622245000001043,1180,,,,-0.0625,0.05078125,-0.95703125,0.0007554535173395254,0.024105208775096903,15.273029291660347,0.023432015866985623,0,0,0.3578778646991214,0,0,0,0,0.06640625,,
1.6299199999999254,1180,,,,-0.0625,0.046875,-0.955078125,0.0007554535173395254,0.024105208775096903,15.273173256580174,0.021184447007622148,0,0,0.32355372949225447,0,0,0,0,0.06640625,,
1.6381050000004471,1180,,,,-0.125,0.15234375,-0.974609375,0.0007554535173395254,0.024105208775096903,15.272819355042191,0.083413431431603,0,0,1.273958270039071,0,0,0,0,0.06640625,,
1.6461450000014155,1180,,,,-0.125,-0.38671875,-1.12890625,0.0007554535173395254,0.024105208775096903,15.269907354777967,0.1689310993417848,0,0,2.579562236289847,0,0,0,0,0.0703125,,
1.655155000001192,1180,,,,-0.125,0.1953125,-0.90625,0.0007554535173395254,0.024105208775096903,15.267155368400706,0.25719569945388476,0,0,3.9266467036469512,0,0,0,0,0.07421875,,
1.662785000000149,1180,,,,0.1875,-0.234375,-1.04296875,0.0007554535173395254,0.024105208775096903,15.265435510705272,0.2859401466268343,1,0,4.365000868253548,0.00007143255868196155,0.0016364844094645496,0,0.005522383500634097,0.076171875,,
1.6707599999997764,1180,,,,-0.09375,0.046875,-0.9609375,0.0007554535173395254,0.024105208775096903,15.264783856419495,0.2987541545732266,1,0,4.560417595767644,0.00011444654044423472,0.002509562732817458,0,0.005285745936395838,0.080078125,,
1.6811650000009686,1180,,,,-0.09375,-0.001953125,-0.9375,0.0007554535173395254,0.024105208775096903,15.264422088226105,0.3071595919382722,768,0,4.688613659793079,0.060769632702220244,1.2961108999734086,0,0.0051412230830212464,0.080078125,,
1.6980950000006705,1180,,,,0,0.03515625,-0.96875,0.0007554535173395254,0.024105208775096903,15.263920700858069,0.31635020256704643,2558,0,4.828744405683784,0.20235332545520618,4.190599221135448,0,0.004992024168171609,0.080078125,,
1.705519999999553,1180,,,,-0.125,0.01953125,-0.97265625,0.0007554535173395254,0.024446254162941786,15.263859846671803,0.3146275713227491,2779,0,4.802431152569179,0.21984391106152287,4.577762888780028,0,0.005090391384343669,0.080078125,,
1.7136349999997764,1180,,,,-0.0625,0.078125,-0.96484375,0.0007554535173395254,0.024446254162941786,15.26396675926274,0.312072664680892,2980,0,4.763466780163683,0.23572858957662624,4.948677097072693,0,0.005132029946076744,0.080078125,,
1.7202949999999255,1180,,,,0,0.109375,-1.015625,0.0007554535173395254,0.024446254162941786,15.262403510220603,0.3433245978729086,3092,0,5.239958547720557,0.24460396546030846,4.6680515357648025,0.09994218252732556,0.004665352586343683,0.080078125,,
1.7283250000011177,1180,,,,-0.0625,-0.048828125,-0.927734375,0.0007554535173395254,0.024446254162941786,15.261436324731603,0.3750121379853262,3185,0,5.723223864864517,0.2519543658945078,4.402315405505673,0.09702651540151253,0.004271413234946121,0.08203125,,
1.7369700000006705,1180,,,,0,0.171875,-1.04296875,0.0007554535173395254,0.024446254162941786,15.26038469504781,0.40889115510457497,3603,0,6.239836325298276,0.2850370621198292,4.568021455373734,0.08576517727601547,0.003917771699207704,0.08203125,,
1.744660000000149,1180,,,,-0.03125,0.048828125,-0.94921875,0.0007554535173395254,0.024446254162941786,15.25988009797536,0.4290338150799431,3909,0,6.547004576096865,0.30921546812387,4.723006751099835,0.07905896270735314,0.0037339601460177896,0.083984375,,
1.7531450000014157,1180,,,,-0.03125,0.080078125,-0.970703125,0.0007554535173395254,0.024446254162941786,15.25949113483104,0.44078242557516056,4181,0,6.726115515453485,0.33072501413337035,4.917028459792552,0.07391716114065514,0.003634527849956734,0.083984375,,
1.762195000000298,1180,,,,-0.125,-0.01171875,-0.953125,0.0007554535173395254,0.024446254162941786,15.259080538114382,0.4474843219574036,4390,0,6.828199308291528,0.3472831426379311,5.086013558746343,0.07039286150560108,0.003580190480564405,0.083984375,,
1.770234999999404,1180,,,,-0.03125,-0.025390625,-0.953125,0.0007185827422892553,0.024446254162941786,15.259259458071282,0.44956459320162845,4527,0,6.860022770825918,0.340653961578537,4.965784705952568,0.07176271794891707,0.0035635820724832026,0.083984375,,
1.7790099999997764,1180,,,,-0.0625,0.109375,-0.951171875,0.0007185827422892553,0.024446254162941786,15.259299625137938,0.4493598314149315,4611,0,6.856916307061912,0.3470076012404439,5.060694716122787,0.07044875695965754,0.0035651965210315726,0.083984375,,
1.7887800000011922,1180,,,,-0.09375,0.11328125,-0.98828125,0.0007185827422892553,0.024446254162941786,15.259265115096586,0.4499936710549094,4651,0,6.866572726742427,0.3499836422944316,5.096918888390882,0.06984970498242837,0.0035601828067346984,0.0859375,,
1.7967000000011175,1180,,,,-0.03125,0.025390625,-0.947265625,0.0007185827422892553,0.024446254162941786,15.259013978945326,0.45225272297455876,4674,0,6.90093062188488,0.3516819445621174,5.096152444234558,0.06951239476732322,0.0035424576049809175,0.0859375,,
1.804035000000149,1180,,,,0,0.17578125,-1.03125,0.0007185827422892553,0.024446254162941786,15.25899819689049,0.45215611194453675,4685,0,6.8994492968747005,0.35253641033003125,5.109631148238491,0.06934391298775672,0.003543218177429814,0.087890625,,
1.8120999999996275,1180,,,,-0.125,-0.025390625,-1.0078125,0.0007185827422892553,0.024446254162941786,15.259425174062374,0.4532429352168893,4701,0,6.916226655614522,0.35373427305168803,5.114555821627538,0.0691090912736343,0.0035346230510095514,0.08984375,,
1.8202500000018627,1180,,,,0.125,0.02734375,-1.03515625,0.0007185827422892553,0.024446254162941786,15.259650536633732,0.4486004500707791,4716,0,6.845486098656698,0.35489405333329016,5.184351384526683,0.0688832453892477,0.0035711494860443758,0.08984375,,
1.8280250000003726,1180,,,,-0.0625,0.119140625,-0.998046875,0.0007185827422892553,0.024446254162941786,15.259667618137483,0.44830470343265705,4710,0,6.840980766030045,0.3544070326354416,5.180646529446551,0.0689779036864888,0.003573501373419067,0.091796875,,
1.839210000000894,1180,,,,0,0.01171875,-0.890625,0.0007185827422892553,0.024446254162941786,15.259683877488499,0.44966215638968543,4696,0,6.8617023581763945,0.35337035462102456,5.149893367204262,0.06918026326560248,0.003562709789329708,0.091796875,,
1.8493000000007451,1180,,,,-0.103515625,0.02734375,-0.953125,0.0007185827422892553,0.024446254162941786,15.259800425881437,0.44846869576222836,4701,0,6.843542794586945,0.35371433259160995,5.168585091210189,0.06911298726242694,0.0035721635557357957,0.091796875,,
1.856695000000298,1180,,,,0.03125,0.048828125,-1.013671875,0.0007185827422892553,0.030333872976177446,15.259735607655152,0.44632973454906977,4696,0,6.810873743053712,0.3533473370397512,5.187988360526045,0.0858471815022195,0.004453741784174816,0.09375,,
1.86375,1180,,,,-0.03125,0.0859375,-1.00390625,0.0007185827422892553,0.030333872976177446,15.259746968417158,0.4446294530597228,4692,0,6.784932948397084,0.35306406757773573,5.203648588172796,0.08591605819388204,0.004470769749219661,0.09375,,
1.8719649999998509,1180,,,,-0.1875,-0.06640625,-0.91015625,0.0007185827422892553,0.030333872976177446,15.259693648658748,0.44168667961020514,4699,0,6.740003419545019,0.3535890199674874,5.246125231066371,0.0857885037803681,0.004500572342176218,0.095703125,,
1.880004999998957,1180,,,,0.0625,0.080078125,-1.001953125,0.0007185827422892553,0.030333872976177446,15.259708694274629,0.4387022255829782,4689,0,6.694468165926202,0.35286060634963673,5.270928139529323,0.08596559783191189,0.004531184886436853,0.095703125,,
1.8880600000005214,1180,,,,-0.3125,0.19921875,-0.9375,0.0007185827422892553,0.030333872976177446,15.259723030007214,0.43628404577304447,4689,0,6.6575737009076486,0.35285302263604174,5.300024280436222,0.08596744545239735,0.004556295482247824,0.09765625,,
1.8978000000007451,1180,,,,0,0.029296875,-1.005859375,0.0007185827422892553,0.030333872976177446,15.259886715981114,0.4322282881334508,4700,0,6.595754712358904,0.3536467240226293,5.3617324998453615,0.08577450578684401,0.004598999553354956,0.09765625,,
1.9066349999997765,1180,,,,0,0,-1.01953125,0.0007185827422892553,0.030333872976177446,15.259748868083106,0.43085075856962357,4693,0,6.574674375395561,0.3531359861107145,5.371155527219069,0.0858985608073011,0.004613745296602987,0.09765625,,
1.91847500000149,1180,,,,-0.0625,0.03515625,-0.986328125,0.0007185827422892553,0.030333872976177446,15.259874195292404,0.43530486810920077,4689,0,6.642697523944756,0.3528811114557561,5.312316422413258,0.08596060256962967,0.00456649920711183,0.099609375,,
1.926905000001192,1180,,,,-0.03125,-0.076171875,-0.90234375,0.0025966935822453706,0.030333872976177446,15.25966646724391,0.4360622307943913,4691,0,6.654164200884749,1.275688821848786,19.171285579023863,0.023778426569746235,0.0045586300638845376,0.1015625,,
1.935004999998957,1180,,,,0.03125,0.068359375,-0.998046875,0.0025966935822453706,0.030333872976177446,15.259681057036037,0.4399024840761474,4691,0,6.712771603199883,1.2754829988452023,19.00084010361976,0.023782263662974066,0.004518829891622965,0.1015625,,
1.9439350000005216,1180,,,,0,0.076171875,-0.98828125,0.0025966935822453706,0.030333872976177446,15.259861117752196,0.44025733889322327,4698,0,6.718265847581749,1.2774424811505798,19.014467574402364,0.02374578380144054,0.004515134361212599,0.1015625,,
1.951719999998808,1180,,,,-0.25,-0.08984375,-0.890625,0.0025966935822453706,0.030333872976177446,15.259924723942357,0.43937122338105994,4703,0,6.704771794661436,1.2789362235989266,19.075014970938437,0.02371804974826495,0.004524221540296165,0.103515625,,
1.9606499999985099,1180,,,,0.03125,0.060546875,-1.052734375,0.0025966935822453706,0.030333872976177446,15.25992938319086,0.4430683768068685,4695,0,6.761192141997812,1.2766950655061013,18.882691671721382,0.023759685296623777,0.004486468116732788,0.10546875,,
1.9691349999997765,1180,,,,0.03125,0.04296875,-0.97265625,0.0025966935822453706,0.030333872976177446,15.259833962542011,0.44497511441507365,4704,0,6.790246363437158,1.2791018469671125,18.837340775359486,0.02371497863762945,0.004467271340773964,0.10546875,,
1.9789700000006705,1180,,,,-0.125,-0.01953125,-0.85546875,0.0025966935822453706,0.030333872976177446,15.259676732804886,0.4439340752020108,4715,0,6.7742904782593785,1.2820849617726242,18.925745299632467,0.02365979937416746,0.0044777933679589705,0.10546875,,
1.9890099999997766,1180,,,,-0.03125,0.0234375,-0.986328125,0.0025966935822453706,0.030333872976177446,15.25987625942507,0.44161639007201836,4718,0,6.739011466632994,1.2828991238148029,19.03690370860545,0.02364478423367946,0.004501234806673081,0.10546875,,
1.998910000000149,1180,,,,-0.03125,0.068359375,-1.044921875,0.0025966935822453706,0.030333872976177446,15.26007035274254,0.4423591642353918,4712,0,6.75043196741247,1.2814366990698702,18.9830325711891,0.02367176856897829,0.004493619537625652,0.107421875,,
2.007765000000596,1180,,,,0,-0.0234375,-0.9453125,0.0025966935822453706,0.04269044438652187,15.259996426239958,0.44116864973782133,4706,0,6.732232018368261,1.279650712262173,19.00782249884981,0.03336101326513818,0.006341202185255204,0.109375,,
2.0150449999999256,1180,,,,-0.1875,0.03515625,-0.91796875,0.0025966935822453706,0.04269044438652187,15.259996655098979,0.4401378898003049,4697,0,6.7165027261349755,1.277225423323089,19.016227274846518,0.0334243615942515,0.006356052565929378,0.111328125,,
2.0236100000012667,1180,,,,-0.03125,0.134765625,-0.931640625,0.0025966935822453706,0.04269044438652187,15.259996883621785,0.4391080377982667,4693,0,6.700787288374826,1.2762300283022905,19.045971366923073,0.033450430909630756,0.006370959493160659,0.111328125,,
2.0322750000003724,1180,,,,0,-0.021484375,-1.0234375,0.0025966935822453706,0.04269044438652187,15.26006968721209,0.4385266688111219,4691,0,6.691947525758697,1.2754749036667332,19.059846162229533,0.033470234705359904,0.0063793752449787565,0.111328125,,
2.0400050000008196,1180,,,,-0.25,-0.18359375,-0.94140625,0.0025966935822453706,0.04269044438652187,15.260197021493047,0.4380319660204677,4698,0,6.684454103184285,1.277587770011848,19.112821335750386,0.03341488184888148,0.0063865266673288025,0.11328125,,
2.04825,1180,,,,0.03125,0.125,-1.03125,0.0025966935822453706,0.04269044438652187,15.259988582703471,0.4406824042670595,4691,0,6.724808457713643,1.2756986076310732,18.970036331187874,0.03346436543173509,0.006348202280401623,0.115234375,,
2.056984999999404,1180,,,,0.03125,0.04296875,-0.9765625,0.0025966935822453706,0.04269044438652187,15.26013536179615,0.4395353910255211,4694,0,6.707369563349452,1.2763552531444984,19.029147582962853,0.033447149045179515,0.0063647073541007616,0.1171875,,
2.065344999998808,1180,,,,-0.125,-0.08203125,-0.87890625,0.0025966935822453706,0.04269044438652187,15.259799166450364,0.43920084857246044,4692,0,6.702116742950325,1.275899482256956,19.03726137863864,0.03345909688042679,0.006369695728058775,0.1171875,,
2.0730650000013413,1180,,,,0,0.18359375,-1.0078125,0.0025966935822453706,0.04269044438652187,15.259710780572027,0.4396847365896501,4698,0,6.709461914990056,1.277533656924389,19.04077663918422,0.033416297218577716,0.006362722514475312,0.1171875,,
2.0822449999991806,1180,,,,-0.01953125,0.046875,-1.01171875,0.004246156989275602,0.04269044438652187,15.259617783833672,0.43860007669107803,4705,0,6.692869530265987,2.0922988731678216,31.261611536071133,0.020403607215964747,0.006378496427200678,0.119140625,,
2.0903700000010432,1180,,,,-0.125,-0.109375,-0.9765625,0.004246156989275602,0.04269044438652187,15.25970171628199,0.4366184183126217,4700,0,6.662666827285442,2.090088434979407,31.37014785761046,0.020425185686912088,0.006407410950175812,0.12109375,,
2.099195000000298,1180,,,,0.03125,0.099609375,-1.03125,0.004246156989275602,0.04269044438652187,15.259645078829156,0.43854861000003,4700,0,6.692096138414324,2.089748434060242,31.227113162116094,0.02042850885337293,0.006379233576975669,0.12109375,,
2.108089999999851,1180,,,,-0.03125,0.095703125,-0.935546875,0.004246156989275602,0.04269044438652187,15.25981067755928,0.43739960680581647,4704,0,6.6746351902956285,2.0917782222046495,31.339214242688847,0.02040868574562741,0.006395921749939274,0.12109375,,
2.116179999999702,1180,,,,0,-0.10546875,-1,0.004246156989275602,0.04269044438652187,15.259754075874174,0.4356667405827772,4702,0,6.648167320330851,2.090983208154678,31.452024406188062,0.020416445344961325,0.006421385372773282,0.12109375,,
2.1248149999994785,1180,,,,-0.0625,0.0546875,-0.955078125,0.004246156989275602,0.04269044438652187,15.259767474823516,0.43339143399873303,4696,0,6.6134525084009885,2.0879326089706964,31.570992704921082,0.02044627503929224,0.006455092001083053,0.12109375,,
2.131885000001639,1180,,,,-0.09375,-0.07421875,-1.02734375,0.004246156989275602,0.04269044438652187,15.259893989776833,0.43459490219639674,4692,0,6.6318721360144455,2.0862564635128287,31.45803207186992,0.02046270203742828,0.006437163369705366,0.123046875,,
2.1435950000006705,1180,,,,0.0625,-0.046875,-0.9296875,0.004246156989275602,0.04269044438652187,15.259800659686185,0.43578822079985446,4691,0,6.650041379245088,2.0860351156178716,31.368753916756503,0.020464873322075985,0.0064195757517779665,0.123046875,,
2.1615050000008194,1180,,,,0.03125,0.099609375,-0.984375,0.004246156989275602,0.048270447306253614,15.259518455336272,0.44249123848958793,4703,0,6.752203220056471,2.091088071668022,30.968974178039232,0.023083890133689673,0.007148843974789301,0.123046875,,
2.171165000000969,1180,,,,-0.09375,0.072265625,-0.98046875,0.004246156989275602,0.048270447306253614,15.259399591540827,0.4496399695640152,4731,0,6.8612359679055634,2.1037376615529038,30.661205523224165,0.022945088728706837,0.007035240812594947,0.125,,
2.1800600000005215,1180,,,,-0.0625,-0.0625,-0.9140625,0.004246156989275602,0.048270447306253614,15.259621781759776,0.44558597200847627,4773,0,6.799473404107147,2.122191061155855,31.21110908197639,0.02274557092892618,0.007099144953945461,0.126953125,,
2.1882400000002233,1180,,,,0.0625,0.05859375,-1.001953125,0.004246156989275602,0.048270447306253614,15.259832752584932,0.4396326799603445,4786,0,6.708721168765554,2.1280862782747167,31.7211913379655,0.022682561228385655,0.0071951786476073904,0.126953125,,
2.1963450000006706,1180,,,,-0.03125,-0.056640625,-0.990234375,0.004246156989275602,0.048270447306253614,15.2599728844743,0.436504256109984,4766,0,6.661043112195981,2.1193082880570047,31.816462562397696,0.02277651042006176,0.00724667991081956,0.12890625,,
2.204644999999553,1180,,,,-0.0625,0.02734375,-0.953125,0.004246156989275602,0.048270447306253614,15.260040105125402,0.43417832611298834,4737,0,6.625578669260418,2.106262514497342,31.789865001066453,0.02291758362217889,0.007285468894997185,0.12890625,,
2.212574999999255,1180,,,,-0.03125,0.142578125,-0.9609375,0.004246156989275602,0.048270447306253614,15.259744454548033,0.43219581398858486,4710,0,6.595197675791181,2.0944925941548083,31.75784407255915,0.02304636809934972,0.007319029645379498,0.12890625,,
2.221445000000298,1180,,,,-0.0625,-0.0703125,-0.9609375,0.004246156989275602,0.048270447306253614,15.259538223861844,0.44262726463664537,4710,0,6.754287663646302,2.0942685121247955,31.006504555570036,0.023048834009006588,0.007146637767008403,0.130859375,,
2.229644999999553,1180,,,,0,0.09765625,-1.046875,0.004471691665638953,0.048270447306253614,15.25936525280207,0.44755357321239586,4724,0,6.829383443844641,2.211901664914602,32.38801398548211,0.02182305301900356,0.007068053463854049,0.12890625,,
2.238789999999106,1180,,,,-0.03125,0.142578125,-0.984375,0.004471691665638953,0.048270447306253614,15.259720887054453,0.4492585956639763,4759,0,6.8555607759423305,2.228517675756402,32.5067160600014,0.021660338543139306,0.007041064747853337,0.130859375,,
2.24710000000149,1180,,,,-0.09375,-0.046875,-0.97265625,0.004471691665638953,0.048270447306253614,15.259734917927293,0.4445223561110373,4772,0,6.783293319346907,2.234829829998898,32.94608864435877,0.021599160105303147,0.007116078434730149,0.1328125,,
2.256625,1180,,,,-0.09375,-0.0234375,-0.896484375,0.004471691665638953,0.048270447306253614,15.259825489747953,0.43992444331464353,4757,0,6.713170233655976,2.2277499365287707,33.18476753889114,0.02166780324611636,0.007190410138008022,0.1328125,,
2.263464999999851,1180,,,,-0.09375,0.18359375,-0.939453125,0.004471691665638953,0.048270447306253614,15.259956378416103,0.4401946650387124,4746,0,6.717351386502239,2.2225021895943553,33.085989725953944,0.021718965017111545,0.007185934534145056,0.13671875,,
2.2704800000004473,1180,,,,0,-0.08984375,-1.0546875,0.004471691665638953,0.048270447306253614,15.259958305994072,0.4390348520923536,4736,0,6.69965353780759,2.217790872938963,33.1030680978276,0.02176510323639613,0.00720491694590669,0.13671875,,
2.2785600000005215,1180,,,,-0.03125,-0.02734375,-1.01171875,0.004471691665638953,0.048270447306253614,15.259869824371346,0.4399283217662169,4728,0,6.713248922206621,2.2139805973525797,32.97927163148975,0.021802561126314367,0.007190325856468806,0.138671875,,
2.2865999999996274,1180,,,,0.0625,0.234375,-1.0390625,0.004471691665638953,0.048270447306253614,15.259942045800175,0.43700689993316433,4721,0,6.668699966594884,2.2105237915172777,33.14774697602713,0.021836655860248102,0.00723835943258084,0.138671875,,
2.2988800000008194,1180,,,,-0.125,0.09765625,-0.96875,0.004471691665638953,0.048270447306253614,15.259945206724327,0.43329834978998916,4714,0,6.612109075959306,2.2072639549208004,33.38214674869929,0.021868905709551,0.007300310196296994,0.138671875,,
2.3151999999992547,1180,,,,0.03125,-0.037109375,-1.029296875,0.004471691665638953,0.05093267226171312,15.259761974298252,0.43725003341172786,4692,0,6.672331433116925,2.1972010641346693,32.930034818553146,0.02318070616890589,0.007633414612607207,0.140625,,
2.322679999999702,1180,,,,-0.0625,0.1171875,-1.080078125,0.004471691665638953,0.05093267226171312,15.259579411394473,0.4367164883178397,4690,0,6.664109933751401,2.19611804665811,32.95440904321724,0.023192137753805492,0.007642831941255476,0.142578125,,
2.331445000000298,1180,,,,-0.125,-0.16015625,-0.9140625,0.004471691665638953,0.05093267226171312,15.259534710507033,0.4371611264624158,4688,0,6.670875383337588,2.1952972934751354,32.908683903142844,0.023200808570709424,0.007635080755508038,0.142578125,,
2.339320000000298,1180,,,,0.0625,0.078125,-0.990234375,0.004471691665638953,0.05093267226171312,15.259361067057032,0.4423862642091556,4689,0,6.750531736673995,2.195555135121418,32.5241806240759,0.023198083913705248,0.007544986713418191,0.142578125,,
2.347839999999851,1180,,,,-0.09375,0.2265625,-0.9765625,0.004471691665638953,0.05093267226171312,15.259323020000298,0.4420969152064451,4689,0,6.746099635280828,2.1956625335405997,32.54714060340436,0.023196949204931785,0.007549943673429437,0.14453125,,
2.3564199999999254,1180,,,,-0.0625,-0.046875,-0.9140625,0.004471691665638953,0.05093267226171312,15.259554111954095,0.4408855814483872,4688,0,6.727717387292009,2.1951154033548774,32.62793718864042,0.023202731019913943,0.007570572503226709,0.14453125,,
2.3641150000002233,1180,,,,-0.0625,0.041015625,-1.00390625,0.004471691665638953,0.05093267226171312,15.259576077622109,0.4398469752123745,4692,0,6.711878380765194,2.1972370658615445,32.73654469303787,0.02318032635306115,0.0075884378965619,0.14453125,,
2.3720099999997766,1180,,,,-0.15625,0.107421875,-1.03515625,0.004471691665638953,0.05093267226171312,15.25977003191708,0.44053499240825844,4697,0,6.722462675162361,2.1992982328186335,32.71566298083635,0.023158601912955438,0.007576490152916022,0.14453125,,
2.3805900000017135,1180,,,,0,-0.02734375,-0.9453125,0.004756388825842106,0.05093267226171312,15.259710123179177,0.4394053099194756,4692,0,6.705197655956905,2.3372195495577506,34.856833004488124,0.02179199308483904,0.007595998637931946,0.14453125,,
2.3883499999996274,1180,,,,-0.0625,0.19921875,-0.955078125,0.004756388825842106,0.05093267226171312,15.259919273564705,0.438764801693299,4690,0,6.695515453921369,2.3359864575194513,34.888821832997664,0.021803496376343618,0.007606983004106627,0.146484375,,
2.3965100000016393,1180,,,,-0.125,-0.09765625,-1,0.004756388825842106,0.05093267226171312,15.259989521122174,0.43760459717245637,4691,0,6.677841567246574,2.336323460753616,34.98620680389899,0.021800351328614416,0.007627115999805581,0.146484375,,
2.4045250000003726,1180,,,,0.0625,0.134765625,-0.978515625,0.004756388825842106,0.05093267226171312,15.259791745868467,0.4344596866951802,4687,0,6.629764340943711,2.3345888949438915,35.2137538362574,0.021816548674595326,0.007682425745839275,0.146484375,,
2.412449999999255,1180,,,,-0.15625,0.115234375,-0.947265625,0.004756388825842106,0.05093267226171312,15.259352991923109,0.4350044467480778,4687,0,6.637886405985138,2.3345326509933257,35.169819249819696,0.021817074282530022,0.007673025590764705,0.1484375,,
2.4206300000008194,1180,,,,-0.0625,-0.11328125,-0.9765625,0.004756388825842106,0.05093267226171312,15.25925400954031,0.4391519332203818,4688,0,6.70113089779049,2.335128362208043,34.846780309544265,0.021811508560305597,0.007600608470207132,0.1484375,,
2.428335000000894,1180,,,,0,0.037109375,-1.025390625,0.004756388825842106,0.05093267226171312,15.259291277388783,0.43688511027888577,4689,0,6.666557152499638,2.3357823206082795,35.03731037140323,0.021805401904253365,0.007640026342925122,0.1484375,,
2.4366850000005216,1180,,,,-0.0625,-0.009765625,-0.9609375,0.004756388825842106,0.05093267226171312,15.259326516943661,0.4366808364111324,4704,0,6.66345546648953,2.3431320309934027,35.16391822196452,0.021737004824316078,0.007643582600326988,0.150390625,,
2.444405000001192,1180,,,,0.0625,0.0859375,-0.9375,0.004756388825842106,0.05093267226171312,15.259422425123288,0.4337974503205223,4709,0,6.619498541382284,2.3453311700196955,35.43064713071065,0.021716622757921817,0.007694339978066882,0.1484375,,
2.4555099999997765,1180,,,,-0.03125,0.1328125,-0.96875,0.004756388825842106,0.0522395339437672,15.259450999091541,0.43246089086661366,4703,0,6.599115773202565,2.3424866026315514,35.49697691535933,0.02230088910010468,0.007916141455784044,0.150390625,,
2.4776349999997764,1180,,,,-0.125,0.029296875,-1.0078125,0.004756388825842106,0.0522395339437672,15.259844143882203,0.4357738354933345,4699,0,6.649840811610047,2.340566765688601,35.19733527458543,0.022319181281033953,0.00785575706602803,0.150390625,,
2.4862799999993292,1180,,,,-0.0625,0.095703125,-1,0.004756388825842106,0.0522395339437672,15.259749212107234,0.4355351070539939,4695,0,6.646156506712224,2.3385787181237254,35.186934219227304,0.0223381550250657,0.007860111914458887,0.15234375,,
2.4943650000002235,1180,,,,0,0.064453125,-0.96875,0.004756388825842106,0.0522395339437672,15.259629716887257,0.43776096838108025,4691,0,6.680070282001275,2.33671339105611,34.980371349566944,0.022355986893264995,0.007820207234124611,0.15234375,,
2.5025499999988825,1180,,,,0.0625,0.22265625,-1.04296875,0.004756388825842106,0.0522395339437672,15.259451730589985,0.43719678448615407,4690,0,6.67138322963562,2.3359888353026514,35.01505991929412,0.022362921069782864,0.007830390212288919,0.15234375,,
2.5114900000002236,1180,,,,-0.1875,0.0625,-0.990234375,0.004756388825842106,0.0522395339437672,15.259408463661472,0.4331187655975234,4688,0,6.609136157529457,2.3350287094536606,35.330316304551836,0.022372116339413217,0.007904139466737013,0.15234375,,
2.519754999998957,1180,,,,0.0625,0.05859375,-1.0390625,0.004756388825842106,0.0522395339437672,15.259305461016627,0.43493265881476173,4676,0,6.636770295826575,2.329122704758598,35.09421903939072,0.022428845778299848,0.007871228265443687,0.15234375,,
2.528039999999106,1180,,,,-0.0625,-0.03515625,-1.013671875,0.004838268376376754,0.0522395339437672,15.259342978772745,0.43200723324680335,4680,0,6.592146541423648,2.371158660619549,35.96944706431649,0.022031226678908857,0.007924510417889693,0.154296875,,
2.5365999999996274,1180,,,,-0.0625,-0.037109375,-0.96875,0.004838268376376754,0.0522395339437672,15.259285580397746,0.4306471181429395,4686,0,6.571367360118401,2.3740110076647305,36.126590975153704,0.022004756412294078,0.007949568344148387,0.154296875,,
2.545120000001043,1180,,,,0,0.134765625,-0.98046875,0.004838268376376754,0.0522395339437672,15.259329124613897,0.4310404397286748,4697,0,6.577387935838148,2.379607591892802,36.17861094868767,0.02195300356316922,0.007942291750670532,0.15625,,
2.5523799999989567,1180,,,,0,0.0390625,-0.94140625,0.004838268376376754,0.0522395339437672,15.25924122380284,0.4297775199564298,4699,0,6.558078849582902,2.3809646428546003,36.30582518851586,0.02194049126287565,0.007965676403401229,0.154296875,,
2.560550000000745,1180,,,,-0.0625,-0.0234375,-0.880859375,0.004838268376376754,0.0522395339437672,15.259082193568208,0.4347165056518827,4693,0,6.633374890642837,2.3777890741342613,35.84584187286649,0.021969793078802542,0.007875257286823525,0.154296875,,
2.568699999999255,1180,,,,-0.03125,0.0390625,-1.037109375,0.004838268376376754,0.0522395339437672,15.259127235989432,0.43440843668312334,4691,0,6.6286936077350385,2.3765381781799535,35.85228581702381,0.021981356926390423,0.007880818911709657,0.154296875,,
2.578574999999255,1180,,,,-0.125,-0.05859375,-0.9921875,0.004838268376376754,0.0522395339437672,15.259102252706004,0.4365575828647229,4699,0,6.661476796126982,2.380672866149425,35.73791426450005,0.021943180302744014,0.007842034963499316,0.154296875,,
2.5871900000013413,1180,,,,-0.0625,0.123046875,-0.947265625,0.004838268376376754,0.0522395339437672,15.25922707503474,0.4351314940208699,4711,0,6.639770274763576,2.3869456844587833,35.94922091704108,0.021885514313917876,0.007867671889540984,0.15625,,0.09141500000003726,31813,
2.596480000000447,1180,,,,0.0625,0.0859375,-1.015625,0.004838268376376754,0.0522395339437672,15.259273380241108,0.4326534621249484,4710,0,6.601977457472379,2.386424307322285,36.147113841190645,0.021890295779958418,0.007912710135754921,0.15625,,
2.6103149999994786,1450,,,,-0.25,0.0546875,-0.9375,0.004838268376376754,0.05281230495779676,15.25938238106551,0.4312822426139344,4710,0,6.581100654209491,2.3862608833249594,36.25929777868733,0.022131823610253943,0.008024843826695806,0.15625,,
2.618940000001341,1450,,,,-0.0625,0.05859375,-1.0234375,0.004838268376376754,0.05281230495779676,15.259367600953926,0.4299174644350778,4695,0,6.560268627884888,2.3786628228832805,36.25861923965438,0.02220251834338617,0.008050326587742811,0.15625,,
2.627804999999702,1450,,,,-0.03125,-0.015625,-0.927734375,0.004838268376376754,0.05281230495779676,15.259402632653513,0.4322348703066744,4690,0,6.595645917882317,2.3763257897689356,36.02870468419429,0.022224353741888237,0.008007146777635595,0.158203125,,
2.636890000000596,1450,,,,0.03125,0.1171875,-1.005859375,0.004838268376376754,0.05281230495779676,15.242038707215949,1.0595679918466012,4695,0,16.14997634465297,2.3786537007402218,14.728527460213654,0.022202603490101107,0.0032701165519218966,0.158203125,,
2.645230000000447,1450,,,,0,0.560546875,-1.0703125,0.004838268376376754,0.05281230495779676,15.20449476268209,2.1422277619625967,5146,0,32.57149078723248,2.6073106687240815,8.004885885499927,0.020255470738989877,0.0016214273182269684,0.1640625,,
2.654800000000745,1450,,,,0.0625,-0.15234375,-1.06640625,0.004838268376376754,0.05281230495779676,15.187333779833391,2.5867361930912756,7273,0,39.28562596485276,3.685020173491298,9.38007243867804,0.014331618952240582,0.0013443162393554774,0.16796875,,
2.6626899999994786,1450,,,,-0.09375,-0.29296875,-0.951171875,0.004838268376376754,0.05281230495779676,15.176929823436446,2.9014558307724894,9347,0,44.03519152943456,4.7358223346878106,10.754630944485008,0.011151665165090741,0.001199320432670204,0.171875,,
2.6719150000009684,1450,,,,-0.4375,0.58984375,-0.6796875,0.004838268376376754,0.05281230495779676,15.171084158183787,3.0683122541980024,10660,0,46.5496234320245,5.401224149419763,11.603153261394402,0.009777839892734359,0.0011345377484077296,0.177734375,,
2.6808450000006707,1450,,,,-0.09375,-0.38671875,-1.078125,0.00493361998760951,0.05281230495779676,15.167221391512523,3.1906584264526194,11395,0,48.39342273870186,5.887131007612446,12.165146985778934,0.008970805115345148,0.0010913116280895127,0.181640625,,
2.6889749999996275,1450,,,,0.03125,0.044921875,-1.119140625,0.00493361998760951,0.05281230495779676,15.164581435886548,3.2740272173230753,11815,0,49.6492523604048,6.10397242978485,12.29418800806104,0.008652120494531504,0.0010637079602816837,0.18359375,,
2.6966850000005214,1450,,,,0.03125,-0.166015625,-0.91796875,0.00493361998760951,0.05281230495779676,15.163326070474561,3.317945606427705,12081,0,50.311091114361744,6.241724210728099,12.406258883434042,0.008461172454083196,0.0010497149592273705,0.18359375,,
2.7047050000000743,1450,,,,-0.125,0.57421875,-1.0625,0.00493361998760951,0.05281230495779676,15.162244916175162,3.335923781126128,12236,0,50.580093391127456,6.321783248712431,12.498559857980355,0.008354020199688615,0.0010441322152058515,0.1875,,
2.712379999998957,1450,,,,-0.03125,-0.197265625,-0.998046875,0.00493361998760951,0.05281230495779676,15.161455537681869,3.3467042651356014,12356,0,50.740907913623694,6.383548405838873,12.580674387430344,0.008273189392515715,0.0010408230189278287,0.189453125,,
2.7205600000005217,1450,,,,-0.125,-0.16015625,-0.99609375,0.00493361998760951,0.05281230495779676,15.161316145200717,3.355732547853628,12423,0,50.877322056748746,6.418378685405275,12.61540196287492,0.008228293708796965,0.0010380323260506857,0.189453125,,
2.728914999999106,1450,,,,-0.03125,-0.01953125,-1.017578125,0.00493361998760951,0.05281230495779676,15.16076694187652,3.356217127556734,12439,0,50.88282567722191,6.426428577833716,12.629857898616184,0.008217986758610995,0.001037920049739663,0.19140625,,
2.7378950000014157,1450,,,,-0.15625,-0.072265625,-0.8984375,0.00493361998760951,0.05281230495779676,15.160577909319876,3.3719728876682455,12456,0,51.12105767160875,6.435456657267037,12.588661014424032,0.008206458029386327,0.0010330831826104272,0.19140625,,
2.7466300000008195,1450,,,,0,0.17578125,-1.1328125,0.00493361998760951,0.05281230495779676,15.160110008839961,3.3753602568476238,12501,0,51.170832813276284,6.458671049188023,12.621782163983697,0.008176961569274575,0.0010320782769064998,0.19140625,,
2.7582400000002236,1450,,,,-0.125,-0.078125,-0.95703125,0.00493361998760951,0.05315158951582163,15.159664022898,3.380615035585516,12521,0,51.24898813023378,6.468684832574618,12.622073271254477,0.008216753620173921,0.001037124662456807,0.19140625,,
2.7663850000016392,1450,,,,-0.041015625,0.0703125,-1.00390625,0.00493361998760951,0.05315158951582163,15.159330439893747,3.3876633078254246,12487,0,51.3547075024291,6.451611441901292,12.56284332180478,0.008238498241015866,0.0010349896260884658,0.19140625,,
2.775530000001192,1450,,,,0.0625,-0.05078125,-1,0.00493361998760951,0.05315158951582163,15.159533559052184,3.3950927882612154,12491,0,51.468023059741945,6.45335836602518,12.538578290707589,0.008236268079523889,0.0010327109213836613,0.189453125,,
2.7835400000009685,1450,,,,-0.0625,0.046875,-1.12109375,0.00493361998760951,0.05315158951582163,15.159363165506308,3.4027873853407296,12489,0,51.58408974938378,6.452394349776545,12.508497060091333,0.008237498614396118,0.0010303872720068027,0.19140625,,
2.7948899999987336,1450,,,,-0.09375,0.11328125,-0.994140625,0.00493361998760951,0.05315158951582163,15.158951921192557,3.412408373625689,12432,0,51.72853447126671,6.422940446958794,12.416629453375487,0.008275273600113861,0.0010275100591791435,0.189453125,,
2.8032900000009686,1450,,,,-0.03125,-0.0625,-1.03125,0.00493361998760951,0.05315158951582163,15.158693384016185,3.416860922227309,12477,0,51.79514705587055,6.446023347947729,12.44522646300147,0.008245640241552013,0.0010261886013855296,0.189453125,,
2.8108950000014157,1450,,,,-0.125,0.13671875,-0.986328125,0.00493361998760951,0.05315158951582163,15.158328681426283,3.4207549385650347,12484,0,51.85292769738097,6.4496833624142695,12.438416978218253,0.008240961071913107,0.0010250451011371967,0.189453125,,
2.8191850000005214,1450,,,,0,-0.046875,-0.9140625,0.00493361998760951,0.05315158951582163,15.158513148054611,3.425182380432202,12482,0,51.920672148266526,6.448646109747707,12.420189960817,0.008242286615089365,0.0010237076547090925,0.189453125,,
2.8277099999990316,1450,,,,-0.09375,0.041015625,-0.91796875,0.016958379599803213,0.05315158951582163,15.158584907083036,3.4180697285204444,12472,0,51.81310019810742,22.149166012537982,42.74819674532239,0.0023997106476033496,0.00102583302895593,0.189453125,,
2.8367450000010432,1450,,,,-0.0625,-0.15234375,-1,0.016958379599803213,0.05315158951582163,15.158738459243555,3.4229582210639693,12482,0,51.88772843002629,22.16693961113818,42.72096752323938,0.002397786543755217,0.0010243576106342702,0.1875,,
2.8448499999996275,1450,,,,-0.0625,0.1484375,-0.98828125,0.016958379599803213,0.05315158951582163,15.158408409161474,3.4335075633783636,12518,0,52.04650992163411,22.230256386048364,42.71229025638843,0.0023909571078622105,0.0010212325398158576,0.1875,,
2.853910000000149,1450,,,,-0.09375,0.14453125,-0.919921875,0.016958379599803213,0.05315158951582163,15.158422515276355,3.4377882678168477,12485,0,52.1114470816278,22.17148726924919,42.546289751884245,0.002397294726797168,0.0010199599606697648,0.1875,,
2.8618849999997766,1450,,,,0.03125,0.04296875,-0.91796875,0.016958379599803213,0.05315158951582163,15.158500201648799,3.421251967474667,12516,0,51.86104863885609,22.226895845003273,42.85855459611766,0.002391318602762535,0.0010248845889320993,0.1875,,
2.8706399999987333,1450,,,,-0.03125,0.02734375,-1.01171875,0.016958379599803213,0.05315158951582163,15.158362689078663,3.424106666257862,12501,0,51.9038507332287,22.200218094916004,42.77181323023397,0.002394192223183325,0.0010240394260727583,0.185546875,,
2.8792599999997766,1450,,,,0.125,0.015625,-0.98828125,0.016958379599803213,0.05315158951582163,15.158115647676237,3.4201203701883225,12484,0,51.842580100287854,22.17036854586782,42.76478621044696,0.002397415695001073,0.00102524969654291,0.185546875,,
2.8880950000006704,1450,,,,-0.125,0.00390625,-0.94921875,0.016958379599803213,0.05315158951582163,15.1582203837658,3.4227052844690475,12511,0,51.882121010661635,22.218792095025726,42.82552768122149,0.002392190776550857,0.0010244683231994142,0.185546875,,
2.896484999999404,1450,,,,-0.03125,0.052734375,-0.955078125,0.016958379599803213,0.05315158951582163,15.158025644990891,3.4230903284771803,12492,0,51.88729098417739,22.183529106423055,42.75329986525553,0.0023959934084803497,0.0010243662466793608,0.185546875,,
2.903609999999404,1450,,,,-0.0625,0.08203125,-1.015625,0.016958379599803213,0.14220257264144548,15.157590735086579,3.4330283922612295,12489,0,52.03643935182799,22.17964891717487,42.62330242700536,0.006411398718368826,0.0027327498655314903,0.185546875,,
2.915089999999851,1450,,,,0.03125,-0.033203125,-0.96875,0.016958379599803213,0.14220257264144548,15.157354092226605,3.4359640970855185,12480,0,52.08012446770287,22.163646744401706,42.55682368452544,0.006416027753977999,0.002730457618810635,0.18359375,,
2.9318149999994785,1450,,,,0.125,-0.00390625,-0.890625,0.016958379599803213,0.14220257264144548,15.155593250183982,3.5011601001071138,12577,0,53.06215838099685,22.335134827796136,42.092397876892655,0.006366765803646459,0.00267992439396081,0.181640625,,
2.9488300000000747,1450,,,,-0.0625,-0.015625,-1.01171875,0.016958379599803213,0.14220257264144548,15.155910560345944,3.483590307585028,12567,0,52.7969831306467,22.316847560653695,42.26917190595989,0.006371982971831535,0.002693384436181963,0.181640625,,
2.9567149999998508,1450,,,,-0.125,0.046875,-0.97265625,0.016958379599803213,0.14220257264144548,15.155788539455774,3.4866928497126226,12585,0,52.843579532276955,22.349748952644944,42.29416165684551,0.0063626026825959825,0.0026910094641599343,0.1796875,,
2.965144999999553,1450,,,,0,-0.08203125,-1.0234375,0.016958379599803213,0.14220257264144548,15.155799122180444,3.486180064473556,12557,0,52.83584476091128,22.299322872250055,42.20491405627608,0.0063769906133969035,0.0026914034077609563,0.1796875,,
2.973905000001192,1450,,,,-0.09375,0.037109375,-1.05078125,0.016958379599803213,0.14220257264144548,15.155919231372607,3.4975493279509653,12550,0,53.00857512216637,22.287070528075958,42.044273924948925,0.006380496371755405,0.0026826333723122702,0.1796875,,
2.9818699999991805,1450,,,,0,0.21875,-0.953125,0.02215686633690755,0.14220257264144548,15.155923231338425,3.492753756463514,12574,0,52.935907798929925,29.175966893032093,55.1156447601752,0.004873962640648828,0.002686315934763662,0.1796875,,
2.9897050000000744,1450,,,,0,0.044921875,-0.931640625,0.02215686633690755,0.14220257264144548,15.155927035851043,3.5022988649665123,12558,0,53.08058605517638,29.13689246957603,54.89180627977377,0.004880498934123796,0.0026789940204056577,0.1796875,,
2.9980250000003723,1450,,,,0,-0.11328125,-1.02734375,0.02215686633690755,0.14220257264144548,15.155930674361123,3.5067301615342705,12542,0,53.147759221904586,29.09996133429743,54.752941159378224,0.0048866928381050626,0.0026756080542872144,0.1796875,,
3.006425000000745,1450,,,,-0.03125,-0.02734375,-0.97265625,0.02215686633690755,0.14220257264144548,15.155934532296287,3.511901489408802,12540,0,53.226149057353624,29.09549114278387,54.66390422390345,0.004887443622917288,0.002671667501028783,0.1796875,,
3.026304999999702,1450,,,,-0.03125,0.078125,-0.962890625,0.02215686633690755,0.14220257264144548,15.156053954987213,3.5040325416221725,12525,0,53.107306260856625,29.062231592922856,54.72360328383578,0.004893036936505392,0.002677646121664762,0.177734375,,
3.0344850000012666,1450,,,,-0.0625,0.181640625,-0.9609375,0.02215686633690755,0.14220257264144548,15.156322197568738,3.4927542031767818,12534,0,52.93730806025977,29.08120447701148,54.935178124107985,0.004889844667673782,0.0026862448781787883,0.177734375,,
3.0426300000008197,1450,,,,0.03125,-0.0234375,-0.978515625,0.02215686633690755,0.14220257264144548,15.156306066345008,3.488497873923146,12508,0,52.87274148897304,29.022911802627885,54.89201237783519,0.0048996659469767515,0.002689525238087054,0.177734375,,
3.0520600000005214,1450,,,,-0.1875,0.0546875,-0.97265625,0.02215686633690755,0.18236574469639052,15.156736750157393,3.488913012125844,12523,0,52.880536068990104,29.057244563651327,54.94884644463903,0.006276085273567814,0.0034486364597073817,0.177734375,,
3.059554999999702,1450,,,,0.0625,0.021484375,-0.986328125,0.02215686633690755,0.18236574469639052,15.156701044811046,3.494154000660858,12525,0,52.95984759254712,29.061695846491997,54.87496125381932,0.006275123986558537,0.0034434718562531192,0.177734375,,
3.0710800000000744,1450,,,,-0.0625,0.013671875,-1.01953125,0.02215686633690755,0.18236574469639052,15.156563645822631,3.5013673797157105,12529,0,53.068697538068385,29.070501630747884,54.77899963513219,0.0062732231804181245,0.003436408903112272,0.177734375,,
3.0888849999997765,1450,,,,-0.09375,0.107421875,-0.994140625,0.02215686633690755,0.18236574469639052,15.15632650852223,3.49577711655308,12505,0,52.98313937949885,29.014947882383318,54.76260603313793,0.006285234267372767,0.0034419580801011316,0.177734375,,
3.096644999999553,1450,,,,-0.03125,0.099609375,-0.978515625,0.02215686633690755,0.18236574469639052,15.156106216185549,3.486667441829172,12506,0,52.844302088878884,29.017826692953157,54.91193098576276,0.006284610719681402,0.003451001101115299,0.177734375,,
3.1133050000015645,1450,,,,-0.125,0.0546875,-0.986328125,0.02215686633690755,0.18236574469639052,15.15489314588007,3.528800969148391,12567,0,53.4786016205219,29.15805822620147,54.52285090231743,0.006254385778423216,0.0034100694328254356,0.177734375,,
3.121820000000298,1450,,,,-0.03125,-0.001953125,-1.07421875,0.02215686633690755,0.18236574469639052,15.15556258446602,3.494038612470455,12558,0,52.9541208638368,29.138891913613424,55.0266748616968,0.0062584996449776085,0.0034438442508622773,0.177734375,,
3.129815000001341,1450,,,,0,0.03125,-1.0703125,0.0242296335508532,0.18236574469639052,15.155584063900774,3.495353154153292,12542,0,52.974118560790934,31.82320695408094,60.07312215598628,0.005730589784980936,0.0034425442017900695,0.177734375,,
3.157765000000596,1450,,,,-0.08203125,-0.03125,-0.98828125,0.0242296335508532,0.18236574469639052,15.155334817351264,3.4956097098783343,12570,0,52.97713554399027,31.893442344422464,60.20227786370087,0.005717969942754791,0.0034423481531001368,0.177734375,,
3.1657400000002234,1450,,,,-0.03125,0.05078125,-1.029296875,0.0242296335508532,0.18236574469639052,15.155535127795902,3.494917322364216,12553,0,52.967342247833265,31.852065108827272,60.13529045839607,0.005725397837575401,0.003442984619524695,0.177734375,,
3.1739900000002237,1450,,,,-0.03125,0.0390625,-0.998046875,0.0242296335508532,0.18236574469639052,15.155557854744206,3.496394190896487,12549,0,52.98980444312327,31.84070158759657,60.08835458483879,0.0057274411556129294,0.0034415251502226854,0.177734375,,
3.181914999999106,1450,,,,0,0.087890625,-0.96875,0.0242296335508532,0.18236574469639052,15.155382538698811,3.4992065774875774,12538,0,53.03181426375526,31.813559350111994,59.9895737903409,0.005732327611929048,0.003438798902662263,0.177734375,,
3.1916399999987335,1450,,,,-0.15625,0.068359375,-0.939453125,0.0242296335508532,0.18236574469639052,15.155051717161014,3.488799729673155,12540,0,52.872940334014025,31.81846761913562,60.17911509768312,0.0057314433516815816,0.0034491318913669657,0.177734375,,
3.1999049999993296,1450,,,,0.0625,0.001953125,-0.9453125,0.0242296335508532,0.19943374114874862,15.155162185123713,3.482581443850498,12512,0,52.7790866044566,31.74577938465712,60.14840617188049,0.006282212785902993,0.003778650863046741,0.177734375,,
3.2077449999991803,1450,,,,-0.125,-0.03515625,-0.94140625,0.0242296335508532,0.19943374114874862,15.155789162480339,3.488482186447212,12523,0,52.87070051486238,31.77613280316221,60.10159217434556,0.006276211846927513,0.003772103248238336,0.17578125,,
3.2159350000005213,1450,,,,-0.0625,0.140625,-1.013671875,0.0242296335508532,0.19943374114874862,15.15579960035061,3.486229802742554,12493,0,52.836600251135984,31.69877932939514,59.993979890319714,0.006291527477331226,0.003774537729544035,0.17578125,,
3.2278849999997763,1450,,,,0.03125,0.13671875,-0.93359375,0.0242296335508532,0.19943374114874862,15.15600827249014,3.494628564045016,12493,0,52.96461942594661,31.698036775274144,59.84756828016729,0.006291674861842411,0.003765414408907258,0.17578125,,
3.2466100000012665,1450,,,,-0.0625,0.068359375,-0.9609375,0.0242296335508532,0.19943374114874862,15.155721483219773,3.490172075193559,12490,0,52.896075900144766,31.690826464051515,59.911488564626744,0.006293106346562979,0.0037702936891808795,0.173828125,,
3.254960000000894,1450,,,,0.0625,-0.087890625,-0.93359375,0.0242296335508532,0.19943374114874862,15.15583436324469,3.4748203054001756,12511,0,52.663800990684386,31.743553336075514,60.27584932901174,0.006282653332388553,0.00378692265649466,0.17578125,,
3.2628600000012664,1450,,,,0.03125,-0.0390625,-1.05859375,0.0242296335508532,0.19943374114874862,15.156169468835548,3.468990301169002,12476,0,52.576604890264264,31.656330567089093,60.20991776315889,0.006299963943265306,0.003793203109348703,0.173828125,,
3.271984999999404,1450,,,,-0.1875,0.0546875,-0.91015625,0.0242296335508532,0.19943374114874862,15.15583245924129,3.4713509383381127,12511,0,52.61121322868248,31.745684679248807,60.340149430239244,0.006282231527332986,0.0037907078911463255,0.173828125,,
3.2809600000008943,1450,,,,0,0.228515625,-0.970703125,0.025016213329347475,0.19943374114874862,15.155767668126993,3.480974889215609,12487,0,52.75684667953587,32.71163909496917,62.004538090897434,0.006096721126377925,0.0037802437731007913,0.173828125,,
3.288785000000149,1450,,,,0,-0.021484375,-1.0625,0.025016213329347475,0.19943374114874862,15.155199383537958,3.4743034302293547,12490,0,52.65376120403573,32.720733351419824,62.14320231488399,0.006095026630571982,0.0037876447301824034,0.17578125,,
3.296920000001788,1450,,,,-0.0625,-0.14453125,-0.89453125,0.025016213329347475,0.19943374114874862,15.155239227980804,3.471440990850593,12492,0,52.61051868215946,32.72443685872989,62.20131958103454,0.006094336840988167,0.0037907579348077742,0.17578125,,
3.304949999999255,1450,,,,-0.03125,0.03515625,-1.06640625,0.025016213329347475,0.19943374114874862,15.155472891361848,3.4761032661699667,12516,0,52.68198881801331,32.78727657600774,62.236216421649104,0.0060826565050750596,0.0037856152666840316,0.17578125,,
3.312905000001192,1450,,,,-0.09375,0.13671875,-0.86328125,0.025016213329347475,0.19943374114874862,15.155498480285821,3.4838395765793995,12505,0,52.79932540840869,32.75844874135632,62.043309242998944,0.006088009317027609,0.003777202447306027,0.17578125,,
3.3209199999999255,1450,,,,0,-0.17578125,-1.03125,0.025016213329347475,0.19943374114874862,15.155523159770151,3.4780924122178836,12521,0,52.71231010518897,32.80070757224698,62.2258965823964,0.006080165822931563,0.0037834376970156064,0.17578125,,
3.329089999999851,1450,,,,-0.09375,-0.03515625,-1.017578125,0.025016213329347475,0.19943374114874862,15.155941950072735,3.4767208694575698,12504,0,52.69297967410534,32.755916321211465,62.1637199562441,0.006088479992226718,0.0037848256519597695,0.17578125,,
3.337144999999553,1450,,,,-0.0625,0.16015625,-1.04296875,0.025016213329347475,0.19943374114874862,15.155944857576294,3.4741988240078854,12520,0,52.65476580091992,32.799749752766566,62.292081740098695,0.006080343376154171,0.003787572465952633,0.17578125,,
3.3457550000008194,1450,,,,0,-0.033203125,-1.013671875,0.025016213329347475,0.19943374114874862,15.155752707041561,3.4728774434313694,12504,0,52.63407171450855,32.75556869115599,62.23263301540653,0.006088544608373591,0.003789061622108457,0.17578125,,
3.353219999998808,1450,,,,-0.09375,0.11328125,-1.015625,0.025016213329347475,0.20678614037964488,15.155657632434982,3.4755418050104354,12484,0,52.67412168395326,32.70485114407554,62.08902986613787,0.006322797173687917,0.003925763425546412,0.17578125,,
3.3634150000009684,1450,,,,-0.03125,0.064453125,-0.951171875,0.025016213329347475,0.20678614037964488,15.155529327160762,3.4719346842674716,12490,0,52.61900792940231,32.71894747181803,62.18085205201185,0.0063200731184203576,0.003929875315343934,0.173828125,,
3.3719749999996274,1450,,,,-0.09375,0.1328125,-0.978515625,0.025016213329347475,0.20678614037964488,15.155776827013177,3.4735633849912877,12510,0,52.64455145741241,32.772843623958124,62.25305889531645,0.006309679524680513,0.003927968510605083,0.173828125,,
3.3826300000008196,1450,,,,0.0625,-0.20703125,-0.8828125,0.025016213329347475,0.20678614037964488,15.155523842742468,3.471392721319925,12550,0,52.610775155486785,32.87686336540745,62.49074123740357,0.006289716208062056,0.003930490280147091,0.173828125,,
3.3920999999996275,1450,,,,-0.1875,0.09375,-0.94140625,0.025016213329347475,0.20678614037964488,15.155560178139913,3.464585732606115,12491,0,52.50773756283693,32.722397675405006,62.31919178815415,0.006319406738799909,0.003938203205426254,0.17578125,,
3.3999399999994786,1450,,,,0.09375,-0.091796875,-0.953125,0.025016213329347475,0.20678614037964488,15.155817251176904,3.4682489456079293,12514,0,52.56414720122076,32.783155808270884,62.367901989874795,0.0063076947682832495,0.003933976890903358,0.17578125,,
3.408464999999851,1450,,,,-0.09375,-0.005859375,-0.990234375,0.025016213329347475,0.20678614037964488,15.155925584210564,3.4715615125944983,12485,0,52.61472794589168,32.70644605376421,62.1621498972666,0.00632248884637974,0.003930194993924536,0.17578125,,
3.4160600000005217,1450,,,,-0.09375,0.10546875,-0.962890625,0.025016213329347475,0.20678614037964488,15.155994079743405,3.4795569755335842,12513,0,52.73614492131687,32.779892184586615,62.15830192649597,0.0063083227734616375,0.003921146316026189,0.173828125,,
3.4238050000015647,1450,,,,0.0625,0.19921875,-1.0859375,0.025016213329347475,0.20678614037964488,15.15569978304378,3.4816390863723203,12485,0,52.76667674596972,32.70586649736632,61.98204722048253,0.006322600882514352,0.003918877464562691,0.17578125,,
3.432125,1450,,,,-0.03125,0.005859375,-0.890625,0.025523791724916353,0.20678614037964488,15.15512499367556,3.472904434599069,12508,0,52.63230079743904,33.433269917251764,63.52234162424939,0.0061850408557537475,0.003928882781991294,0.173828125,,
3.4403800000008196,1450,,,,0.125,0.078125,-1.05078125,0.025523791724916353,0.20678614037964488,15.155299471811071,3.474412026504803,12487,0,52.65575475014227,33.376073777537194,63.385424700321124,0.006195640079116087,0.003927132777051043,0.173828125,,
3.4491899999994784,1450,,,,-0.0625,0.00390625,-1.015625,0.025523791724916353,0.20678614037964488,15.155337869969854,3.4750542311458807,12484,0,52.66562098948414,33.36880533044551,63.35974911813598,0.0061969896234485315,0.0039263970782939086,0.173828125,,
3.4571699999999255,1450,,,,-0.09375,0.005859375,-0.96875,0.025523791724916353,0.20678614037964488,15.155370614010243,3.4793011810294643,12486,0,52.730098876265075,33.37424763446523,63.29259444929218,0.006195979086764463,0.003921595915548789,0.173828125,,
3.46485000000149,1450,,,,0.125,0.08203125,-0.9375,0.025523791724916353,0.20678614037964488,15.155466814796581,3.4786797184926623,12487,0,52.72101503292146,33.37637296191143,63.30753105013185,0.006195584541664424,0.003922271607451374,0.173828125,,
3.476745000001043,1450,,,,-0.0625,0.09765625,-1,0.025523791724916353,0.20678614037964488,15.155801617737199,3.48247662884312,12456,0,52.77972492515254,33.29307684436068,63.079292079627024,0.006211085306003227,0.003917908641488571,0.173828125,,
3.4848550000004472,1450,,,,-0.09375,0.037109375,-0.890625,0.025523791724916353,0.20678614037964488,15.156002037467339,3.484361114056735,12452,0,52.80898414391584,33.28184983731644,63.02308286524929,0.006213180498993511,0.00391573789444819,0.173828125,,
3.4932000000011176,1450,,,,0,0.13671875,-0.95703125,0.025523791724916353,0.20678614037964488,15.156067528763646,3.491063933969697,12500,0,52.910800730476005,33.4106839012599,63.14530008996015,0.00618922201624993,0.0039082028153949,0.173828125,,
3.5015499999988826,1450,,,,-0.09375,-0.0703125,-1.029296875,0.025523791724916353,0.20869784226054966,15.156261014852516,3.4964269382555417,12484,0,52.992759295562614,33.36724088164777,62.96566045097749,0.006254572950781047,0.003938233166847478,0.173828125,,
3.5104150000009686,1450,,,,-0.125,0.08203125,-0.978515625,0.025523791724916353,0.20869784226054966,15.156029359147384,3.500647089201358,12465,0,53.05591005994962,33.31622511327818,62.79455969303529,0.006264150321681346,0.003933545613009655,0.173828125,,
3.519055000001565,1450,,,,0,0.19921875,-1.04296875,0.025523791724916353,0.20869784226054966,15.156102982510944,3.5001966667964406,12508,0,53.0493411410084,33.431909588252516,63.02040490830688,0.006242474475160791,0.003934032690544036,0.173828125,,
3.5270050000008197,1450,,,,-0.03125,0.173828125,-0.931640625,0.025523791724916353,0.20869784226054966,15.155971101583953,3.505833966749654,12492,0,53.134318287009194,33.38824411959263,62.83743764104285,0.006250638443669556,0.003927741034207908,0.171875,,
3.538914999999106,1450,,,,0.03125,-0.0859375,-0.970703125,0.025523791724916353,0.20869784226054966,15.15597259025292,3.502107777000348,12519,0,53.077849476328865,33.46090014621327,63.04117532330663,0.006237065988918644,0.003931919705104531,0.173828125,,
3.555210000000894,1450,,,,-0.03125,0.009765625,-0.916015625,0.025523791724916353,0.20869784226054966,15.156043787396893,3.493416585566685,12509,0,52.94637473846723,33.43581457449302,63.150337940325194,0.006241745413307733,0.003941683321878581,0.173828125,,
3.562690000001341,1450,,,,-0.0625,0.203125,-1.03125,0.025523791724916353,0.20869784226054966,15.155915212536433,3.501306329131635,12501,0,53.06550185743624,33.41284571556487,62.96528732608721,0.006246036151399428,0.0039328346092199285,0.173828125,,
3.5703149999994785,1450,,,,-0.03125,0.087890625,-0.990234375,0.025523791724916353,0.20869784226054966,15.15609380672133,3.511173801647301,12481,0,53.21567950946884,33.35980422827205,62.68792306285636,0.006255967236272948,0.003921735927912287,0.171875,,
3.5776549999993295,1450,,,,0,0.01171875,-0.89453125,0.02565681627967069,0.20869784226054966,15.1557993448042,3.5148435667306637,12511,0,53.27026382574585,33.61491787255593,63.10259318879068,0.006208488833790543,0.003917717451958342,0.171875,,
3.5861549999993296,1450,,,,-0.03125,0.01953125,-0.9765625,0.02565681627967069,0.20869784226054966,15.155939286223049,3.5094220373434633,12488,0,53.18858732771073,33.55353833621731,63.08409382915918,0.006219846031417902,0.003923733506488903,0.171875,,
3.5937900000009684,1450,,,,0.03125,0.048828125,-0.955078125,0.02565681627967069,0.20869784226054966,15.155746230868186,3.505728800644642,12488,0,53.13193605681608,33.55243519879852,63.14928024252603,0.006220050527599944,0.003927917138900807,0.169921875,,
3.6019350000005215,1450,,,,-0.1875,0.015625,-1.0390625,0.02565681627967069,0.20869784226054966,15.155560848767157,3.504115583679033,12475,0,53.10683694956083,33.51659332470262,63.11163543130163,0.006226702106587122,0.003929773532902443,0.169921875,,
3.611265000000596,1450,,,,0.0625,-0.056640625,-0.923828125,0.02565681627967069,0.20869784226054966,15.155289453149454,3.5002322637228156,12511,0,53.04703310997183,33.61473907600701,63.36780231671069,0.006208521856696804,0.0039342038569414066,0.169921875,,
3.61885000000149,1450,,,,-0.0625,-0.00390625,-1.025390625,0.02565681627967069,0.20869784226054966,15.15532348221647,3.5046985017636727,12506,0,53.11483950186787,33.60061930588863,63.260323519770786,0.006211130823531417,0.003929181453202178,0.169921875,,
3.62525,1450,,,,-0.0625,-0.02734375,-0.99609375,0.02565681627967069,0.20869784226054966,15.155352410495617,3.5026097017588014,12512,0,53.083284386575585,33.616823962445196,63.3284551830532,0.006208136809524155,0.003931517137122133,0.16796875,,
3.633405000001192,1450,,,,0,0.015625,-0.96875,0.02565681627967069,0.20869784226054966,15.155381292089292,3.5131818169952935,12498,0,53.243609984998734,33.57936194144907,63.06740273792476,0.006215062770532905,0.003919678667906812,0.16796875,,
3.641019999999553,1450,,,,-0.125,0.109375,-0.98046875,0.02565681627967069,0.20869784226054966,15.155541773431919,3.5117559282984336,12518,0,53.2225636694241,33.63345199451004,63.19397202174266,0.006205067570661948,0.003921228664534339,0.16796875,,
3.648934999998659,1450,,,,0,0.12109375,-0.958984375,0.02565681627967069,0.20950498476881005,15.155466175055961,3.5119371949417464,12491,0,53.22504536686055,33.560378024989575,63.053733056816206,0.006242628870652452,0.0039362105438289375,0.16796875,,
3.657030000001192,1450,,,,-0.125,0.109375,-1.01953125,0.02565681627967069,0.20950498476881005,15.155199105386117,3.516082844269917,12480,0,53.28693557594292,33.531639972588685,62.92656841713183,0.006247979071112399,0.003931638824871622,0.16796875,,
3.6650750000011176,1450,,,,0,-0.09765625,-0.95703125,0.02565681627967069,0.20950498476881005,15.155238532835256,3.5151443050454922,12511,0,53.27285042030185,33.61486541399393,63.09943085227439,0.0062325099978413935,0.003932678336449018,0.16796875,,
3.6732599999997766,1450,,,,-0.09375,0.01953125,-1.00390625,0.02565681627967069,0.20950498476881005,15.154688754429088,3.526141207819072,12477,0,53.437572508664694,33.521722502203474,62.730623657667195,0.006249827548540763,0.003920555798728313,0.16796875,,
3.681125,1450,,,,-0.125,-0.17578125,-0.9921875,0.02565681627967069,0.20950498476881005,15.154753350250223,3.52182028646016,12486,0,53.37231778521131,33.547754236216555,62.8560939984363,0.006244977928884386,0.00392534919716117,0.16796875,,
3.6919949999991806,1450,,,,-0.125,0.125,-0.970703125,0.02565681627967069,0.20950498476881005,15.154717003542316,3.5163211616669248,12509,0,53.28885209862941,33.608698880814345,63.06891133366853,0.006233653540464989,0.0039314974242839525,0.169921875,,
3.7148100000005218,1450,,,,-0.041015625,-0.0546875,-0.9609375,0.02565681627967069,0.20950498476881005,15.153903520348747,3.5135821778026433,12503,0,53.244485333238096,33.59219108587995,63.09046068459203,0.006236716867714913,0.003934773403434997,0.16796875,,
3.7240299999993294,1450,,,,-0.0625,0.126953125,-0.90234375,0.02581192556089428,0.20950498476881005,15.153791648634563,3.5039328746029677,12493,0,53.09786873253455,33.76830548846449,63.59634820478907,0.0062041900456147716,0.003945638304696032,0.16796875,,
3.7321549999993295,1450,,,,0.03125,0.083984375,-0.921875,0.02581192556089428,0.20950498476881005,15.154032960672875,3.5055241361100795,12485,0,53.122828303046454,33.74818977510069,63.528601268327655,0.0062078880723665415,0.0039437844606778115,0.16796875,,
3.7402750000003726,1450,,,,-0.1875,-0.08203125,-0.95703125,0.02581192556089428,0.20950498476881005,15.154128366634078,3.5085300548326024,12487,0,53.168714829126955,33.75202123664569,63.4809800182637,0.0062071833654022334,0.00394038083188798,0.16796875,,
3.7483950000014157,1450,,,,-0.0625,-0.025390625,-1.013671875,0.02581192556089428,0.20950498476881005,15.154353014293669,3.5148332945038234,12514,0,53.265024531303766,33.82527028637113,63.50371671469347,0.006193741631481471,0.003933256139696028,0.169921875,,
3.757535000000149,1450,,,,-0.09375,0.052734375,-0.90234375,0.02581192556089428,0.20950498476881005,15.154223913084333,3.5262339795156916,12472,0,53.43733929550723,33.71286823357568,63.08859811890019,0.006214392181563406,0.0039205729089588914,0.16796875,,
3.7648250000011174,1450,,,,0.1875,-0.05078125,-0.96875,0.02581192556089428,0.20950498476881005,15.153535269318596,3.5414290229562275,12487,0,53.66516960315569,33.75361665644062,62.89669240969993,0.006206889972747078,0.0039039284943672378,0.169921875,,
3.773265000000596,1450,,,,-0.03125,0.068359375,-0.958984375,0.02581192556089428,0.20950498476881005,15.15326268242669,3.5361445800155202,12559,0,53.58412770401458,33.94702715155976,63.352766212925424,0.006171526709347919,0.003909832887941437,0.16796875,,
3.7822350000012666,1450,,,,-0.09375,0.181640625,-1.005859375,0.02581192556089428,0.20950498476881005,15.153741671359548,3.5173343775378334,12548,0,53.300776529000565,33.91616005448754,63.63164340773535,0.006177143415770909,0.003930617871107748,0.16796875,,
3.7902400000002237,1450,,,,-0.03125,0.017578125,-1.0234375,0.02581192556089428,0.20950498476881005,15.153982074597359,3.517083549282401,12494,0,53.29782106068676,33.770978923705044,63.362775910205094,0.006203698899049417,0.003930835831548542,0.16796875,,
3.7997099999990316,1450,,,,-0.125,-0.046875,-0.953125,0.02581192556089428,0.2117305433560867,15.153761983946985,3.518252494602161,12513,0,53.314760902628876,33.82349826096699,63.44115154664269,0.006259865307913111,0.0039713306366088675,0.16796875,,
3.8077550000008196,1450,,,,-0.0625,0.015625,-0.923828125,0.02581192556089428,0.2117305433560867,15.153156085522319,3.5334547045970095,12535,0,53.542990659881646,33.881431569241066,63.27892998070339,0.006249161666129369,0.003954402635090962,0.16796875,,
3.816484999999404,1450,,,,-0.03125,0.078125,-0.98828125,0.02581192556089428,0.2117305433560867,15.153363320673451,3.521856263368349,12542,0,53.36796752201,33.90009357710406,63.52142521283576,0.006245721501461824,0.003967371312553075,0.166015625,,
3.825714999999851,1450,,,,-0.0625,0.10546875,-1.0546875,0.02581192556089428,0.2117305433560867,15.153584178876475,3.5164909941298537,12532,0,53.28744229380776,33.87372130142605,63.56792490556885,0.006250584087647112,0.0039733665989949525,0.166015625,,
3.8341650000009686,1450,,,,-0.15625,0.119140625,-0.982421875,0.02581192556089428,0.2117305433560867,15.153642791224591,3.528476228600772,12516,0,53.46926836554342,33.83120089766106,63.27223455981027,0.0062584400712398245,0.003959854881660018,0.166015625,,
3.8456650000009684,1450,,,,0.03125,-0.099609375,-0.962890625,0.02581192556089428,0.2117305433560867,15.153561754707793,3.552100865037109,12531,0,53.8269798172908,33.87232879161327,62.92816150300242,0.006250841052549975,0.003933539352844625,0.16796875,,
3.862120000001043,1450,,,,-0.09375,0.158203125,-1,0.02581192556089428,0.2117305433560867,15.153058424295368,3.553954393653495,12571,0,53.85327856431263,33.97938798892022,63.09622904080274,0.006231146465178432,0.003931618445536867,0.169921875,,
3.869155000001192,1450,,,,-0.25,0.15234375,-1.03515625,0.02581192556089428,0.2117305433560867,15.153099184535748,3.5420080624109267,12576,0,53.672399482138054,33.9942757472068,63.33660517361432,0.00622841754095861,0.003944868226481093,0.169921875,,
3.878245000001043,1450,,,,0,-0.01953125,-0.95703125,0.026071549902984513,0.2117305433560867,15.15303963886888,3.5405687713638527,12548,0,53.65037893661775,34.25779189926133,63.85377434096652,0.0061805076047721594,0.003946487379077489,0.169921875,,
3.8859049999993296,1450,,,,-0.0625,0.109375,-0.978515625,0.026071549902984513,0.2117305433560867,15.153279399215952,3.5297655649969992,12541,0,53.48752382013088,34.238966066144535,64.01299521975282,0.00618390587341496,0.003958503371143133,0.169921875,,
3.89475,1450,,,,0.03125,-0.04296875,-0.9765625,0.026071549902984513,0.2117305433560867,15.153574602043447,3.510006644865666,12535,0,53.189147546640086,34.2224042074692,64.34095259274558,0.006186898561319533,0.003980709470299859,0.169921875,,
3.9014900000002237,1450,,,,-0.0625,-0.0078125,-0.765625,0.026071549902984513,0.2117305433560867,15.153332414772805,3.5101959724683565,12496,0,53.1911664118097,34.1160521423844,64.13856744229965,0.0062061853602645095,0.003980558382887379,0.169921875,,
3.9101300000008195,1450,,,,-0.09375,0.185546875,-1.00390625,0.026071549902984513,0.2117305433560867,15.153365475221426,3.520908221587178,12482,0,53.35360908642241,34.0789110316563,63.87367530555454,0.0062129492095392294,0.003968439005000105,0.169921875,,
3.917890000000596,1450,,,,0.125,-0.109375,-0.9375,0.026071549902984513,0.2117305433560867,15.15355829494288,3.51995691388628,12488,0,53.339872290262974,34.09609701734463,63.92234468017046,0.006209817600189831,0.0039694610104032335,0.169921875,,
3.9274550000000743,1450,,,,-0.15625,0.146484375,-0.974609375,0.026071549902984513,0.2117305433560867,15.153583048454461,3.514429493754927,12513,0,53.25619920155305,34.163158567319066,64.14869832904411,0.006197627860985634,0.0039756976001004635,0.169921875,,
3.935219999998808,1450,,,,0,0.04296875,-0.974609375,0.026071549902984513,0.2117305433560867,15.153635764507266,3.5152694938804943,12480,0,53.26911352434881,34.073844175348874,63.965480033329335,0.006213873088885747,0.003974733749967637,0.169921875,,
3.9431500000003727,1450,,,,-0.03125,0.134765625,-1.005859375,0.026071549902984513,0.2117305433560867,15.153752496509473,3.515760843654587,12464,0,53.27696966166094,34.02998894865585,63.87373224259119,0.006221881049551439,0.003974147642043008,0.169921875,,
3.951335000000894,1450,,,,0,-0.078125,-0.8984375,0.026071549902984513,0.21266099790757792,15.153370251481025,3.5163875890677296,12470,0,53.28512308485602,34.04469895117811,63.89156481249424,0.0062465230846231,0.0039910013451393824,0.169921875,,
3.96275,1450,,,,-0.09375,0.171875,-1.044921875,0.026071549902984513,0.21266099790757792,15.15355433261022,3.514423911029695,12472,0,53.25601368361299,34.051702801813825,63.93963882484809,0.006245238282070586,0.00399318280130708,0.169921875,,
3.9714700000006706,1450,,,,-0.0625,0.06640625,-0.9296875,0.026071549902984513,0.21266099790757792,15.15357743585109,3.5125417031101764,12468,0,53.22757269473633,34.041031150867504,63.95375446875078,0.006247196125319443,0.0039953164711681085,0.169921875,,
3.979460000000894,1450,,,,-0.03125,0.0546875,-1.0078125,0.026071549902984513,0.21266099790757792,15.153402336576537,3.503600942406448,12483,0,53.091474707093624,34.08118728092005,64.193333240311,0.00623983537177514,0.0040055583138504155,0.169921875,,
3.9877750000003727,1450,,,,0.0625,0.05859375,-1.04296875,0.026071549902984513,0.21266099790757792,15.15346421226701,3.5060371508309447,12486,0,53.128608491995315,34.089122012292094,64.16340081150096,0.006238382960725569,0.004002758663246728,0.16796875,,
3.999285000000149,1450,,,,-0.15625,0.072265625,-1.03515625,0.026071549902984513,0.21266099790757792,15.153163962182349,3.5066138591031186,12473,0,53.13629475905055,34.05393189584286,64.08789331334125,0.006244829482775191,0.004002179656521045,0.16796875,,
4.008705000000075,1450,,,,-0.041015625,-0.03515625,-0.9140625,0.026071549902984513,0.21266099790757792,15.15308197206327,3.5051720482553788,12491,0,53.114159373398664,34.10374808280729,64.2083927998446,0.006235707506143192,0.004003847569393815,0.169921875,,
4.0173100000005215,1450,,,,0.03125,-0.0703125,-1.021484375,0.026071549902984513,0.21266099790757792,15.153172148341579,3.504460781956284,12489,0,53.103697516095316,34.097418120313954,64.2091223685117,0.0062368651244266065,0.00400463635970211,0.169921875,,
4.025200000001117,1450,,,,-0.25,0.09765625,-0.921875,0.026154748343103613,0.21266099790757792,15.15321256160475,3.497852124235146,12479,0,53.003696747595875,34.18025372712205,64.48654683443827,0.00622175012524355,0.004012191808436903,0.171875,,
4.032815000001341,1450,,,,0.03125,-0.103515625,-1.033203125,0.026154748343103613,0.21266099790757792,15.152953332735144,3.4946802767713745,12511,0,52.95472714674658,34.26691990127704,64.70984130711798,0.0062060143870605825,0.004015902061363814,0.171875,,
4.040474999999628,1450,,,,-0.125,0.1640625,-0.96875,0.026154748343103613,0.21266099790757792,15.153084545944095,3.490949686373455,12501,0,52.89865574325399,34.23838587901469,64.72449138441672,0.006211186434402609,0.004020158828604977,0.171875,,
4.049440000001341,1450,,,,-0.0625,0.095703125,-1.052734375,0.026154748343103613,0.21266099790757792,15.152951297702506,3.493914642696686,12483,0,52.94311841911254,34.190345220960594,64.57939434224531,0.00621991373685238,0.004016782619869384,0.171875,,
4.057660000000149,1450,,,,-0.0625,0.11328125,-0.96875,0.026154748343103613,0.21266099790757792,15.152807290522713,3.492581820181791,12463,0,52.922419267597725,34.13385811600919,64.49791711791222,0.006230206886804786,0.00401835367412581,0.171875,,
4.066655000001192,1450,,,,-0.03125,0.12109375,-0.939453125,0.026154748343103613,0.21266099790757792,15.152689267600504,3.492586320413177,12479,0,52.922075253493084,34.17807608513849,64.5818893560539,0.0062221465414798,0.00401837979499002,0.173828125,,
4.0743849999997765,1450,,,,0.0625,0.14453125,-0.953125,0.026154748343103613,0.21266099790757792,15.152720743983558,3.5016873234264887,12487,0,53.060090144628816,34.201113677629316,64.45732297929659,0.006217955354087719,0.004007927565292786,0.173828125,,
4.082675000000745,1450,,,,-0.09375,-0.013671875,-0.912109375,0.026154748343103613,0.21266099790757792,15.152289719341013,3.495444809031223,12514,0,52.96399244440771,34.274845534578795,64.71348543173838,0.006204579323137461,0.004015199536379212,0.171875,,
4.090375,1450,,,,0.0625,0.09375,-0.98828125,0.026154748343103613,0.21266099790757792,15.152145071555898,3.500620432443362,12489,0,53.04190863283456,34.20731210393818,64.49110332874184,0.00621682864942478,0.004009301388071361,0.171875,,
4.099310000000521,1450,,,,-0.15625,0.109375,-0.91015625,0.026154748343103613,0.2134251348555522,15.152529869992286,3.4927365110099777,12515,0,52.92379431109133,34.276865225747315,64.76645462013644,0.006226506812975312,0.0040326877094453584,0.171875,,
4.106935000000521,1450,,,,0.0625,-0.001953125,-0.97265625,0.026154748343103613,0.2134251348555522,15.15272221085986,3.4932735870810623,12500,0,52.93260427157331,34.23766542366599,64.68161900368244,0.006233635740479754,0.0040320165197344935,0.171875,,
4.115240000000224,1450,,,,-0.125,-0.02734375,-0.8984375,0.026154748343103613,0.2134251348555522,15.152752007301494,3.4912389903834247,12484,0,52.90187861950168,34.19303655690254,64.63482479107587,0.006241771902895477,0.004034358333295095,0.169921875,,
4.123355000000447,1450,,,,0,0.017578125,-1.017578125,0.026154748343103613,0.2134251348555522,15.152617397634277,3.4868468339391723,12486,0,52.8348559988327,34.198983842313496,64.72807239801897,0.006240686443773424,0.004039476039459017,0.169921875,,
4.132605000000447,1450,,,,-0.03125,0.037109375,-0.974609375,0.026154748343103613,0.2134251348555522,15.15245528996549,3.4904554210388676,12461,0,52.88896970890911,34.12907785598966,64.52967044703205,0.006253469131399226,0.004035343021998799,0.169921875,,
4.1566699999999255,1450,,,,-0.0625,0.126953125,-0.9765625,0.026154748343103613,0.2134251348555522,15.151864119999201,3.4840714879630927,12497,0,52.79017776998021,34.2296213191856,64.84089041778279,0.006235100671006491,0.004042894793525758,0.16796875,,
4.172420000001788,1450,,,,-0.015625,-0.091796875,-0.955078125,0.026154748343103613,0.2134251348555522,15.151283461878299,3.482849155062471,12495,0,52.76963480331482,34.22187331916894,64.85144998012991,0.006236512328388664,0.0040444686731496106,0.16796875,,
4.181150000000373,1450,,,,-0.09375,0.07421875,-0.998046875,0.02600461196433108,0.2134251348555522,15.151409724636999,3.4905297257036416,12480,0,52.88644603016067,33.98600364882093,64.26221877234674,0.006279794972685954,0.00403553558380228,0.16796875,,
4.189435000000522,1450,,,,0.125,0.10546875,-1.01953125,0.02600461196433108,0.2134251348555522,15.151240142787596,3.490959863423622,12482,0,52.89237121956429,33.99057250139785,64.26365791069908,0.0062789508722389175,0.004035083508916474,0.16796875,,
4.20859500000067,1450,,,,-0.03125,0.021484375,-1,0.02600461196433108,0.2134251348555522,15.151180361486476,3.488859171189759,12501,0,52.86033455852226,34.043238540426835,64.40223813327778,0.006269237123316185,0.004037529021297942,0.169921875,,
4.217735000001267,1450,,,,0,0.193359375,-0.994140625,0.02600461196433108,0.2134251348555522,15.151225026140542,3.4928461908271133,12493,0,52.92089861891942,34.019806734149874,64.28425748989014,0.006273555182819751,0.0040329083674941965,0.169921875,,
4.226599999999627,1450,,,,-0.15625,0.0859375,-1.0234375,0.02600461196433108,0.2134251348555522,15.1509787127398,3.48638560825648,12493,0,52.822154135096326,34.019816587166275,64.40444761142878,0.006273553365836348,0.004040447390875098,0.169921875,,
4.234425000000745,1450,,,,-0.09375,-0.1015625,-0.966796875,0.02600461196433108,0.2134251348555522,15.150831241058668,3.4916904648602807,12525,0,52.9020129791118,34.10834535024812,64.47456992556351,0.006257270256412472,0.004034348086902146,0.169921875,,
4.242940000001341,1450,,,,-0.125,0.1171875,-0.9609375,0.02600461196433108,0.2134251348555522,15.151085248383374,3.490778660665119,12523,0,52.88908507097476,34.10251323751534,64.47930266093904,0.006258340356591913,0.004035334220078591,0.169921875,,
4.250990000000224,1450,,,,-0.03125,0.095703125,-0.96484375,0.02600461196433108,0.21363895375910852,15.151134655040227,3.4980309716499645,12487,0,52.999138278969816,34.00339815836753,64.1583981599568,0.006282870693220301,0.004030989195231519,0.169921875,,
4.260085000000894,1450,,,,-0.09375,0.068359375,-1.03125,0.02600461196433108,0.21363895375910852,15.150976283097641,3.491837725335784,12514,0,52.904750560988084,34.07833910764459,64.41451617536578,0.00626905416617514,0.004038180909913328,0.169921875,,
4.267804999999702,1450,,,,0.0625,-0.3125,-0.89453125,0.02600461196433108,0.21363895375910852,15.151166464126005,3.490986347646875,12501,0,52.89251527718906,34.041986387817346,64.36068734756999,0.006275748756998616,0.0040391150362108896,0.171875,,
4.27502499999851,1450,,,,-0.0625,0.228515625,-0.931640625,0.02600461196433108,0.21363895375910852,15.151205020017867,3.4955787482335947,12485,0,52.96223027810461,33.99788234447872,64.19269386118349,0.0062838900256916635,0.0040337982867656936,0.171875,,
4.283530000001192,1450,,,,0,0.0703125,-0.8984375,0.02600461196433108,0.21363895375910852,15.150460715130121,3.5022391583075607,12513,0,53.06053678292908,34.07496961592415,64.21904428770674,0.00626967407945301,0.004026324773778798,0.171875,,
4.292484999999404,1450,,,,0,0.015625,-0.951171875,0.02600461196433108,0.21363895375910852,15.150037178411468,3.5130341676248094,12528,0,53.222598248545644,34.11556186265854,64.09976774027709,0.006262214136152005,0.004014064716672234,0.169921875,,
4.3005,1450,,,,-0.03125,0.056640625,-0.943359375,0.02600461196433108,0.21363895375910852,15.150135512155575,3.501089877044537,12539,0,53.041986077460834,34.145971331335225,64.37536347426646,0.006256637179421966,0.0040277329255189835,0.169921875,,
4.312710000000894,1450,,,,-0.0625,-0.01953125,-0.9375,0.02600461196433108,0.21363895375910852,15.15002966874233,3.4934047538621287,12503,0,52.92518566593675,34.049173447478715,64.33453755343773,0.006274424079299585,0.0040366217155589305,0.169921875,,
4.329625,1450,,,,-0.03125,0.185546875,-1.05078125,0.025925649425791477,0.21363895375910852,15.150256168054892,3.48046963101218,12496,0,52.73000649497001,33.926036253123684,64.33914673680144,0.006297197590816052,0.004051563198261465,0.169921875,,
4.337455000001937,1450,,,,-0.03125,-0.046875,-0.9375,0.025925649425791477,0.21363895375910852,15.15043815932702,3.480745989876806,12494,0,52.73482686795406,33.92030126037961,64.32239048648954,0.006298262274240121,0.004051192853899987,0.169921875,,
4.345224999999627,1450,,,,0.125,-0.1015625,-0.96484375,0.025925649425791477,0.21363895375910852,15.150317699942592,3.4818700890586607,12477,0,52.75143803916612,33.87421230457101,64.21476563239959,0.0063068316345847525,0.004049917152978635,0.169921875,,
4.3524500000011175,1450,,,,-0.09375,0.099609375,-0.9765625,0.025925649425791477,0.21363895375910852,15.150731379180613,3.4771823793749714,12483,0,52.681856186330286,33.89040348413914,64.33031395908353,0.006303818538457132,0.004055266257200384,0.171875,,
4.361554999999702,1450,,,,0,0.2421875,-0.9765625,0.025925649425791477,0.21363895375910852,15.150728196085558,3.486628426202503,12477,0,52.82495960613968,33.87442666910945,64.12579758068064,0.006306791723619896,0.004044280494523614,0.169921875,,
4.3708849999997765,1450,,,,-0.09375,-0.037109375,-0.9765625,0.025925649425791477,0.21363895375910852,15.150887026660795,3.4818386673817576,12507,0,52.75294429456019,33.955663688376255,64.36733369568097,0.006291703078454086,0.0040498015156499746,0.171875,,
4.380129999998957,1450,,,,-0.15625,-0.0234375,-0.982421875,0.025925649425791477,0.21363895375910852,15.150948522250982,3.4889090668853036,12498,0,52.86028167119394,33.93050569175007,64.18903687045695,0.006296368103085865,0.004041578043189476,0.171875,,
4.388629999998957,1450,,,,0.03125,0.0546875,-1.06640625,0.025925649425791477,0.21363895375910852,15.150786233006581,3.491624746010672,12519,0,52.90086013268359,33.989027383281254,64.25042484759508,0.006285527130564338,0.004038477885298439,0.171875,,
4.396769999999553,1450,,,,-0.0625,0.00390625,-0.96875,0.025925649425791477,0.21372399164511807,15.15064796054021,3.4842388272360094,12503,0,52.78847588189826,33.94456424515268,64.30298219083956,0.006296265584721362,0.004048686537631339,0.171875,,
4.404660000000149,1450,,,,0,-0.017578125,-1.037109375,0.025925649425791477,0.21372399164511807,15.150325746622794,3.4814912551084207,12520,0,52.74572659891121,33.99095138160776,64.44304320628964,0.006287673129407095,0.004051967911454078,0.171875,,
4.412660000000149,1450,,,,-0.09375,0.140625,-0.982421875,0.025925649425791477,0.21372399164511807,15.15099517145652,3.4810823099255965,12524,0,52.74186126912542,34.00152559914452,64.46781509216225,0.00628571771057518,0.004052264870868902,0.171875,,
4.420785000000149,1450,,,,-0.125,0.33203125,-0.99609375,0.025925649425791477,0.21372399164511807,15.15091335342872,3.4822947297321387,12493,0,52.75994572127312,33.91829075830513,64.28795612772792,0.006301142742364936,0.004050875881757083,0.173828125,,
4.431769999999553,1450,,,,0.03125,0.013671875,-0.96875,0.025925649425791477,0.21372399164511807,15.151199186348428,3.4865348407109007,12493,0,52.825183841754445,33.917143474072695,64.20638984556392,0.006301355885365029,0.004045873125313856,0.171875,,0.0520550000006333,137415,
4.45072000000067,1450,,,,-0.09375,0.099609375,-0.966796875,0.025925649425791477,0.21372399164511807,15.150415135192143,3.5100987341289267,12536,0,53.179452987565675,34.0344639436688,63.99927421522496,0.006279634431700098,0.004018920459657429,0.171875,,
4.464814999999478,1540,,,,-0.0625,0.0546875,-0.94140625,0.025925649425791477,0.21372399164511807,15.150395634007767,3.494578462792607,12538,0,52.94424628539069,34.038668564342984,64.29153487398976,0.006278858740938047,0.004036774657118739,0.171875,,
4.473980000000447,1540,,,,-0.103515625,0.10546875,-0.9609375,0.026136892034035367,0.21372399164511807,15.150183252068622,3.4840198134269174,12544,0,52.78353862725573,34.33371481398065,65.04625439464533,0.006224901465019739,0.004049065242752744,0.169921875,,
4.484269999999553,1540,,,,-0.041015625,-0.03515625,-0.95703125,0.026136892034035367,0.21372399164511807,15.150302640821954,3.4854431794504728,12518,0,52.80551900606336,34.26125602439079,64.8819605777509,0.006238066447212756,0.004047379813094486,0.169921875,,
4.493019999999553,1540,,,,-0.1875,0.046875,-1.015625,0.026136892034035367,0.21372399164511807,15.150452061767625,3.473927758685284,12486,0,52.63157597400525,34.17563659722491,64.93371320308604,0.006253694529935183,0.004060756070665192,0.169921875,,
4.50085000000149,1540,,,,0.0625,0.12890625,-0.951171875,0.026136892034035367,0.21372399164511807,15.140339758207585,3.796542635597378,12708,0,57.48094540946519,34.78218452777448,60.510808025170405,0.006144639692612,0.003718171128234868,0.171875,,
4.508770000001416,1540,,,,-0.125,-0.0859375,-1.05078125,0.026136892034035367,0.21372399164511807,15.132728487485325,4.008502337705308,13231,0,60.65957751794464,36.21509901484285,59.702194602541546,0.00590151614820997,0.0035233346553047305,0.171875,,
4.517275000000373,1540,,,,0,-0.24609375,-0.912109375,0.026136892034035367,0.21372399164511807,15.127780524182791,4.180703813803431,13717,0,63.244769731832264,37.544608576608105,59.363973868199906,0.005692534820519537,0.003379314883291398,0.173828125,,
4.525765000000596,1540,,,,-0.21875,-0.126953125,-0.966796875,0.026136892034035367,0.21372399164511807,15.123937416399672,4.318190442106291,14030,0,65.30804199851077,38.39963775035823,58.79771705792965,0.005565781454360835,0.003272552431597806,0.177734375,,
4.533895000001416,1540,,,,0.1875,-0.20703125,-0.453125,0.026136892034035367,0.21372399164511807,15.120861541126114,4.404885613389326,14284,0,66.60566546455837,39.09674629054226,58.69882992362876,0.005466541641518113,0.003208795980859061,0.181640625,,
4.5414000000003725,1540,,,,-0.125,0.19921875,-0.853515625,0.026136892034035367,0.21372399164511807,15.118500280491713,4.470132930384562,14472,0,67.58170596185424,39.61191411430574,58.61336814531474,0.005395447213895988,0.003162453338566982,0.18359375,,
4.5494949999991805,1540,,,,-0.15625,-0.07421875,-1.470703125,0.026136892034035367,0.21376116413589225,15.116979897752415,4.5317126020636085,14579,0,68.50580830778686,39.90410915923137,58.24923483852329,0.005356870974939206,0.00312033635418903,0.1875,,
4.558050000000745,1540,,,,-0.0625,0.19140625,-0.72265625,0.026136892034035367,0.21376116413589225,15.114784723815024,4.587761595112159,14687,0,69.34302887430651,40.199726199865324,57.972267511897535,0.00531747811099789,0.0030826626353942926,0.189453125,,
4.565930000001565,1540,,,,0,0.416015625,-0.794921875,0.026136892034035367,0.21376116413589225,15.113072593584405,4.633227523165731,14681,0,70.02230390019696,40.183606568051985,57.38686722637093,0.00531961121443597,0.0030527582245875083,0.193359375,,
4.573515000000596,1540,,,,-0.125,0.1640625,-1.33203125,0.026136892034035367,0.21376116413589225,15.112046101779123,4.6740544945530695,14724,0,70.6345270039139,40.298940709485386,57.05275085547383,0.0053043866754933855,0.0030262985143801927,0.19921875,,
4.581790000000969,1540,,,,-0.125,0.484375,-0.69140625,0.026136892034035367,0.21376116413589225,15.110932212236806,4.72821924922013,14744,0,71.44780055955859,40.35608469541459,56.48331282328828,0.005296875694191925,0.002991850868211147,0.201171875,,
4.590169999999926,1540,,,,0.0625,-0.134765625,-0.826171875,0.026136892034035367,0.21376116413589225,15.109460697989443,4.773804670783618,14753,0,72.12961405308351,40.379875583670376,55.98238131976273,0.005293754897608879,0.0029635700529130177,0.205078125,,
4.598650000000372,1540,,,,-0.09375,0.275390625,-1.306640625,0.026136892034035367,0.21376116413589225,15.107735573492485,4.810479262915948,14794,0,72.67544868590318,40.49071373264837,55.714432404326296,0.005279263920792111,0.0029413119285957075,0.208984375,,
4.607845000000671,1540,,,,-0.0625,0.53125,-0.6171875,0.026136892034035367,0.21376116413589225,15.10650491977761,4.8514604641975465,14784,0,73.2886113705068,40.46395054030942,55.211785001282124,0.0052827556697151315,0.00291670370250616,0.212890625,,
4.619980000000447,1540,,,,-0.3125,0.0859375,-1.10546875,0.026136892034035367,0.21376116413589225,15.105358430855924,4.88358266865695,14811,0,73.76826663677913,40.53908764690009,54.95464309403775,0.005272964354742649,0.002897738741624653,0.216796875,,
4.628480000000447,1540,,,,-0.03125,-0.0234375,-1.189453125,0.026688285687718003,0.21376116413589225,15.104286045509673,4.90727874394886,14778,0,74.120941853653,41.301869755176725,55.72226785342879,0.005175580800651275,0.002883950996709538,0.220703125,,
4.635660000000149,1540,,,,0.34375,0.04296875,-0.73828125,0.026688285687718003,0.21376116413589225,15.104005291352046,4.928994570112965,14798,0,74.44756006803172,41.35713094161317,55.552030051515686,0.005168665216106848,0.002871298454113914,0.224609375,,
4.648169999999926,1540,,,,-0.1875,0.244140625,-1.265625,0.026688285687718003,0.21376116413589225,15.102945083188933,4.9735248171596895,14768,0,75.11487218344007,41.273943970533544,54.947765696435354,0.005179082577824437,0.0028457901600878756,0.23046875,,
4.65588000000082,1540,,,,0.03125,0.162109375,-0.611328125,0.026688285687718003,0.21376116413589225,15.102516045115447,4.991020500688233,14762,0,75.37696719314417,41.25786881385177,54.73537918835814,0.005181100485348502,0.0028358949967853663,0.234375,,
4.663495000001043,1540,,,,-0.21875,0.158203125,-1.3359375,0.026688285687718003,0.21376116413589225,15.101809352810788,5.00285959136311,14760,0,75.55223176764657,41.250369586546306,54.59847925261525,0.005182042398127019,0.002829316343603106,0.236328125,,
4.671060000000521,1540,,,,-0.3125,0.21875,-1.234375,0.026688285687718003,0.21376116413589225,15.101275613727422,5.018477582308679,14759,0,75.78541313175582,41.24777647276152,54.42706553707202,0.005182368176307687,0.0028206109236913485,0.240234375,,
4.680009999999776,1540,,,,0.03125,-0.302734375,-0.54296875,0.026688285687718003,0.21376116413589225,15.100655520434177,5.054131660516065,14804,0,76.32070116037308,41.37512291275286,54.21218920121175,0.005166417622169907,0.0028008280962554945,0.24609375,,
4.687915000000968,1540,,,,-0.15625,0.240234375,-1.5390625,0.026688285687718003,0.21376116413589225,15.100362516029369,5.072018802670625,14780,0,76.58932260844367,41.3081653205977,53.93462680402874,0.005174792016950301,0.0027910047622268165,0.25,,
4.696335000000894,1540,,,,0.34375,0.001953125,-0.57421875,0.026688285687718003,0.24231686285644893,15.09979263848798,5.082549140809168,14762,0,76.74543810114368,41.25577245576822,53.75664466387797,0.0058735262590524865,0.0031574106403184097,0.25390625,,
4.703960000000894,1540,,,,0.0625,-0.12890625,-1.09765625,0.026688285687718003,0.24231686285644893,15.099287471851659,5.086678244720957,14760,0,76.80521709385553,41.249964967784535,53.70724350323405,0.005874353179346793,0.0031549531662717536,0.255859375,,
4.711970000000671,1540,,,,-0.21875,0.1328125,-1.25,0.026688285687718003,0.24231686285644893,15.099117360798555,5.112003319489788,14754,0,77.1867380697681,41.23536856456846,53.42286718645416,0.005876432569700856,0.0031393587670128236,0.2578125,,
4.7190100000016395,1540,,,,-0.125,0.296875,-0.58984375,0.026688285687718003,0.24231686285644893,15.098306390736507,5.131282536491144,14733,0,77.47367591337887,41.17528254982141,53.147449200497896,0.005885007894317411,0.003127731581077637,0.259765625,,
4.733360000001267,1540,,,,-0.25,0.13671875,-1.40625,0.026688285687718003,0.24231686285644893,15.096795078746736,5.1733814984012625,14779,0,78.10148034554359,41.304250237966244,52.88536152608666,0.005866632645802512,0.0031025898841400812,0.265625,,
4.7403149999994785,1540,,,,-0.09375,0.28515625,-0.8828125,0.026688285687718003,0.24231686285644893,15.096591274428109,5.174998294746055,14813,0,78.12483410164363,41.399515793314386,52.991492742822224,0.0058531327773543845,0.0031016624309394975,0.267578125,,
4.7486649999991055,1540,,,,-0.125,0.2890625,-0.7265625,0.026688285687718003,0.24231686285644893,15.096015005133063,5.183749947907517,14792,0,78.2539669964696,41.339335319877,52.82714334692069,0.00586165357960985,0.0030965441390004033,0.26953125,,
4.756115000000223,1540,,,,-0.3125,-0.50390625,-1.1953125,0.026688285687718003,0.24231686285644893,15.095373812077582,5.206149751592442,14778,0,78.58877662194277,41.30117156237654,52.55352397335174,0.005867069956852954,0.003083352016308034,0.2734375,,
4.7639149999991055,1540,,,,0.03125,0.06640625,-1.2109375,0.026688285687718003,0.24231686285644893,15.095403899639582,5.204631666627782,14799,0,78.56601715660068,41.35927981504963,52.642709038706634,0.005858826941379084,0.003084245219831547,0.27734375,,
4.774480000000447,1540,,,,0.40625,0.068359375,-0.791015625,0.031073386959664717,0.24231686285644893,15.095052752496906,5.206807405048507,14774,0,78.59703245129874,48.076140868073004,61.16788302136283,0.005040272752369975,0.003083028141127291,0.279296875,,
4.7914500000011175,1540,,,,-0.0625,0.416015625,-0.677734375,0.031073386959664717,0.24231686285644893,15.094463062505637,5.211342935583878,14760,0,78.66242344722055,48.0285914755708,61.05658759394329,0.005045262736461898,0.0030804652620324393,0.283203125,,
4.808050000000745,1540,,,,-0.28125,0.322265625,-1.37890625,0.031073386959664717,0.24231686285644893,15.09405565622549,5.233324168238003,14752,0,78.9920862624544,48.00272001721777,60.76902420038229,0.005047981922056374,0.003067609355845361,0.291015625,,
4.830674999998882,1540,,,,-0.3125,-0.61328125,-1.04296875,0.031073386959664717,0.24231686285644893,15.093356915111393,5.244117301738205,14765,0,79.15133413984564,48.04496442887272,60.700132159473426,0.005043543391840418,0.0030614375043675223,0.298828125,,
