Time (s),ESC signal (µs),Servo 1 (µs),Servo 2 (µs),Servo 3 (µs),AccX (g),AccY (g),AccZ (g),Torque (N·m),Thrust (kgf),Voltage (V),Current (A),Motor Electrical Speed (RPM),Motor Optical Speed (RPM),Electrical Power (W),Mechanical Power (W),Motor Efficiency (%),Propeller Mech. Efficiency (kgf/W),Overall Efficiency (kgf/W),Vibration (g),App message,90% settling time (s),Max acceleration (RPM/s),
0,1000,,,,-0.0625,0.05078125,-0.955078125,0.0008101990287399911,0.023850985032408928,15.28705355159964,-0.02390620254078886,0,0,0.3654553984564267,0,0,0,0,0.05859375,,
0,1000,,,,-0.0625,0.048828125,-0.95703125,0.0008101990287399911,0.02388253579492935,15.287148423747038,-0.022654923796058088,0,0,0.3463291825990186,0,0,0,0,0.05859375,,
0.008514999999664723,1000,,,,-0.0625,0.048828125,-0.955078125,0.0008101990287399911,0.02388253579492935,15.287081743811227,-0.023050830767168413,0,0,0.3523799342004624,0,0,0,0,0.05859375,,
0.021474999999627473,1000,,,,-0.0625,0.048828125,-0.955078125,0.0008101990287399911,0.02388253579492935,15.28682154894039,-0.011132006833802707,0,0,0.1701730019499269,0,0,0,0,0.05859375,,
0.03173500000033527,1000,,,,-0.0625,0.048828125,-0.955078125,0.0008101990287399911,0.02388253579492935,15.286363450134015,-0.001608394872462962,0,0,0.024586508591800785,0,0,0,0,0.05859375,,
0.04202500000037253,1000,,,,-0.0625,0.048828125,-0.955078125,0.0008101990287399911,0.02388253579492935,15.286197552630313,0.011523786050738422,0,0,0.176154870125833,0,0,0,0,0.05859375,,
0.05030000000074506,1000,,,,-0.0625,0.05078125,-0.955078125,0.0008101990287399911,0.02388253579492935,15.285831402973432,0.02050471422884781,0,0,0.313431604668318,0,0,0,0,0.05859375,,
0.0584550000000745,1000,,,,-0.03125,0.037109375,-0.9609375,0.0008101990287399911,0.02388253579492935,15.285659117710487,0.028887994052822247,0,0,0.4415720296858887,0,0,0,0,0.056640625,,
0.07131499999947846,1000,,,,-0.09375,0.056640625,-0.96484375,0.0008101990287399911,0.02388253579492935,15.28527875873069,0.04165611201881482,0,0,0.6367252842124964,0,0,0,0,0.05859375,,
0.08012000000104308,1000,,,,-0.0625,0.072265625,-0.986328125,0.0008101990287399911,0.02388253579492935,15.285281870394542,0.04349657204878003,0,0,0.6648573641615274,0,0,0,0,0.05859375,,
0.11512000000011176,1000,,,,-0.03125,0.0234375,-0.955078125,0.0008255836728188032,0.02388253579492935,15.28543177588875,0.028657050466810566,0,0,0.43803538980863377,0,0,0,0,0.05859375,,
0.1263400000007823,1000,,,,-0.041015625,0.021484375,-0.94921875,0.0008255836728188032,0.02410627117578903,15.28542580183716,0.024281469611048434,0,0,0.37115260209924467,0,0,0,0,0.05859375,,
0.1384400000004098,1000,,,,-0.041015625,0.01953125,-0.953125,0.0008255836728188032,0.02410627117578903,15.285440396618647,0.020012266799573172,0,0,0.3058963113661059,0,0,0,0,0.05859375,,
0.1488150000004098,1000,,,,0,0.0234375,-0.95703125,0.0008255836728188032,0.02410627117578903,15.285671852817085,0.0180654253754724,0,0,0.276142164171026,0,0,0,0,0.05859375,,
0.1565750000011176,1000,,,,-0.041015625,0.03125,-0.955078125,0.0008255836728188032,0.02410627117578903,15.285654658503697,0.01608443815487237,0,0,0.24586116701143948,0,0,0,0,0.05859375,,
0.16422000000067055,1000,,,,-0.0625,0.0390625,-0.953125,0.0008255836728188032,0.02410627117578903,15.285638808423606,0.014043390000190795,0,0,0.2146621871887444,0,0,0,0,0.05859375,,
0.17224500000011175,1000,,,,-0.0625,0.052734375,-0.958984375,0.0008255836728188032,0.02410627117578903,15.285568418625452,0.011616162896413457,0,0,0.1775596527150263,0,0,0,0,0.05859375,,
0.1807250000005588,1000,,,,-0.0625,0.05859375,-0.95703125,0.0008255836728188032,0.02410627117578903,15.285700974507293,0.009850250056973,0,0,0.15056797689501272,0,0,0,0,0.05859375,,
0.1919550000000745,1000,,,,-0.0625,0.048828125,-0.953125,0.0008255836728188032,0.02410627117578903,15.285586506505357,0.008955921766044844,0,0,0.1368965169003727,0,0,0,0,0.05859375,,
0.1996149999992922,1000,,,,-0.0625,0.046875,-0.94921875,0.0008255836728188032,0.02410627117578903,15.285376551229696,0.0068443976590217975,0,0,0.10461919548450321,0,0,0,0,0.05859375,,
0.20839499999955297,1000,,,,-0.03125,0.021484375,-0.95703125,0.0008255836728188032,0.02410627117578903,15.28530922501885,0.005068753644835722,0,0,0.07747746684675537,0,0,0,0,0.05859375,,
0.21834499999973922,1000,,,,-0.03125,0.015625,-0.955078125,0.0008255836728188032,0.02410627117578903,15.285472705157847,0.0023779389939875134,0,0,0.036347921587126644,0,0,0,0,0.05859375,,
0.23803500000014902,1000,,,,-0.03125,0.0234375,-0.95703125,0.0008255836728188032,0.02410627117578903,15.285497547320563,0.00049023369699909,0,0,0,0,0,0,0,0.056640625,,
0.2563300000000745,1000,,,,-0.03125,0.021484375,-0.955078125,0.0007865656627804652,0.02410627117578903,15.285696661646323,-0.001505021705178286,0,0,0.023005305254548983,0,0,0,0,0.056640625,,
0.26435999999940396,1000,,,,-0.0625,0.04296875,-0.95703125,0.0007865656627804652,0.024208716247751026,15.28567691052894,-0.0035030578325181416,0,0,0.05354661022677011,0,0,0,0,0.056640625,,
0.27648000000044703,1000,,,,-0.0625,0.046875,-0.95703125,0.0007865656627804652,0.024208716247751026,15.285657932187071,-0.0051842995267284975,0,0,0.07924542918357114,0,0,0,0,0.056640625,,
0.2876049999995157,1000,,,,-0.0625,0.046875,-0.955078125,0.0007865656627804652,0.024208716247751026,15.28579242718358,-0.007073730397884538,0,0,0.10812757454792177,0,0,0,0,0.056640625,,
0.3111299999998882,1000,,,,-0.0625,0.05078125,-0.958984375,0.0007865656627804652,0.024208716247751026,15.285740582619372,-0.01080633261979825,0,0,0.1651827970757336,0,0,0,0,0.056640625,,
0.32125000000093135,1000,,,,-0.0625,0.048828125,-0.95703125,0.0007865656627804652,0.024208716247751026,15.285814059215605,-0.011514768839659455,0,0,0.17601261541788424,0,0,0,0,0.056640625,,
0.3303099999995902,1000,,,,-0.0625,0.052734375,-0.95703125,0.0007865656627804652,0.024208716247751026,15.286086012061201,-0.0110615435897638,0,0,0.16908770673929369,0,0,0,0,0.056640625,,
0.3398300000010058,1000,,,,-0.0625,0.046875,-0.953125,0.0007865656627804652,0.024208716247751026,15.286203388780255,-0.011125835371217065,0,0,0.1700717823545095,0,0,0,0,0.056640625,,
0.3519899999992922,1000,,,,-0.0625,0.048828125,-0.95703125,0.0007865656627804652,0.024208716247751026,15.28623710159954,-0.012776015269614964,0,0,0.1952971986249905,0,0,0,0,0.056640625,,
0.36097499999962745,1000,,,,-0.0625,0.046875,-0.953125,0.0007865656627804652,0.024208716247751026,15.286325295631649,-0.012797016742579687,0,0,0.1956193607407176,0,0,0,0,0.056640625,,
0.37119500000029804,1000,,,,-0.0625,0.05078125,-0.953125,0.0007865656627804652,0.024208716247751026,15.286174185844374,-0.013034637110613957,0,0,0.19924973332211615,0,0,0,0,0.056640625,,
0.37919999999925497,1000,,,,-0.0625,0.052734375,-0.955078125,0.0007865656627804652,0.024208716247751026,15.286127638659522,-0.014185935243714476,0,0,0.21684801680917806,0,0,0,0,0.056640625,,
0.3875850000008941,1000,,,,-0.0625,0.046875,-0.95703125,0.0007865656627804652,0.024208716247751026,15.286035800189977,-0.014002536796373366,0,0,0.21404327876284074,0,0,0,0,0.056640625,,
0.39602500000037255,1000,,,,-0.0625,0.052734375,-0.955078125,0.0007865656627804652,0.024208716247751026,15.286070276991431,-0.015319922954431874,0,0,0.2341814189195398,0,0,0,0,0.056640625,,
0.40474000000022353,1000,,,,-0.0625,0.052734375,-0.955078125,0.0008080820023120576,0.024208716247751026,15.28588277156312,-0.015621484179505686,0,0,0.2387881758857518,0,0,0,0,0.056640625,,
0.41627999999932946,1000,,,,-0.0625,0.052734375,-0.955078125,0.0008080820023120576,0.024208716247751026,15.286029686497365,-0.017936768122955478,0,0,0.27418197000731703,0,0,0,0,0.056640625,,
0.42790500000026077,1000,,,,-0.0625,0.05078125,-0.95703125,0.0008080820023120576,0.02425630662212202,15.286075448392252,-0.018633847985221247,0,0,0.2848384061959639,0,0,0,0,0.056640625,,
0.4387549999989569,1000,,,,-0.0625,0.048828125,-0.95703125,0.0008080820023120576,0.02425630662212202,15.286069128043811,-0.018170770329249325,0,0,0.2777596513627126,0,0,0,0,0.056640625,,
0.4492000000011176,1000,,,,-0.0625,0.046875,-0.953125,0.0008080820023120576,0.02425630662212202,15.286323179594257,-0.01848019377273987,0,0,0.2824942144316269,0,0,0,0,0.056640625,,
0.4638300000010058,1000,,,,-0.0625,0.04296875,-0.955078125,0.0008080820023120576,0.02425630662212202,15.28646628887478,-0.018862863297581828,0,0,0.288346523910138,0,0,0,0,0.056640625,,
0.47211000000033526,1000,,,,-0.0625,0.046875,-0.95703125,0.0008080820023120576,0.02425630662212202,15.286398225981179,-0.019762399601240516,0,0,0.30209591020553417,0,0,0,0,0.056640625,,
0.48107500000018627,1000,,,,-0.0625,0.05859375,-0.95703125,0.0008080820023120576,0.02425630662212202,15.286279055118076,-0.019921402768934844,0,0,0.30452412189533995,0,0,0,0,0.056640625,,
0.48983000000100585,1000,,,,-0.0625,0.052734375,-0.95703125,0.0008080820023120576,0.02425630662212202,15.28636350720688,-0.020176937091832055,0,0,0.30843199484779044,0,0,0,0,0.056640625,,
0.49997000000067054,1000,,,,-0.0625,0.05078125,-0.955078125,0.0008080820023120576,0.02425630662212202,15.286298444350654,-0.019666894310806114,0,0,0.30063401590848426,0,0,0,0,0.056640625,,
0.5074150000000373,1000,,,,-0.0625,0.05078125,-0.95703125,0.0008080820023120576,0.02425630662212202,15.286529639437505,-0.01880820746595161,0,0,0.2875122208929591,0,0,0,0,0.056640625,,
0.5161599999992177,1000,,,,-0.0625,0.05078125,-0.953125,0.0008080820023120576,0.02425630662212202,15.28640695775449,-0.019957750313990726,0,0,0.3050822932609147,0,0,0,0,0.056640625,,
0.5258500000005588,1000,,,,-0.0625,0.044921875,-0.95703125,0.0008080820023120576,0.02425630662212202,15.286494956316407,-0.01928499486464704,0,0,0.2947999767310148,0,0,0,0,0.056640625,,
0.5343049999997019,1000,,,,-0.0625,0.046875,-0.955078125,0.0008080820023120576,0.02425630662212202,15.28658629160205,-0.01963939448817635,0,0,0.30021929855832147,0,0,0,0,0.056640625,,
0.5475200000004843,1000,,,,-0.0625,0.046875,-0.95703125,0.0008080820023120576,0.02425630662212202,15.286762248070449,-0.019881439134185136,0,0,0.3039228331937718,0,0,0,0,0.056640625,,
0.5554900000011549,1000,,,,-0.0625,0.052734375,-0.95703125,0.0007990662487417522,0.02425630662212202,15.286756929233892,-0.01993221947708744,0,0,0.3046989942063772,0,0,0,0,0.056640625,,
0.5855900000007823,1000,,,,-0.0625,0.052734375,-0.953125,0.0007990662487417522,0.02424142337992104,15.286840389926454,-0.02066765106063604,0,0,0.3159430829986373,0,0,0,0,0.056640625,,
0.5975849999999627,1000,,,,-0.0625,0.048828125,-0.955078125,0.0007990662487417522,0.02424142337992104,15.28712400949432,-0.02199781939944867,0,0,0.3362833930978317,0,0,0,0,0.056640625,,
0.6213050000006333,1000,,,,-0.0625,0.048828125,-0.955078125,0.0007990662487417522,0.02424142337992104,15.286877193983399,-0.02164715922468837,0,0,0.33091746466641603,0,0,0,0,0.056640625,,
0.645089999999851,1000,,,,-0.0625,0.052734375,-0.955078125,0.0007990662487417522,0.02424142337992104,15.287033134136239,-0.02368772606663195,0,0,0.3621150532529453,0,0,0,0,0.056640625,,
0.6574749999996274,1000,,,,-0.0625,0.05078125,-0.955078125,0.0007990662487417522,0.02424142337992104,15.287105564276727,-0.022902632929938327,0,0,0.3501149672998476,0,0,0,0,0.056640625,,
0.6693799999998883,1000,,,,-0.0625,0.048828125,-0.955078125,0.0007990662487417522,0.02424142337992104,15.287224109307322,-0.023907687875195226,0,0,0.3654821824834788,0,0,0,0,0.056640625,,
0.6845699999993667,1000,,,,-0.0625,0.046875,-0.953125,0.0007990662487417522,0.02424142337992104,15.287115731703242,-0.02382382338249705,0,0,0.3641975452198902,0,0,0,0,0.056640625,,
0.6963400000007823,1000,,,,-0.0625,0.046875,-0.955078125,0.0007990662487417522,0.02424142337992104,15.287131761159591,-0.023442685904004147,0,0,0.35837142824999,0,0,0,0,0.056640625,,
0.714304999999702,1000,,,,-0.0625,0.05078125,-0.95703125,0.0008312278399518402,0.0242347674474495,15.287362051365736,-0.02550387491941946,0,0,0.38988696960591146,0,0,0,0,0.056640625,,
0.7333999999994412,1000,,,,-0.0625,0.048828125,-0.95703125,0.0008312278399518402,0.0242347674474495,15.287421956984522,-0.025161724780366462,0,0,0.3846579038829758,0,0,0,0,0.056640625,,
0.757195000000298,1000,,,,-0.0625,0.046875,-0.953125,0.0008312278399518402,0.0242347674474495,15.287664534386161,-0.024959502371827008,0,0,0.381572499205707,0,0,0,0,0.056640625,,
0.7704250000007451,1000,,,,-0.0625,0.046875,-0.955078125,0.0008312278399518402,0.0242347674474495,15.287786280597008,-0.02609613890197275,0,0,0.3989521942821329,0,0,0,0,0.056640625,,
0.7888250000001863,1000,,,,-0.0625,0.048828125,-0.95703125,0.0008312278399518402,0.0242347674474495,15.287810595773808,-0.02500424621007604,0,0,0.38226018014973756,0,0,0,0,0.05859375,,
0.800535000000149,1000,,,,-0.0625,0.05078125,-0.95703125,0.0008312278399518402,0.0242347674474495,15.287822980860456,-0.025012542435143066,0,0,0.3823873210497275,0,0,0,0,0.05859375,,
0.8097849999992177,1000,,,,-0.0625,0.048828125,-0.953125,0.0008312278399518402,0.0242347674474495,15.287743303400987,-0.02497056481014412,0,0,0.3817435849584211,0,0,0,0,0.05859375,,
0.8187300000013784,1000,,,,-0.0625,0.046875,-0.955078125,0.0008312278399518402,0.0242347674474495,15.287678114362766,-0.024191095795478193,0,0,0.3698256857549851,0,0,0,0,0.05859375,,
0.8270800000010058,1000,,,,-0.0625,0.05078125,-0.95703125,0.0008312278399518402,0.0242347674474495,15.287692085879408,-0.024231794490131055,0,0,0.37044821285343277,0,0,0,0,0.05859375,,
0.8357599999997765,1000,,,,-0.0625,0.046875,-0.955078125,0.0008312278399518402,0.0242347674474495,15.288006043713196,-0.022832729905120537,0,0,0.3490669127839538,0,0,0,0,0.05859375,,
0.8425850000008941,1000,,,,-0.0625,0.046875,-0.955078125,0.0008312278399518402,0.0242347674474495,15.28800580229799,-0.023154576700154153,0,0,0.35398730294171055,0,0,0,0,0.05859375,,
0.8530599999995903,1000,,,,-0.0625,0.048828125,-0.9609375,0.0008312278399518402,0.0242347674474495,15.28813149224528,-0.023962723334933843,0,0,0.3663452652567629,0,0,0,0,0.05859375,,
0.8625100000007078,1000,,,,-0.0625,0.052734375,-0.955078125,0.000817976704560415,0.02423200455716619,15.288124865956785,-0.024462819499791594,0,0,0.3739906390861764,0,0,0,0,0.05859375,,
0.8759300000006333,1000,,,,-0.0625,0.048828125,-0.95703125,0.000817976704560415,0.02423200455716619,15.287795581801513,-0.02382297298795792,0,0,0.3642007411906799,0,0,0,0,0.05859375,,
0.8882250000005588,1000,,,,-0.0625,0.048828125,-0.955078125,0.000817976704560415,0.02423200455716619,15.288030764373971,-0.02428444870639699,0,0,0.37126139891925886,0,0,0,0,0.05859375,,
0.8976299999998882,1000,,,,-0.0625,0.05078125,-0.955078125,0.000817976704560415,0.02423200455716619,15.28783052069111,-0.025784853035065336,0,0,0.39419446320100665,0,0,0,0,0.05859375,,
0.9133049999997019,1000,,,,-0.0625,0.048828125,-0.953125,0.000817976704560415,0.02423200455716619,15.287921515054474,-0.02735267023481422,0,0,0.4181654757770064,0,0,0,0,0.05859375,,
0.9224099999992177,1000,,,,-0.0625,0.05078125,-0.95703125,0.000817976704560415,0.02423200455716619,15.287819849334525,-0.027981581261856667,0,0,0.4277773734307794,0,0,0,0,0.05859375,,
0.932280000001192,1000,,,,-0.0625,0.048828125,-0.955078125,0.000817976704560415,0.02423200455716619,15.287719994980536,-0.02806342014440396,0,0,0.42902570926914396,0,0,0,0,0.05859375,,
0.9416550000002608,1000,,,,-0.0625,0.052734375,-0.955078125,0.000817976704560415,0.02423200455716619,15.287576250157947,-0.028932944117142118,0,0,0.44231458933236895,0,0,0,0,0.05859375,,
0.9506100000003352,1000,,,,-0.0625,0.048828125,-0.95703125,0.000817976704560415,0.02423200455716619,15.287602249989696,-0.027771123564160144,0,0,0.4245538910841965,0,0,0,0,0.05859375,,
0.9586749999998138,1000,,,,-0.0625,0.05078125,-0.9609375,0.000817976704560415,0.02423200455716619,15.28753351368206,-0.027564499567151096,0,0,0.42139321092069704,0,0,0,0,0.05859375,,
0.967109999999404,1000,,,,-0.0625,0.048828125,-0.953125,0.000817976704560415,0.02423200455716619,15.28748989914671,-0.027878743205684335,0,0,0.42619600515780426,0,0,0,0,0.05859375,,
0.9746749999998138,1000,,,,-0.0625,0.048828125,-0.95703125,0.000817976704560415,0.02423200455716619,15.2876612575394,-0.025156001078057856,0,0,0.38457642307564444,0,0,0,0,0.05859375,,
0.983160000000149,1000,,,,-0.0625,0.046875,-0.95703125,0.000817976704560415,0.02423200455716619,15.287547428819869,-0.025367159787249703,0,0,0.38780165838203196,0,0,0,0,0.05859375,,
0.9917000000001862,1000,,,,-0.0625,0.05078125,-0.955078125,0.000817976704560415,0.02423200455716619,15.287375272993868,-0.025566516890859828,0,0,0.3908449381339106,0,0,0,0,0.05859375,,
1.0004549999991432,1000,,,,-0.0625,0.05078125,-0.955078125,0.000817976704560415,0.02423200455716619,15.287331978956718,-0.02527483577103594,0,0,0.3863848051454369,0,0,0,0,0.05859375,,
1.009570000000298,1000,,,,-0.0625,0.05078125,-0.953125,0.0008005019927757276,0.02423200455716619,15.28726401518161,-0.024491715935335605,0,0,0.374411327688306,0,0,0,0,0.05859375,,
1.021425000000745,1000,,,,-0.0625,0.05078125,-0.955078125,0.0008005019927757276,0.02389388181701737,15.287221536130971,-0.024537270331572936,0,0,0.3751066874506893,0,0,0,0,0.05859375,,
1.030109999999404,1000,,,,-0.0625,0.048828125,-0.955078125,0.0008005019927757276,0.02389388181701737,15.287259859333023,-0.023819677196945777,0,0,0.3641375950751393,0,0,0,0,0.05859375,,
1.0429700000006705,1000,,,,-0.0625,0.05078125,-0.955078125,0.0008005019927757276,0.02389388181701737,15.287386088368196,-0.02469183582800364,0,0,0.3774736275332942,0,0,0,0,0.05859375,,
1.0565000000009312,1000,,,,-0.0625,0.048828125,-0.95703125,0.0008005019927757276,0.02389388181701737,15.287596974315917,-0.02365974830669148,0,0,0.3617006966264528,0,0,0,0,0.05859375,,
1.066269999999553,1000,,,,-0.0625,0.05078125,-0.955078125,0.0008005019927757276,0.02389388181701737,15.287523259147438,-0.02257272341671604,0,0,0.3450810342553485,0,0,0,0,0.05859375,,
1.0743500000005588,1000,,,,-0.0625,0.05078125,-0.953125,0.0008005019927757276,0.02389388181701737,15.287331087481892,-0.022002037518734724,0,0,0.3363524321480963,0,0,0,0,0.05859375,,
1.08425,1000,,,,-0.0625,0.046875,-0.953125,0.0008005019927757276,0.02389388181701737,15.287479181368509,-0.020971881174153162,0,0,0.32060719684400063,0,0,0,0,0.05859375,,
1.092640000000596,1000,,,,-0.0625,0.048828125,-0.95703125,0.0008005019927757276,0.02389388181701737,15.287434628854713,-0.02072380731446137,0,0,0.3168138495808094,0,0,0,0,0.05859375,,
1.1044249999998137,1000,,,,-0.0625,0.046875,-0.955078125,0.0008005019927757276,0.02389388181701737,15.287475500448902,-0.021120168338729532,0,0,0.3228740560436843,0,0,0,0,0.05859375,,
1.1121150000002236,1000,,,,-0.0625,0.048828125,-0.955078125,0.0008005019927757276,0.02389388181701737,15.287567889707962,-0.021535504475028833,0,0,0.3292254867011129,0,0,0,0,0.05859375,,
1.1226299999998883,1000,,,,-0.0625,0.05078125,-0.95703125,0.0008005019927757276,0.02389388181701737,15.287681031038083,-0.02120982473986549,0,0,0.3242490353472839,0,0,0,0,0.05859375,,
1.1353999999994413,1000,,,,-0.0625,0.048828125,-0.95703125,0.0008005019927757276,0.02389388181701737,15.287800661384557,-0.01898112104381606,0,0,0.29017959484747147,0,0,0,0,0.05859375,,
1.1481850000005216,1000,,,,-0.0625,0.048828125,-0.953125,0.0008005019927757276,0.02389388181701737,15.287875605070893,-0.01898669300790108,0,0,0.29026620085646104,0,0,0,0,0.05859375,,
1.159074999999255,1000,,,,-0.0625,0.05078125,-0.953125,0.0008055003028637253,0.02389388181701737,15.287661901563308,-0.01807191626052109,0,0,0.2762773457042107,0,0,0,0,0.05859375,,
1.1681850000005216,1000,,,,-0.0625,0.048828125,-0.95703125,0.0008055003028637253,0.024225558442399552,15.287806253672692,-0.019035738185233873,0,0,0.29101467727149444,0,0,0,0,0.05859375,,
1.1766800000006332,1000,,,,-0.0625,0.046875,-0.95703125,0.0008055003028637253,0.024225558442399552,15.28810565868697,-0.019130839717404216,0,0,0.29247429893908083,0,0,0,0,0.05859375,,
1.1841850000005216,1000,,,,-0.0625,0.05078125,-0.953125,0.0008055003028637253,0.024225558442399552,15.288033379192171,-0.01812347154805735,0,0,0.2770722379735404,0,0,0,0,0.05859375,,
1.1962999999998138,1000,,,,-0.0625,0.048828125,-0.95703125,0.0008055003028637253,0.024225558442399552,15.288164373895079,-0.019982865752744397,0,0,0.30550133628943493,0,0,0,0,0.05859375,,
1.2187950000008567,1000,,,,-0.0625,0.052734375,-0.958984375,0.0008055003028637253,0.024225558442399552,15.288365723950918,-0.02140349917483781,0,0,0.32722452315720213,0,0,0,0,0.05859375,,
1.2291700000008567,1000,,,,-0.0625,0.05078125,-0.95703125,0.0008055003028637253,0.024225558442399552,15.288289640188015,-0.022216511495745966,0,0,0.33965246254153103,0,0,0,0,0.05859375,,
1.2365800000010059,1000,,,,-0.0625,0.048828125,-0.955078125,0.0008055003028637253,0.024225558442399552,15.288195014263028,-0.02314529914241635,0,0,0.353849846952716,0,0,0,0,0.05859375,,
1.245839999999851,1000,,,,-0.0625,0.05078125,-0.95703125,0.0008055003028637253,0.024225558442399552,15.288185525377234,-0.0228176045387138,0,0,0.3488397714325462,0,0,0,0,0.05859375,,
1.255230000000447,1000,,,,-0.0625,0.046875,-0.953125,0.0008055003028637253,0.024225558442399552,15.28802577986866,-0.023433345039484868,0,0,0.35824958307220206,0,0,0,0,0.05859375,,
1.2628349999999628,1000,,,,-0.0625,0.046875,-0.95703125,0.0008055003028637253,0.024225558442399552,15.288168632399577,-0.023290412062856265,0,0,0.3560677471350199,0,0,0,0,0.05859375,,
1.272535000000149,1000,,,,-0.0625,0.048828125,-0.95703125,0.0008055003028637253,0.024225558442399552,15.288280392189943,-0.02327035117652284,0,0,0.3557636536114083,0,0,0,0,0.05859375,,
1.2808499999996275,1000,,,,-0.0625,0.05078125,-0.95703125,0.0008055003028637253,0.024225558442399552,15.288355550121574,-0.02411005508634642,0,0,0.3686030944930812,0,0,0,0,0.05859375,,
1.2903750000009313,1000,,,,-0.0625,0.05078125,-0.95703125,0.0008055003028637253,0.024225558442399552,15.288188426852676,-0.02320662806288199,0,0,0.354787302577227,0,0,0,0,0.05859375,,
1.2977400000002235,1000,,,,-0.0625,0.05078125,-0.955078125,0.0008055003028637253,0.024225558442399552,15.288032919685103,-0.02378485594983063,0,0,0.3636236607509788,0,0,0,0,0.05859375,,
1.3073250000001864,1000,,,,-0.0625,0.05078125,-0.953125,0.0008995303930521548,0.024225558442399552,15.288031073316992,-0.023005859270971422,0,0,0.3517142914029689,0,0,0,0,0.05859375,,
1.3162049999991432,1000,,,,-0.0625,0.05078125,-0.953125,0.0008995303930521548,0.02410736355409136,15.287965804004202,-0.02352325140475748,0,0,0.35962266307492613,0,0,0,0,0.05859375,,
1.322875,1000,,,,-0.0625,0.046875,-0.953125,0.0008995303930521548,0.02410736355409136,15.28790268241699,-0.022968673694991386,0,0,0.35114284819321934,0,0,0,0,0.05859375,,
1.3393250000011176,1000,,,,-0.0625,0.048828125,-0.95703125,0.0008995303930521548,0.02410736355409136,15.288092568468274,-0.023602343822466433,0,0,0.36083481719068217,0,0,0,0,0.05859375,,undefined,0,
1.3547849999992176,1000,,,,-0.0625,0.05078125,-0.953125,0.0008995303930521548,0.02410736355409136,15.288086838554037,-0.0243775480156078,0,0,0.37268607097363265,0,0,0,0,0.05859375,,
1.3646349999997764,1180,,,,-0.0625,0.05078125,-0.953125,0.0008995303930521548,0.02410736355409136,15.288078894846853,-0.025320890417695523,0,0,0.38710777039350086,0,0,0,0,0.05859375,,
1.3780750000011175,1180,,,,-0.0625,0.05078125,-0.9609375,0.0008995303930521548,0.02410736355409136,15.288072631956489,-0.02627223603603638,0,0,0.4016518527228288,0,0,0,0,0.05859375,,
1.3870999999996274,1180,,,,-0.0625,0.052734375,-0.95703125,0.0008995303930521548,0.02410736355409136,15.288222256244442,-0.02620651297846087,0,0,0.40065099497586426,0,0,0,0,0.05859375,,
1.3965050000008197,1180,,,,-0.0625,0.05078125,-0.95703125,0.0008995303930521548,0.02410736355409136,15.288210334523479,-0.026031531277125902,0,0,0.3979755254944274,0,0,0,0,0.05859375,,
1.4180199999995529,1180,,,,-0.103515625,0.009765625,-0.9453125,0.0008995303930521548,0.02410736355409136,15.286443518138167,0.048843466859014736,0,0,0.7466428973703823,0,0,0,0,0.05859375,,
1.4263349999999628,1180,,,,0,-0.31640625,-0.76171875,0.0008995303930521548,0.02410736355409136,15.283815068552505,0.13419254720707147,0,0,2.050974075090882,0,0,0,0,0.064453125,,
1.4343050000006332,1180,,,,-0.03125,0.04296875,-0.990234375,0.0008995303930521548,0.02410736355409136,15.282853384041895,0.16658970763534298,0,0,2.545966077081351,0,0,0,0,0.064453125,,
1.4450350000010803,1180,,,,-0.03125,0.033203125,-0.9609375,0.0008995303930521548,0.02410736355409136,15.282090623554732,0.1874191707867769,2,0,2.864156752555006,0.0001562256156666244,0.005454506480040293,0,0.008416914867730649,0.064453125,,
1.451890000000596,1180,,,,-0.0625,0.1796875,-1.0390625,0.0008995303930521548,0.02410736355409136,15.281543770341345,0.2006333064000893,4,0,3.065986653541271,0.0003460267843380123,0.011285984690714325,0,0.007862840344150523,0.064453125,,
1.4650999999996275,1180,,,,-0.01953125,-0.009765625,-0.96875,0.0009778602066442188,0.024640574526790755,15.281238607663335,0.21242920889827277,2065,0,3.2461814284116657,0.21145453576877443,6.5139469383335635,0,0.007590633817052924,0.064453125,,
1.4782549999998882,1180,,,,-0.0625,0.140625,-1.03125,0.0009778602066442188,0.024640574526790755,15.28106043522302,0.21779208821583135,2770,0,3.328094062339542,0.2836860727783571,8.523980015725128,0.08685859790530621,0.0074038095273873455,0.06640625,,
1.4878200000002981,1180,,,,-0.03125,-0.08984375,-0.884765625,0.0009778602066442188,0.024640574526790755,15.281113083983785,0.21880211875470984,2987,0,3.3435399197059703,0.30582543864050216,9.146756012633352,0.08057071588395809,0.00736960679953767,0.068359375,,
1.4964699999997393,1180,,,,0,0.09765625,-0.982421875,0.0009778602066442188,0.024640574526790755,15.2797090092849,0.2674672681473396,3094,0,4.086822026799726,0.31682468841828965,7.75234855691492,0.07777353037039492,0.0060292751593310975,0.068359375,,
1.5093400000007824,1180,,,,-0.0625,-0.0859375,-0.890625,0.0009778602066442188,0.024640574526790755,15.27796053207331,0.3149960477356833,3254,0,4.81249718506485,0.3332117475590434,6.923884518688883,0.07394869690908652,0.005120122377060407,0.068359375,,
1.5278650000002236,1180,,,,0,0.04296875,-0.966796875,0.0009778602066442188,0.024640574526790755,15.27531575007069,0.38990333159713375,4069,0,5.955896502150733,0.4166901122061711,6.996261806357787,0.05913405143292439,0.004137173054953659,0.072265625,,
1.5374699999997392,1180,,,,-0.03125,0.07421875,-0.97265625,0.0009778602066442188,0.024640574526790755,15.275131648003894,0.3998753462060193,4369,0,6.108148556088079,0.44742545979734566,7.325058578534249,0.055071909716428114,0.004034049647045854,0.072265625,,
1.5483449999997392,1180,,,,0,-0.1875,-0.90234375,0.0009778602066442188,0.024640574526790755,15.27491748527122,0.407913461294968,4535,0,6.230844462412012,0.46441020857960713,7.453407180699068,0.053057779677483076,0.003954612360401014,0.07421875,,
1.556375,1180,,,,-0.08203125,0.0703125,-0.9921875,0.0009778602066442188,0.024640574526790755,15.274684651745442,0.4104882366030087,4607,0,6.270078367362029,0.47181317980756066,7.52483704611277,0.05222527810020261,0.003929867073919465,0.076171875,,
1.563905000001192,1180,,,,0,0.03515625,-1.05078125,0.0009778602066442188,0.024640574526790755,15.274611230027435,0.4095762011824387,4652,0,6.2561172421332545,0.47633614309493094,7.613926092799797,0.051729382462334036,0.003938636948943853,0.076171875,,
1.5727750000003726,1180,,,,-0.0625,0.03515625,-0.96875,0.0009778602066442188,0.024640574526790755,15.274578277645531,0.4104757406935,4675,0,6.269843832297395,0.478764210444902,7.635983020480963,0.05146703531555328,0.00393001407784059,0.078125,,
1.5814900000002234,1180,,,,0,0.12890625,-0.966796875,0.0009778602066442188,0.024640574526790755,15.274522447153378,0.4101131101401737,4683,0,6.26428190670797,0.47956611551066675,7.655564079853012,0.0513809748642316,0.00393350345558442,0.080078125,,
1.5909800000013783,1180,,,,-0.03125,0.076171875,-0.99609375,0.0009778602066442188,0.024640574526790755,15.27420794528359,0.41201336672154054,4686,0,6.293177839541197,0.4798212561653871,7.624466817870325,0.05135365349111904,0.003915442270194477,0.080078125,,
1.6028549999995156,1180,,,,-0.09375,0.01953125,-1.01953125,0.0009778602066442188,0.024640574526790755,15.274120168746096,0.4138774083569565,4701,0,6.321613270373354,0.4813594251820015,7.6145028902341,0.05118955449449064,0.0038978301064809496,0.08203125,,
1.612429999999702,1180,,,,-0.0625,-0.01953125,-1.013671875,0.002361976949053976,0.02921895117911453,15.274076961116172,0.4161085312761217,4694,0,6.3556737308884985,1.1611631615974591,18.26971003804396,0.025163518914014492,0.004597301940958796,0.08203125,,
1.6209199999999255,1180,,,,-0.0625,0.017578125,-0.97265625,0.002361976949053976,0.02921895117911453,15.273963741866892,0.4166621330392212,4696,0,6.364082312649984,1.161591324744822,18.252298881111408,0.025154243628268607,0.004591227728314508,0.083984375,,
1.6294000000003726,1180,,,,0.0625,0.0625,-0.95703125,0.002361976949053976,0.02921895117911453,15.273998221179813,0.4180905652182777,4704,0,6.385914549436036,1.1635912798473704,18.221215940794753,0.02511100906750282,0.00457553118710224,0.0859375,,
1.636875,1180,,,,-0.25,-0.01171875,-0.9609375,0.002361976949053976,0.02921895117911453,15.274034929370977,0.41889598141727474,4704,0,6.39823185194059,1.163553609829294,18.185549332295405,0.025111822035773036,0.004566722784553734,0.087890625,,
1.645375,1180,,,,-0.09375,0.08203125,-0.994140625,0.002361976949053976,0.02921895117911453,15.27403332643589,0.42028615461532537,4698,0,6.419464732234067,1.1619482786755644,18.100391966343736,0.025146516170598807,0.004551617992758395,0.087890625,,
1.654445000000298,1180,,,,0.0625,0.052734375,-1.01953125,0.002361976949053976,0.02921895117911453,15.274136803137678,0.4224273749062748,4704,0,6.452213513708769,1.1634756641449677,18.03219409390244,0.025113504372768627,0.004528515852278315,0.08984375,,
1.6665200000004843,1180,,,,-0.1875,-0.11328125,-0.890625,0.002361976949053976,0.02921895117911453,15.274382335420736,0.42334006550132813,4697,0,6.466258018369343,1.1617779471652516,17.966773733198913,0.025150202971582502,0.004518680061344497,0.091796875,,
1.6882050000000746,1180,,,,-0.041015625,0.12109375,-0.9921875,0.002361976949053976,0.02921895117911453,15.274296654978777,0.4250638532643843,4696,0,6.492551392068575,1.1615953452909369,17.891199855729507,0.025154156563700982,0.004500380422834844,0.09375,,
1.7157800000002608,1180,,,,-0.041015625,0.11328125,-0.986328125,0.002361976949053976,0.02921895117911453,15.274062731347641,0.423993378324757,4709,0,6.476101458208351,1.1648524691075581,17.98693977579871,0.025083821302710016,0.004511811831187418,0.095703125,,
1.7342599999997765,1180,,,,0,0,-1.03515625,0.002361976949053976,0.02921895117911453,15.274049133629175,0.42443820347817346,4707,0,6.482889974114919,1.164361036312088,17.960524410582078,0.025094408235834222,0.004507087316888124,0.1015625,,
1.7421749999998137,1180,,,,0.03125,0.03125,-1.01953125,0.002361976949053976,0.02921895117911453,15.274046455286756,0.42453774661695876,4700,0,6.484409263850186,1.162633295780749,17.929671747622287,0.025131699982403288,0.004506031311442157,0.1015625,,
1.7603149999994785,1180,,,,0.0625,0.10546875,-0.990234375,0.0038763592902080913,0.02921895117911453,15.274012652494344,0.42064151713803544,4692,0,6.424883854930769,1.9047704736700939,29.64676897946225,0.01533988035987125,0.004547778892016932,0.103515625,,
1.7694800000013784,1180,,,,0,0.15234375,-1.009765625,0.0038763592902080913,0.04251472940050984,15.273902103390462,0.4224998454468143,4697,0,6.453221278052242,1.9065699878963391,29.544469432354468,0.022299065688860188,0.0065881406461459424,0.103515625,,
1.7770650000004098,1180,,,,-0.125,-0.103515625,-0.9453125,0.0038763592902080913,0.04251472940050984,15.274091919033449,0.4227078130057703,4695,0,6.456477990743738,1.9057831941349153,29.51738078976063,0.022308271754809123,0.006584817521481625,0.10546875,,
1.7858799999998882,1180,,,,0.0625,-0.02734375,-0.97265625,0.0038763592902080913,0.04251472940050984,15.274119974845002,0.4246815253559232,4693,0,6.48663656938655,1.9050986172075086,29.36959080147258,0.022316287995016174,0.0065542024662144,0.10546875,,
1.7944599999990314,1180,,,,-0.0625,0.0703125,-0.986328125,0.0038763592902080913,0.04251472940050984,15.274014439034927,0.42654277994547934,4694,0,6.515020579753349,1.9052485378149873,29.243937367380006,0.022314531966137804,0.006525647752001329,0.107421875,,
1.8042000000001863,1180,,,,-0.0625,0.02734375,-0.9765625,0.0038763592902080913,0.04251472940050984,15.273816181417622,0.42727352470293994,4698,0,6.526097275499106,1.9071598931638793,29.223589729866884,0.022292168345665088,0.006514571819228419,0.107421875,,
1.8175850000008942,1180,,,,-0.0625,0.052734375,-0.9453125,0.0038763592902080913,0.04251472940050984,15.273721064846647,0.42744763166633465,4705,0,6.528715895900906,1.910044049796241,29.256044837170407,0.022258507286805878,0.006511958871912771,0.107421875,,
1.8419400000004098,1180,,,,0,-0.029296875,-0.9453125,0.0038763592902080913,0.04251472940050984,15.27351117510175,0.4339970942712644,4707,0,6.6286594693138445,1.9108671245744713,28.82735390798815,0.022248919798637173,0.0064137748510575835,0.111328125,,
1.8523850000007078,1180,,,,0.0625,0.07421875,-0.951171875,0.0038763592902080913,0.04251472940050984,15.27328659883044,0.43391843947404374,4699,0,6.627360686604329,1.9076026611691248,28.78374591901872,0.022286994176477802,0.00641503177674387,0.111328125,,
1.864695000000298,1180,,,,-0.166015625,0.109375,-0.9375,0.0038763592902080913,0.04251472940050984,15.273386388861214,0.43509046452895117,4705,0,6.645304778859786,1.9099983088081305,28.742072370920685,0.022259040337600986,0.006397709482905704,0.11328125,,
1.8799400000004098,1180,,,,0.0625,0.005859375,-1.05859375,0.0038763592902080913,0.04251472940050984,15.27325484236546,0.43264396515612236,4699,0,6.6078815358409395,1.9076088787164298,28.868690644189364,0.022286921535570055,0.0064339424322169365,0.115234375,,
1.888414999999106,1180,,,,-0.0625,0.02734375,-0.978515625,0.0038763592902080913,0.04251472940050984,15.273196579837295,0.43277056420448534,4701,0,6.609789901062202,1.90808449579793,28.867551379981055,0.022281366204765934,0.0064320848373225405,0.1171875,,
1.8969949999991804,1180,,,,0.03125,0.08984375,-0.99609375,0.0038763592902080913,0.04251472940050984,15.272769317855113,0.4412659879486065,4698,0,6.7393536417545015,1.9072256998364727,28.299831129502085,0.022291399179528198,0.006308428324209693,0.1171875,,
1.9041400000005961,1180,,,,-0.1875,0.095703125,-0.986328125,0.0038763592902080913,0.04251472940050984,15.272534876900956,0.44500905237312516,4726,0,6.796416272905198,1.9185805756549008,28.229297597670307,0.022159470360528167,0.006255462834141042,0.119140625,,
1.9153100000005217,1180,,,,0.0625,-0.12109375,-0.95703125,0.004515375033064399,0.04912073348519067,15.272370372174095,0.4518178321320492,4754,0,6.900329273073437,2.2478536376402287,32.57603439899361,0.021852282845584672,0.007118607176743043,0.12109375,,
1.9244550000000744,1180,,,,0,0.046875,-0.9921875,0.004515375033064399,0.04912073348519067,15.272659937150927,0.44581580973662893,4791,0,6.808793256713113,2.2652977312543765,33.27017939663408,0.021684007716721087,0.007214308267733083,0.12109375,,
1.9335200000004842,1180,,,,-0.0625,-0.001953125,-1.0390625,0.004515375033064399,0.04912073348519067,15.272623837282726,0.44177622038247777,4774,0,6.747082034158097,2.257254669392822,33.45527233795495,0.021761272288520123,0.00728029290832833,0.123046875,,
1.9423050000006332,1180,,,,-0.09375,0.064453125,-0.91796875,0.004515375033064399,0.04912073348519067,15.272903041169878,0.43866739284346146,4744,0,6.6997245582209635,2.2429750028354754,33.47861517804058,0.02189981316024222,0.007331754172627379,0.123046875,,
1.9508850000007079,1180,,,,-0.0625,0.05859375,-0.97265625,0.004515375033064399,0.04912073348519067,15.27304180878335,0.4389861513677644,4727,0,6.704653843316763,2.2350452362353286,33.335729009533196,0.021977511993416646,0.0073263638411630305,0.125,,
1.9676500000003725,1180,,,,0.09375,-0.0234375,-1.046875,0.004515375033064399,0.04912073348519067,15.273451319159175,0.431763879837029,4705,0,6.5945246000621545,2.2248502175783598,33.7378408984537,0.022078220411015433,0.007448714875478318,0.125,,
1.9882749999994411,1180,,,,0.03125,0.107421875,-0.9765625,0.004515375033064399,0.04912073348519067,15.273139697334818,0.4306678409258818,4696,0,6.577650097610562,2.220618730300934,33.760061683846786,0.022120291437213054,0.007467824033849805,0.126953125,,
1.999164999999106,1180,,,,-0.125,0.1015625,-0.94921875,0.004515375033064399,0.04912073348519067,15.273195195403574,0.4320629781073835,4695,0,6.598982201341449,2.2200873066761693,33.64287459700782,0.0221255863845879,0.007443683281219542,0.12890625,,
2.007885000000708,1180,,,,-0.0625,-0.1484375,-0.994140625,0.004515375033064399,0.04912073348519067,15.273276387347131,0.4336575172466458,4691,0,6.623371118358777,2.2183697517126775,33.493061343999905,0.022142716942145167,0.007416273768660941,0.130859375,,
2.0165849999999628,1180,,,,-0.0625,0.064453125,-1,0.004515375033064399,0.04912073348519067,15.273279493657881,0.4310146937652347,4693,0,6.583007883749791,2.218845129606024,33.70564290350102,0.022137972961597596,0.007461746112509694,0.1328125,,
2.025460000000894,1180,,,,0.0625,0.04296875,-1.005859375,0.004515375033064399,0.04912073348519067,15.273282502581921,0.42944873065194067,4699,0,6.559091783622302,2.2219301884953273,33.87557701271031,0.02210723529457729,0.007488953517595606,0.1328125,,
2.0330699999993667,1180,,,,-0.03125,0.099609375,-0.962890625,0.004515375033064399,0.04912073348519067,15.273212064707248,0.4290347368643498,4697,0,6.552738519255087,2.221167905423387,33.896788325927105,0.02211482228122126,0.007496214497320535,0.1328125,,
2.0433499999996276,1180,,,,-0.125,-0.06640625,-0.8984375,0.004515375033064399,0.04912073348519067,15.27336800413955,0.43233765286057435,4695,0,6.603252074185488,2.220154894634017,33.62214359971822,0.022124912817530245,0.007438869958822482,0.1328125,,
2.0526200000001116,1180,,,,-0.03125,0.029296875,-1.015625,0.004515375033064399,0.04912073348519067,15.273585367287836,0.4295076982198894,4691,0,6.560122494668782,2.217935572726315,33.8093621655505,0.02214705155966764,0.007487776870799233,0.1328125,,
2.060139999999665,1180,,,,-0.09375,0.05078125,-1.029296875,0.004667602710471738,0.05060196993417786,15.273716564831314,0.42944898288820293,4694,0,6.559282043689505,2.2944577765026075,34.980318901060805,0.022053999185510986,0.007714559245529096,0.134765625,,
2.0777849999992175,1180,,,,0.125,0.2265625,-1.0703125,0.004667602710471738,0.05060196993417786,15.27377571250629,0.43148270792067933,4693,0,6.590370104605317,2.293955702966925,34.80769162514743,0.022058826100578566,0.007678168165216921,0.134765625,,
2.0861399999996646,1180,,,,-0.03125,0.0078125,-0.97265625,0.004667602710471738,0.05060196993417786,15.273751474485664,0.43381338423314797,4694,0,6.62595781708266,2.2945872745885243,34.630272904435834,0.022052754538722887,0.007636929079705095,0.13671875,,
2.0934400000004096,1180,,,,-0.1875,0.03515625,-0.900390625,0.004667602710471738,0.05060196993417786,15.273664181453492,0.432462298240715,4702,0,6.6052839144682665,2.298083369457464,34.79159108397633,0.022019205485188327,0.007660831932347207,0.13671875,,
2.1021899999994784,1180,,,,0.125,0.1328125,-1.125,0.004667602710471738,0.05060196993417786,15.273520149291537,0.43716711041186274,4703,0,6.677080669483144,2.298610077469497,34.425375268791335,0.022014159961347056,0.007578457178965733,0.138671875,,
2.111800000000745,1180,,,,-0.0625,-0.01953125,-0.978515625,0.004667602710471738,0.05060196993417786,15.273509616228099,0.4385119497993508,4730,0,6.697616482091318,2.312071160204758,34.52080551920193,0.021885991575491356,0.00755522058772429,0.138671875,,
2.1236549999993293,1180,,,,-0.03125,0.00390625,-0.875,0.004667602710471738,0.05060196993417786,15.273499219489246,0.43381575264993055,4746,0,6.625884559500854,2.3198472187831007,35.01188706127807,0.021812630385513763,0.007637013515670102,0.138671875,,
2.1413499999996275,1180,,,,-0.09375,0.134765625,-0.958984375,0.004667602710471738,0.05060196993417786,15.273550590532896,0.43574976249398323,4715,0,6.655446042264547,2.3048292329831512,34.63072524886584,0.021954758821191925,0.007603092206418114,0.140625,,
2.1554350000005216,1180,,,,0.0625,0.26953125,-1.0625,0.004667602710471738,0.05060196993417786,15.273432155545423,0.4325364946063357,4705,0,6.606316805167308,2.2997813614881886,34.81185400750616,0.02200294809826327,0.007659634169314764,0.142578125,,
2.1651050000004473,1180,,,,-0.041015625,0.0078125,-0.982421875,0.004667602710471738,0.05060196993417786,15.27329305364721,0.4294672343537265,4702,0,6.559378927223849,2.2983177634871943,35.03864907008688,0.022016959855629552,0.007714445299715947,0.142578125,,
2.1760950000006707,1180,,,,-0.125,0.068359375,-1.0078125,0.004667602710471738,0.05060196993417786,15.273475168797368,0.42881350006093827,4709,0,6.54947234522583,2.301605723626083,35.14184963776226,0.021985507515360443,0.007726113993146889,0.14453125,,
2.1842549999998884,1180,,,,-0.0625,0.03125,-0.89453125,0.004667602710471738,0.05060196993417786,15.273500696765574,0.4306677432172116,4706,0,6.577804076102538,2.3004729974395186,34.97326723058295,0.021996332923924364,0.007692836294412769,0.14453125,,
2.1922049999991433,1180,,,,0.03125,0.107421875,-0.96875,0.004667602710471738,0.05060196993417786,15.2734181467323,0.42934963857663255,4701,0,6.557636561129295,2.2975671770499435,35.0365128599667,0.022024152520820024,0.007716495030255788,0.146484375,,
2.201125,1180,,,,-0.125,0.0546875,-0.984375,0.004667602710471738,0.05060196993417786,15.273628344345248,0.4279019705142165,4706,0,6.535615665447122,2.300375385215884,35.19753154056539,0.02199726629809552,0.007742494743334332,0.14453125,,
2.210655000001192,1180,,,,-0.1875,0.048828125,-0.9609375,0.004733184077933627,0.05255081257920918,15.273647156421239,0.42617282548027424,4697,0,6.509213364040796,2.3280485279720686,35.76543581799046,0.022572902561006955,0.008073296977714469,0.146484375,,
2.2196399999996648,1180,,,,0.03125,0.04296875,-1.025390625,0.004733184077933627,0.05255081257920918,15.273629909627827,0.42510276045181433,4705,0,6.492862236702185,2.3320861948647296,35.91769099430683,0.022533820874599937,0.008093628150949415,0.146484375,,
2.2271100000003354,1180,,,,0,0.064453125,-0.97265625,0.004733184077933627,0.05255081257920918,15.273613690454534,0.42635360600001176,4696,0,6.511960273576438,2.327637920984399,35.74404362430232,0.022576884534079304,0.008069891456869671,0.146484375,,
2.2437250000005586,1180,,,,0.125,0.00390625,-0.91015625,0.004733184077933627,0.05255081257920918,15.273587332310273,0.43020440879659344,4690,0,6.57076460849968,2.3243974580993148,35.37483986403298,0.02260835916684428,0.007997670851156583,0.146484375,,
2.2516699999999257,1180,,,,-0.125,0.16796875,-0.93359375,0.004733184077933627,0.05255081257920918,15.273719282793813,0.43165033427023936,4689,0,6.59290603396775,2.3240044506930277,35.2500769572533,0.022612182417954627,0.007970811704043505,0.1484375,,
2.2750600000005217,1180,,,,-0.09375,-0.0546875,-0.98828125,0.004733184077933627,0.05255081257920918,15.273197936980214,0.43384705072705065,4689,0,6.626231880129341,2.324100974268025,35.074247571044246,0.022611243298394146,0.007930723453369913,0.1484375,,
2.286514999999665,1180,,,,-0.015625,0.04296875,-0.970703125,0.004733184077933627,0.05255081257920918,15.273149143730562,0.43456099691229155,4702,0,6.637114917889665,2.330481001111582,35.112861988120905,0.022549341768563543,0.007917719254425418,0.1484375,,
2.2964749999996275,1180,,,,-0.0625,0.07421875,-0.98828125,0.004733184077933627,0.05255081257920918,15.27293867652828,0.43400594104623635,4702,0,6.628546122848116,2.3306722084043385,35.16113737778306,0.022547491830774157,0.007927954577862913,0.1484375,,
2.306210000000894,1180,,,,0,0.056640625,-1.033203125,0.004733184077933627,0.05255081257920918,15.272881743292364,0.43287745191125093,4700,0,6.611286132378263,2.3294692368643264,35.2347363314973,0.022559135681030615,0.007948651975875866,0.150390625,,
2.3148650000002235,1180,,,,-0.09375,0.103515625,-0.984375,0.004733184077933627,0.05255081257920918,15.272904022552174,0.43704300849667643,4704,0,6.674915922497194,2.3313916536620454,34.92765572977935,0.02254053388956108,0.007872880076600138,0.150390625,,
2.3236250000009315,1180,,,,-0.0625,0.12890625,-0.98828125,0.004733184077933627,0.05255081257920918,15.272781400005396,0.4497822100930623,4728,0,6.869425372362641,2.3432391014647695,34.11113702307892,0.02242656865292126,0.007649957562772835,0.150390625,,
2.3318849999997764,1180,,,,0.125,0.05859375,-1.0390625,0.004733184077933627,0.05255081257920918,15.272738258822425,0.45519220830090645,4783,0,6.9520314548351205,2.3708976033290297,34.10366622665489,0.02216494398805812,0.007559058517012351,0.150390625,,
2.340690000001341,1180,,,,-0.0625,0.140625,-0.951171875,0.004733184077933627,0.05255081257920918,15.272800598489294,0.4429810847526635,4809,0,6.765561776329916,2.383851862396436,35.235091204644846,0.022044495888423603,0.0077673982318902405,0.150390625,,
2.349655000000261,1180,,,,-0.09375,-0.0234375,-1,0.004733184077933627,0.05255081257920918,15.273047181860433,0.4388836872871277,4786,0,6.703091263285181,2.3724263554366067,35.39301886625189,0.022150661266590953,0.007839787721084087,0.150390625,,
2.3573650000002235,1180,,,,-0.0625,0.07421875,-0.92578125,0.004939541166222521,0.05255081257920918,15.272916570527302,0.4433116179971477,4760,0,6.770661356415906,2.4621472372293853,36.36494439197206,0.02134348904265521,0.007761547921668216,0.15234375,,
2.3654850000003353,1180,,,,0.0625,0.234375,-1.05078125,0.004939541166222521,0.05366008574089063,15.272877040869664,0.4479092774471377,4740,0,6.84086331991491,2.4517099164038663,35.83918873611353,0.021886800466018628,0.00784405172731299,0.15234375,,
2.3747700000004843,1180,,,,-0.125,-0.02734375,-0.970703125,0.004939541166222521,0.05366008574089063,15.272938373957452,0.4502821564747025,4773,0,6.877131626730797,2.4689110845442186,35.90030289587277,0.021734312781376136,0.007802684120850423,0.15234375,,
2.3857949999999253,1180,,,,0,0.091796875,-0.900390625,0.004939541166222521,0.05366008574089063,15.27300984462259,0.4427489714071674,4783,0,6.762109398998193,2.474167533630363,36.5886942615408,0.021688137529698653,0.007935406331763928,0.154296875,,
2.396510000000708,1180,,,,0.0625,-0.025390625,-1.076171875,0.004939541166222521,0.05366008574089063,15.27293705934457,0.4382724112472989,4756,0,6.693706951827175,2.460380243603685,36.7566172422902,0.021809671850679245,0.008016497603953678,0.154296875,,
2.4074899999992923,1180,,,,-0.041015625,0.07421875,-0.935546875,0.004939541166222521,0.05366008574089063,15.273053236277603,0.4358620747841312,4729,0,6.656944671852446,2.446386103657572,36.74938315172761,0.021934430407638383,0.008060767872652079,0.15625,,
2.416620000000112,1180,,,,0,0.09765625,-1.03125,0.004939541166222521,0.05366008574089063,15.273134439476605,0.4352694826913843,4716,0,6.647929326546948,2.4394246048062733,36.694502678676244,0.021997025706458364,0.008071699187085465,0.15625,,
2.4289900000002236,1180,,,,-0.09375,-0.08203125,-0.87109375,0.004939541166222521,0.05366008574089063,15.273145170849343,0.4339649996284496,4700,0,6.6280104383928915,2.431218813123606,36.68097441489711,0.02207126954235299,0.008095956733873477,0.15625,,
2.4482700000004844,1180,,,,-0.03125,-0.025390625,-0.931640625,0.004939541166222521,0.05366008574089063,15.273403513774458,0.434831738084244,4699,0,6.641360596356547,2.4306333159221682,36.59842408279434,0.022076586126497776,0.008079682613578996,0.158203125,,
2.4577549999998882,1180,,,,0.125,0.16015625,-1.0078125,0.004939541166222521,0.05366008574089063,15.273544896637533,0.4318844241643628,4701,0,6.596406142632843,2.4316321702886508,36.86298444501336,0.022067517610823855,0.008134745584278581,0.158203125,,
2.4666500000003726,1180,,,,-0.0625,0.052734375,-0.9375,0.004939541166222521,0.05366008574089063,15.273459311019858,0.4342193119685924,4695,0,6.632030993411334,2.4283331869613183,36.61522675894871,0.02209749717584591,0.008091048698988267,0.15625,,
2.474614999999292,1180,,,,-0.09375,-0.0078125,-0.9765625,0.004939541166222521,0.05366008574089063,15.273306218722402,0.43532933278205843,4692,0,6.648918205572487,2.427165940887463,36.50467438226635,0.022108124062284133,0.008070498700964298,0.158203125,,
2.4825099999997766,1180,,,,0.03125,0.046875,-1.041015625,0.004939541166222521,0.05366008574089063,15.27342207247331,0.43619883500929857,4694,0,6.662248914618164,2.42799641448036,36.44409636441085,0.022100562184057,0.008054350179434277,0.158203125,,
2.492120000001043,1180,,,,-0.25,-0.01171875,-0.90625,0.004939541166222521,0.05366008574089063,15.273344389094538,0.43814674061738934,4700,0,6.691966062408663,2.431135828555352,36.32917151525877,0.022072022924682463,0.008018583065195128,0.158203125,,
2.500785000000149,1180,,,,0.03125,0.078125,-0.986328125,0.004939541166222521,0.05366008574089063,15.273269037168344,0.43723685466608153,4698,0,6.678036114280339,2.4300368818216795,36.38849566304799,0.022082004656926973,0.008035309306899927,0.158203125,,
2.5096049999995156,1180,,,,0.03125,0.119140625,-1.01171875,0.005027006982348292,0.054091285557412064,15.273528560025529,0.43520635304210653,4692,0,6.647136662693168,2.470074118593757,37.15997193884948,0.02189864876937656,0.008137531737687536,0.158203125,,
2.53225,1180,,,,-0.01953125,-0.03125,-0.978515625,0.005027006982348292,0.054091285557412064,15.272854261315592,0.46401218769390373,4782,0,7.086790518123208,2.517561006122749,35.524699081827436,0.021485590786424313,0.0076326914728300785,0.16015625,,
2.552079999999143,1180,,,,-0.0625,-0.07421875,-0.9140625,0.005027006982348292,0.054091285557412064,15.273303624579151,0.44271333583915706,4844,0,6.761695196921725,2.5501740223038576,37.71501003867831,0.021210821333888952,0.007999663395362339,0.16015625,,
2.5783300000000744,1180,,,,0.03125,0,-1.044921875,0.005027006982348292,0.054091285557412064,15.273286229311896,0.4381583435648657,4745,0,6.692117795027374,2.4977441390194604,37.323672647774174,0.021656055443151467,0.008082835242022336,0.1640625,,
2.604339999999851,1180,,,,0.03125,0.001953125,-0.994140625,0.005027006982348292,0.054091285557412064,15.27323061329755,0.43825748727869906,4701,0,6.693607671211888,2.474947135234938,36.974786345475266,0.021855531694933504,0.008081036148869292,0.166015625,,
2.6260600000005216,1180,,,,-0.041015625,0.072265625,-0.96875,0.005027006982348292,0.054091285557412064,15.273076489598534,0.43499201110910857,4709,0,6.6436662580337105,2.479119559116494,37.31553426722289,0.021818748256211194,0.008141782482225584,0.16796875,,
2.6451849999995902,1180,,,,0.03125,0.1484375,-0.97265625,0.005027006982348292,0.054091285557412064,15.273301242881667,0.43815510050912165,4694,0,6.69207484118091,2.471263087382172,36.9282045707977,0.021888112938518164,0.008082887122623228,0.16796875,,
2.6675149999996646,1180,,,,-0.125,0.01953125,-0.978515625,0.005027006982348292,0.054091285557412064,15.273060310858824,0.43629864577916677,4701,0,6.663615530531245,2.474844495432884,37.13966515765626,0.02185643811448879,0.008117407931111495,0.16796875,,
2.6750250000003724,1180,,,,-0.0234375,0.060546875,-0.98828125,0.0050891282210458405,0.053378528855868315,15.273157492958676,0.4365099286599974,4703,0,6.666884887664296,2.506370142894818,37.59432156286878,0.021297145199079395,0.008006517249852976,0.16796875,,
2.6830649999994787,1180,,,,0.03125,0.06640625,-1.013671875,0.0050891282210458405,0.053378528855868315,15.273199549430718,0.43697272097040574,4699,0,6.673971565038715,2.5040403697796645,37.519494132953184,0.021316960181662407,0.007998015624682792,0.16796875,,
2.691730000000447,1180,,,,-0.25,-0.1796875,-0.87890625,0.0050891282210458405,0.053378528855868315,15.273141523406625,0.43697925822575534,4703,0,6.67404605367521,2.5062287516304202,37.551864812954214,0.021298346697660005,0.007997926359299582,0.16796875,,
2.7044199999999257,1180,,,,0.03125,0.013671875,-1.009765625,0.0050891282210458405,0.053378528855868315,15.272953059132798,0.4353368024796168,4696,0,6.648878549184154,2.5024556237129034,37.63725875275561,0.02133045970927963,0.008028200313933857,0.16796875,,
2.7121650000009687,1180,,,,-0.01953125,-0.06640625,-0.91796875,0.0050891282210458405,0.053378528855868315,15.273007221931042,0.4367193149226657,4693,0,6.67001725077065,2.5009238221235495,37.495012802771896,0.021343524494298386,0.008002757241699935,0.169921875,,
2.721665000000969,1180,,,,0.0625,0.1875,-1.0546875,0.0050891282210458405,0.053378528855868315,15.273059115025521,0.43719327737046776,4691,0,6.677278769970903,2.5000002486792017,37.4404055125303,0.021351409418486747,0.007994054268922026,0.169921875,,
2.733819999999367,1180,,,,-0.0625,0.01171875,-0.923828125,0.0050891282210458405,0.053378528855868315,15.27325282709834,0.43561508317204656,4690,0,6.653259300584138,2.499235695613944,37.56408074151744,0.021357941129580314,0.008022914250641309,0.169921875,,
2.754390000000596,1180,,,,0,-0.0390625,-0.9921875,0.0050891282210458405,0.053378528855868315,15.273309289890788,0.43717833354248525,4688,0,6.677159903033414,2.498410687110566,37.41726607409156,0.02136499380636298,0.007994196579240016,0.169921875,,
2.7626899999994783,1180,,,,0,0.056640625,-1.04296875,0.0050891282210458405,0.053378528855868315,15.273310743188363,0.43457273372364325,4700,0,6.637364402678056,2.504976710827414,37.74053312210343,0.0213089920657334,0.008042127208554505,0.171875,,
2.7717400000002237,1180,,,,0.03125,0.08203125,-0.94921875,0.0050891282210458405,0.053378528855868315,15.273312010270308,0.435678133178963,4694,0,6.654248064094402,2.5017639490727364,37.59649362295317,0.021336357043458373,0.008021722115214347,0.169921875,,
2.7806150000002234,1180,,,,-0.25,0.08984375,-0.82421875,0.0050891282210458405,0.053378528855868315,15.27318300591776,0.43490156432108706,4692,0,6.6423311814358765,2.500696281576857,37.64787110534106,0.021345466560301184,0.008036113737455868,0.171875,,
2.793209999999963,1180,,,,0.03125,0.009765625,-1.013671875,0.0050891282210458405,0.053378528855868315,15.272777942038628,0.4343955206777306,4691,0,6.634426326327228,2.5001768257792976,37.684898479585314,0.02134990145716209,0.00804568868962304,0.171875,,
2.8019050000002608,1180,,,,-0.03125,0.041015625,-1.048828125,0.0050891282210458405,0.053378528855868315,15.272936393795145,0.43399517318173475,4703,0,6.628380675218744,2.5062302240465852,37.81059578271547,0.021298334184831107,0.008053027047078398,0.171875,,
2.8109550000010057,1180,,,,-0.0625,-0.08984375,-0.94921875,0.005172157528200396,0.052828892055039475,15.272878992151458,0.4351175719447622,4708,0,6.645498023671109,2.5498790342501834,38.370021707441246,0.020718195391011687,0.007949576068921275,0.173828125,,
2.818745000001043,1180,,,,-0.125,0.150390625,-0.978515625,0.005172157528200396,0.052828892055039475,15.272966617328011,0.435640577801817,4703,0,6.653524001920637,2.547075733449419,38.281604345519284,0.02074099774940539,0.007939986695740428,0.171875,,
2.8330300000002606,1180,,,,-0.03125,0.109375,-0.98046875,0.005172157528200396,0.052828892055039475,15.272883524088067,0.4348336835946338,4694,0,6.641164201891007,2.542275541708654,38.28057046059433,0.020780159816796796,0.007954763720493007,0.173828125,,
2.840570000000298,1180,,,,-0.0625,-0.0390625,-0.96875,0.005172157528200396,0.052828892055039475,15.27295412114893,0.437342822629747,4699,0,6.6795168652379,2.545343375437315,38.10669883452206,0.020755114050560252,0.007909088804008568,0.173828125,,
2.8583700000001118,1180,,,,-0.0625,0.025390625,-0.91796875,0.005172157528200396,0.052828892055039475,15.27270152329049,0.43934256362093616,4701,0,6.7099478406598205,2.5459456856650164,37.94285359772129,0.020750203883960802,0.007873219480919924,0.171875,,
2.867625000000931,1180,,,,-0.03125,0.099609375,-0.92578125,0.005172157528200396,0.052828892055039475,15.27290229421438,0.43748899857225565,4693,0,6.681726729987755,2.541974189911151,38.0436718326523,0.020782623310933772,0.007906473010627942,0.173828125,,
2.8747449999991805,1180,,,,0,0.0625,-1.001953125,0.005172157528200396,0.052828892055039475,15.272857950743175,0.43811001385093173,4696,0,6.691192008343405,2.543731886279069,38.01612452769596,0.02076826270095499,0.007895288610634082,0.173828125,,
2.886285000000149,1180,,,,-0.375,0.09375,-0.9765625,0.005172157528200396,0.052828892055039475,15.272698854197731,0.4390817564856888,4696,0,6.705963439178107,2.5436291073135515,37.93085259685374,0.020769101872259433,0.007877897416857117,0.173828125,,
2.9066299999998884,1180,,,,-0.0625,0.00390625,-0.9453125,0.005172157528200396,0.052828892055039475,15.27281918232145,0.4423030207848512,4692,0,6.755214060241598,2.5414192502024173,37.621594631029716,0.020787161366953442,0.00782046158477324,0.173828125,,0.085464999999851,15356,
2.926859999999404,1180,,,,-0.0625,0.0625,-0.994140625,0.005172157528200396,0.052828892055039475,15.272949979670948,0.4416398992388856,4708,0,6.745144090102417,2.5502036845348486,37.807994172829105,0.02071555788873207,0.007832136919440862,0.173828125,,
2.9514749999996273,1450,,,,-0.0625,-0.048828125,-0.90625,0.005172157528200396,0.052828892055039475,15.272773247260856,0.43812202214628015,4702,0,6.6913382988715355,2.546996550802528,38.06408280436318,0.02074164255872028,0.007895115998536322,0.17578125,,
2.9625250000013037,1450,,,,-0.041015625,0.185546875,-0.99609375,0.005062172552474946,0.05257011877765037,15.272815978598683,0.44349719440015045,4709,0,6.773451037098304,2.4963981802103374,36.855631885984316,0.02105838691695449,0.007761201563239027,0.177734375,,
2.9715649999994787,1450,,,,-0.0625,-0.087890625,-0.955078125,0.005062172552474946,0.05257011877765037,15.272844294821105,0.44634803049113836,4724,0,6.81700397099122,2.5042813600480267,36.735806091717656,0.02099209761983062,0.007711616276205053,0.17578125,,
2.9830849999999627,1450,,,,-0.01953125,0.12109375,-0.92578125,0.005062172552474946,0.05257011877765037,15.21571136303754,1.8044832524274563,5918,0,27.456496328371387,3.1373726633541508,11.426704361081338,0.016756096396099752,0.0019146695976401233,0.181640625,,
2.991089999999851,1450,,,,0,0.0859375,-1.07421875,0.005062172552474946,0.05257011877765037,15.201786917721313,2.2273889246819936,7809,0,33.86029181590807,4.139837514989498,12.226231059959563,0.012698594712305689,0.0015525595308943008,0.18359375,,
2.9999950000001117,1450,,,,-0.125,0.431640625,-1.0078125,0.005062172552474946,0.05257011877765037,15.194034492727617,2.466924344897149,9523,0,37.482533587316766,5.048111973329196,13.467904888471471,0.010413817889816086,0.0014025230886590572,0.1875,,
3.0093600000003353,1450,,,,-0.0625,-0.095703125,-0.875,0.005062172552474946,0.05257011877765037,15.188673378987756,2.654710445243873,10712,0,40.32152986859635,5.678442242171699,14.082903750619455,0.00925784159381449,0.0013037729210417087,0.19140625,,
3.0182000000001863,1450,,,,-0.0625,0.40625,-0.93359375,0.005062172552474946,0.05257011877765037,15.184771207926204,2.782806048634218,11450,0,42.25627316454376,6.06991414160354,14.36452788433946,0.008660768101698796,0.0012440784489665007,0.193359375,,
3.026375,1450,,,,-0.03125,0.166015625,-1.11328125,0.005062172552474946,0.05257011877765037,15.182680217372397,2.8771878149802492,11877,0,43.68342252016554,6.296328456034598,14.413542009278299,0.008349329159800347,0.0012034340659407459,0.1953125,,
3.039585000000894,1450,,,,-0.03125,-0.08984375,-0.9140625,0.005062172552474946,0.05257011877765037,15.18037432784514,2.93867379865014,12173,0,44.61016829093974,6.453213270788321,14.465790016082408,0.008146347652202795,0.0011784335453477158,0.197265625,,
3.058320000000298,1450,,,,-0.0625,0.009765625,-1.0234375,0.005062172552474946,0.05257011877765037,15.177743728409713,3.0416124090910364,12434,0,46.16481366633463,6.591184212675233,14.27750637165857,0.00797582302077902,0.0011387486399839356,0.19921875,,
3.0687599999997763,1450,,,,-0.125,0.00390625,-1.04296875,0.005062172552474946,0.05257011877765037,15.176823482793932,3.075868536414548,12512,0,46.68191383344332,6.6328834947934086,14.208679443732564,0.00792568101322994,0.0011261346089026171,0.19921875,,
3.0780900000007825,1450,,,,-0.09375,0.044921875,-0.99609375,0.005062172552474946,0.05257011877765037,15.176225252212554,3.099283594783608,12560,0,47.03542595492309,6.6581122496373695,14.155526636493615,0.007895649218066814,0.0011176707281875477,0.201171875,,
3.088729999999516,1450,,,,-0.0625,0.0234375,-1.109375,0.005062172552474946,0.05257011877765037,15.176295971284214,3.106378004587083,12545,0,47.143311996300845,6.650394829008047,14.106762014365637,0.007904811688525202,0.0011151129725840083,0.201171875,,
3.097315000001341,1450,,,,-0.03125,-0.07421875,-0.908203125,0.005062172552474946,0.05257011877765037,15.176037403885994,3.1230246255635183,12524,0,47.39513853080901,6.639315789298898,14.008432077866043,0.00791800246380534,0.0011091879970659309,0.19921875,,
3.1077099999999627,1450,,,,-0.041015625,-0.041015625,-1,0.005164434270397111,0.052464041649735935,15.17567256146057,3.141431960468424,12498,0,47.673342806175945,6.7591552414942555,14.178060198074943,0.00776192286983745,0.0011004900970136998,0.19921875,,
3.1238200000012295,1450,,,,-0.0625,0.30078125,-1.05078125,0.005164434270397111,0.052464041649735935,15.175109270481862,3.1839579653564587,12493,0,48.31691003690536,6.756262178822291,13.983224866121882,0.007765246561062427,0.0010858318880421556,0.19921875,,
3.1322500000009312,1450,,,,-0.0625,-0.033203125,-0.896484375,0.005164434270397111,0.052464041649735935,15.174818201356683,3.1959898594437726,12521,0,48.498565090438746,6.771635891672099,13.962548951797944,0.007747617043949059,0.0010817648223592283,0.19921875,,
3.1409850000003354,1450,,,,-0.0625,0.1015625,-1.0078125,0.005164434270397111,0.052464041649735935,15.174118525963813,3.219631260754613,12510,0,48.8550663605888,6.76563432762107,13.848378134798486,0.007754489691461542,0.001073871054897563,0.197265625,,
3.148504999998957,1450,,,,0,0.109375,-0.8828125,0.005164434270397111,0.052464041649735935,15.173820569370529,3.236209083730562,12527,0,49.105655961494556,6.774992313004357,13.796765729627689,0.007743778771384445,0.001068391015708553,0.197265625,,
3.155894999999553,1450,,,,-0.0625,0.0625,-1.01171875,0.005164434270397111,0.052464041649735935,15.17392826499254,3.24341063951167,12533,0,49.215280377863664,6.777928363536778,13.771999898197052,0.0077404243355501876,0.0010660112316119917,0.197265625,,
3.1648800000008195,1450,,,,0.0625,-0.08984375,-0.984375,0.005164434270397111,0.052464041649735935,15.173704615414003,3.2556435316136505,12497,0,49.400173281788796,6.75846590112481,13.681057073571631,0.007762714559380163,0.0010620214093272548,0.197265625,,
3.1731199999991806,1450,,,,-0.0625,0.060546875,-0.923828125,0.005164434270397111,0.052464041649735935,15.173620449294432,3.265422850217467,12521,0,49.54828693565307,6.771447472730226,13.666360416302807,0.007747832625301692,0.001058846731025625,0.197265625,,
3.181930000000633,1450,,,,0.03125,-0.09765625,-0.990234375,0.005164434270397111,0.052464041649735935,15.173441149394757,3.2777738320860186,12476,0,49.73510834218333,6.7471518981670995,13.566175128735841,0.007775731514802279,0.0010548693548383815,0.1953125,,
3.192964999999851,1450,,,,-0.1875,0.1015625,-0.96484375,0.005164434270397111,0.052464041649735935,15.173288911898034,3.2855548139484045,12508,0,49.85267242791653,6.7643286169221755,13.568637923479269,0.007755986531832261,0.0010523817298981365,0.1953125,,
3.212144999999553,1450,,,,-0.0625,-0.001953125,-1.033203125,0.005164434270397111,0.052464041649735935,15.173048351825184,3.319117191168018,12475,0,50.36112562696653,6.74690137477154,13.397042442512092,0.007776020240330316,0.0010417567319353832,0.1953125,,
3.2202400000002234,1450,,,,0,0.017578125,-0.935546875,0.005164434270397111,0.052464041649735935,15.173529568526448,3.33020411081257,12517,0,50.530950544642856,6.769451630296896,13.396644150432616,0.007750116924527749,0.0010382555856214349,0.1953125,,
3.2289199999999254,1450,,,,-0.125,-0.0234375,-0.90625,0.005164434270397111,0.052464041649735935,15.173453548145234,3.3345059132761543,12490,0,50.59597058111133,6.754961222451263,13.35078889656294,0.007766742091037142,0.001036921340714867,0.193359375,,
3.2372749999994412,1450,,,,0.03125,-0.041015625,-1.00390625,0.005164434270397111,0.052464041649735935,15.173186148103476,3.3363544314983544,12521,0,50.623126845174475,6.771607691784798,13.3765101324046,0.007747649308359142,0.0010363650947558356,0.1953125,,
3.2449699999997392,1450,,,,-0.0625,0.169921875,-0.953125,0.005164434270397111,0.052464041649735935,15.172904026122815,3.333758943017378,12528,0,50.58280448863131,6.775160399544153,13.394196838308753,0.007743586654164796,0.0010371912388038398,0.193359375,,
3.263105000000447,1450,,,,-0.0625,-0.005859375,-0.953125,0.016709186259231498,0.14515633612697432,15.172706447199579,3.344172067137336,12500,0,50.7401410835994,21.87211709245338,43.10614165699087,0.006636592859913784,0.002860779119392177,0.193359375,,
3.2709950000010433,1450,,,,-0.0625,0.048828125,-1.0546875,0.016709186259231498,0.14515633612697432,15.172478029696066,3.352437504738619,12496,0,50.8647843865758,21.864522643038313,42.98558011544188,0.006638898022006085,0.002853768828031912,0.193359375,,
3.2811849999995903,1450,,,,-0.09375,0.09375,-0.955078125,0.016709186259231498,0.14515633612697432,15.172612411029833,3.367438347315413,12530,0,51.09283686185562,21.92407890698192,42.91027911849964,0.006620863605847906,0.002841031053324496,0.193359375,,
3.289674999999814,1450,,,,-0.03125,0.056640625,-1,0.016709186259231498,0.14515633612697432,15.17257865322409,3.3668038649610352,12534,0,51.08309645110016,21.93152018619958,42.93302816361918,0.0066186171726624774,0.002841572774781317,0.19140625,,
3.298375,1450,,,,-0.0625,-0.17578125,-1.00390625,0.016709186259231498,0.14515633612697432,15.172812002807433,3.3754242741452383,12502,0,51.214677941318435,21.87507200483947,42.71250525074831,0.006635696380558704,0.0028342721649698517,0.19140625,,
3.3060650000004097,1450,,,,-0.09375,0.15234375,-0.939453125,0.016709186259231498,0.14515633612697432,15.172767949051032,3.380141697038999,12521,0,51.28610560408429,21.908252919238993,42.717715960664165,0.006625646356287203,0.0028303247910368623,0.193359375,,
3.314495000001043,1450,,,,-0.03125,0.05078125,-0.95703125,0.016709186259231498,0.14515633612697432,15.172730123941962,3.384887725960177,12507,0,51.35798796583738,21.88364934269992,42.610020776625085,0.006633095506778281,0.0028263633735716104,0.19140625,,
3.323375,1450,,,,-0.125,0.01953125,-0.96875,0.016709186259231498,0.14515633612697432,15.173286915840976,3.3958939441285203,12526,0,51.526873150028884,21.917858616641045,42.5367527209028,0.006622742607563175,0.002817099646321018,0.19140625,,
3.3336799999997018,1450,,,,0.03125,-0.00390625,-0.953125,0.016709186259231498,0.14515633612697432,15.173371281578811,3.4007493203681625,12500,0,51.60083207352294,21.872794202758303,42.38845251873665,0.006636387412663955,0.002813061927376476,0.189453125,,
3.346175000000745,1450,,,,-0.041015625,0.1015625,-0.97265625,0.016709186259231498,0.14515633612697432,15.173528793391677,3.405085503948584,12495,0,51.66716293812445,21.864068495369445,42.3171454595899,0.006639035921320716,0.0028094504879397114,0.189453125,,
3.3662750000003725,1450,,,,0.0625,-0.021484375,-0.923828125,0.016709186259231498,0.14515633612697432,15.173189159702984,3.4213286860487377,12527,0,51.91246733093556,21.91898966732302,42.22297801333959,0.006622400864733942,0.0027961748610718234,0.1875,,
3.386945000000298,1450,,,,0.0625,-0.0078125,-0.98828125,0.016709186259231498,0.14515633612697432,15.171699404301448,3.4499712562801883,12499,0,52.34192685376325,21.87062329623082,41.78413866446795,0.006637046149114119,0.0027732325661705736,0.1875,,
3.4073050000006333,1450,,,,-0.0625,-0.06640625,-0.96875,0.016709186259231498,0.14515633612697432,15.171449283081403,3.4552682705172466,12542,0,52.4214273255928,21.946509283137594,41.86553171630836,0.006614096768386939,0.0027690267803163605,0.1875,,
3.4154400000004097,1450,,,,-0.0625,0.099609375,-0.994140625,0.021770081953642707,0.1826219504773781,15.171475065554423,3.450473627751316,12507,0,52.348774607782204,28.51355591034056,54.46843049140202,0.006404741346594006,0.003488562088523642,0.1875,,
3.4240750000011175,1450,,,,-0.03125,0.05859375,-1.044921875,0.021770081953642707,0.1826219504773781,15.171576473633388,3.4556134097824107,12523,0,52.427103109826874,28.548598442290896,54.45389264115145,0.006396879722363124,0.003483350016399202,0.1875,,
3.4349950000001117,1450,,,,-0.0625,0.01953125,-1.07421875,0.021770081953642707,0.1826219504773781,15.171245577878809,3.4595882663978794,12500,0,52.48626318787024,28.496132227088367,54.29255293921157,0.006408657463477728,0.0034794237460513792,0.1875,,
3.4432250000005586,1450,,,,-0.09375,0.080078125,-0.87890625,0.021770081953642707,0.1826219504773781,15.170934096030134,3.458771063604443,12517,0,52.47278785919906,28.53679445973954,54.38398763243284,0.0063995257328227926,0.003480317283072705,0.1875,,
3.4548799999998883,1450,,,,0,-0.20703125,-1.05078125,0.021770081953642707,0.1826219504773781,15.17051989898697,3.464327238688992,12496,0,52.55564531113394,28.487609342667273,54.20466093417401,0.006410574796947118,0.0034748303326168,0.189453125,,
3.4635700000002982,1450,,,,-0.103515625,0.115234375,-1.01953125,0.021770081953642707,0.1826219504773781,15.170639295711448,3.455666342327398,12519,0,52.42466760577947,28.54102239143379,54.441971108057786,0.006398577737432057,0.003483511843139378,0.189453125,,
3.486530000000261,1450,,,,-0.0625,0.12890625,-0.955078125,0.021770081953642707,0.1826219504773781,15.170603829670071,3.447044195554462,12503,0,52.293741874120514,28.50317828359055,54.50590694428084,0.006407073227427225,0.003492233371193414,0.1875,,
3.4984750000005587,1450,,,,-0.03125,0.01171875,-1.001953125,0.021770081953642707,0.1826219504773781,15.170607643869339,3.458771215884584,12519,0,52.471661046093914,28.53951223749581,54.39033502755931,0.006398916314955289,0.003480392021837334,0.1875,,
3.5117100000008943,1450,,,,-0.01953125,-0.017578125,-0.97265625,0.021770081953642707,0.1826219504773781,15.170300403069366,3.461943480088406,12499,0,52.51872257138851,28.495286369443928,54.2573866504662,0.006408847698867392,0.003477273275813987,0.185546875,,
3.5212150000007822,1450,,,,-0.0625,0.09765625,-0.9296875,0.021770081953642707,0.1826219504773781,15.170240655183656,3.459412874775557,12504,0,52.480125835985916,28.50552070787535,54.3167918403293,0.00640654672997867,0.003479830651475938,0.18359375,,
3.5316899999994784,1450,,,,0,-0.04296875,-0.83203125,0.021770081953642707,0.1826219504773781,15.170451207541266,3.472744222897472,12499,0,52.68309678973691,28.49547960755199,54.08846735278314,0.006408804238163405,0.003466423988062796,0.18359375,,
3.5408549999995156,1450,,,,0,0.099609375,-0.978515625,0.021770081953642707,0.1826219504773781,15.170571698302625,3.47360851350011,12521,0,52.69662700588782,28.54537058451004,54.1692556172915,0.006397603069706746,0.0034655339602091355,0.181640625,,
3.5479550000000746,1450,,,,0.03125,0.001953125,-0.96484375,0.021770081953642707,0.1826219504773781,15.170216413716616,3.4820365918465437,12537,0,52.8232486587923,28.581324743627135,54.10747250371896,0.006389555141879764,0.003457226791502554,0.1796875,,
3.565445000000298,1450,,,,0,-0.01953125,-1.01953125,0.023925348074489698,0.1988408755132172,15.170321726679678,3.4724076585124606,12502,0,52.67754134582049,31.32246510883685,59.46075748526183,0.00634818730972484,0.0037746802609456547,0.1796875,,
3.5748849999997763,1450,,,,-0.03125,0.1015625,-1.01953125,0.023925348074489698,0.1988408755132172,15.170560714429325,3.47841484552014,12524,0,52.76950360393558,31.37796923328033,59.46231647125091,0.006336958075104527,0.0037681020652691436,0.1796875,,
3.5822400000002235,1450,,,,-0.03125,0.037109375,-0.986328125,0.023925348074489698,0.1988408755132172,15.170493783383378,3.476704254468231,12532,0,52.74332027907284,31.397785934813495,59.52940726651846,0.006332958506247563,0.0037699726612037358,0.1796875,,
3.590824999999255,1450,,,,-0.0625,0.0078125,-1.0234375,0.023925348074489698,0.1988408755132172,15.170158927842655,3.475176854582178,12536,0,52.71898518637199,31.40853949878103,59.57728394760571,0.006330790246421176,0.003771712881237671,0.1796875,,
3.599534999999218,1450,,,,0.0625,0.16796875,-1.08203125,0.023925348074489698,0.1988408755132172,15.16993166099353,3.476000473379354,12516,0,52.73068963474596,31.358367376485024,59.46891192528986,0.006340919255328444,0.003770875687205018,0.1796875,,
3.6096899999994783,1450,,,,-0.041015625,-0.037109375,-0.9765625,0.023925348074489698,0.1988408755132172,15.170378807771664,3.4914272444601577,12536,0,52.96627387823499,31.408715657223613,59.299462388896,0.00633075473964776,0.0037541035257706748,0.181640625,,
3.6194950000010433,1450,,,,0,0.1484375,-0.99609375,0.023925348074489698,0.1988408755132172,15.170069141215603,3.4944321539196572,12583,0,53.010777384248165,31.5257241781704,59.47040532844191,0.006307257983653302,0.003750951887989131,0.181640625,,
3.628640000000596,1450,,,,-0.08203125,0.068359375,-1.009765625,0.023925348074489698,0.1988408755132172,15.17010458554756,3.505397465191631,12539,0,53.17724616087035,31.41625360296333,59.07837631893111,0.006329235752491557,0.0037392097159692932,0.1796875,,
3.639854999999516,1450,,,,0.0625,-0.125,-0.93359375,0.023925348074489698,0.1988408755132172,15.16967861581781,3.4960984573517244,12576,0,53.03469000728209,31.50784597367666,59.409880531686674,0.0063108368524887265,0.003749260634613208,0.1796875,,
3.651980000000447,1450,,,,-0.1875,0.181640625,-0.982421875,0.023925348074489698,0.1988408755132172,15.169789870249744,3.4926589664300023,12538,0,52.98290260918679,31.41247860598866,59.28795339450127,0.00632999636887326,0.003752925297051201,0.1796875,,
3.6632900000009685,1450,,,,0,0.09375,-0.984375,0.023925348074489698,0.1988408755132172,15.169807440141557,3.4957731031946793,12563,0,53.030204829889385,31.47729610439692,59.3572968563293,0.0063169617508996275,0.003749577738782269,0.1796875,,
3.672329999999143,1450,,,,-0.01953125,-0.021484375,-0.92578125,0.023925348074489698,0.1988408755132172,15.170007052113233,3.494459796699609,12532,0,53.01097975925924,31.397877561841295,59.22900822514441,0.006332940025056789,0.0037509375683343477,0.177734375,,
3.6808099999995902,1450,,,,-0.125,0.0078125,-0.91015625,0.023925348074489698,0.1988408755132172,15.169841550795578,3.5007188912640275,12549,0,53.10535089435207,31.44197727090247,59.20679694491281,0.006324057606174521,0.003744271945567063,0.177734375,,
3.690245000000112,1450,,,,-0.03125,0.0625,-1.03515625,0.023925348074489698,0.1988408755132172,15.170047946567124,3.495499180347728,12544,0,53.02689016306112,31.428208905016824,59.26843684095569,0.006326828108918311,0.00374981212177008,0.177734375,,
3.6987599999997767,1450,,,,0,0.06640625,-0.919921875,0.023925348074489698,0.1988408755132172,15.169784775630845,3.502242764290774,12520,0,53.12826896630147,31.36863699694942,59.043212977343785,0.006338843333631434,0.003742656769776166,0.17578125,,
3.7076550000002606,1450,,,,-0.0625,-0.05078125,-0.91796875,0.023925348074489698,0.1988408755132172,15.169892599676302,3.49670848543605,12541,0,53.044692176441664,31.420293120698446,59.23362325524608,0.006328422040793397,0.003748553669645516,0.17578125,,
3.7267200000006704,1450,,,,-0.03125,0.126953125,-0.97265625,0.024830095409577542,0.20634217769630087,15.169038805023144,3.5063054906957953,12556,0,53.18728405063023,32.649298292505655,61.385533920901125,0.006319957502537346,0.0038795396565065978,0.173828125,,
3.7404900000002237,1450,,,,-0.08203125,0,-1.013671875,0.024830095409577542,0.20634217769630087,15.168349028005501,3.5353150932706217,12591,0,53.62489325870461,32.740398158501,61.054477070099246,0.006302372277128963,0.0038478804368119943,0.173828125,,
3.749129999999888,1450,,,,0,-0.009765625,-0.978515625,0.024830095409577542,0.20634217769630087,15.168151420874544,3.5416354781216213,12597,0,53.72006320969017,32.7556934685918,60.97478579042931,0.006299429376885414,0.003841063568575257,0.173828125,,
3.757480000000447,1450,,,,-0.03125,0.05859375,-1.03125,0.024830095409577542,0.20634217769630087,15.168662255463538,3.532513526710375,12596,0,53.58350459952605,32.75288055723422,61.12493164085412,0.006299970389954769,0.0038508525942539036,0.173828125,,
3.7664399999994784,1450,,,,0.0625,0.09765625,-1.0390625,0.024830095409577542,0.20634217769630087,15.168918543768463,3.526396775526192,12569,0,53.49162544096456,32.68131884924912,61.096140900256415,0.006313765324101716,0.0038574669585247157,0.173828125,,
3.7741399999996648,1450,,,,-0.125,0.01953125,-0.912109375,0.024830095409577542,0.20634217769630087,15.169087233892279,3.5250257005472805,12554,0,53.47142235331394,32.64342569426947,61.04835865142525,0.0063210944717889735,0.003858924423833147,0.173828125,,
3.782365000001155,1450,,,,-0.0625,0.0859375,-0.978515625,0.024830095409577542,0.20634217769630087,15.169213111194999,3.5222212332444642,12550,0,53.429324511861346,32.631409384020735,61.07396955163927,0.006323422174873774,0.003861964933704014,0.173828125,,
3.7917799999993296,1450,,,,0,0.03515625,-0.94921875,0.024830095409577542,0.20634217769630087,15.169367747468307,3.5079421444332097,12538,0,53.21326442574994,32.60084432287818,61.264507401847354,0.006329350726401182,0.003877645544264932,0.171875,,
3.804785000000149,1450,,,,-0.0625,0.03515625,-0.927734375,0.024830095409577542,0.20634217769630087,15.168999454136458,3.5006650300240367,12512,0,53.1015859295492,32.53360362253392,61.26672688400835,0.006342432276803822,0.00388580066083259,0.173828125,,
3.8235449999989943,1450,,,,0.0625,-0.029296875,-0.9140625,0.024830095409577542,0.20634217769630087,15.169067788479802,3.4880867279990295,12532,0,52.91102402911399,32.58625280275481,61.58688742222114,0.006332184892362245,0.003899795581026031,0.171875,,
3.832495000001043,1450,,,,-0.0625,0.103515625,-1.02734375,0.024830095409577542,0.20634217769630087,15.168580454352048,3.49025849590527,12507,0,52.942266801624854,32.52089700532226,61.427095910302356,0.006344910402149473,0.0038974941981511075,0.171875,,
3.850375,1450,,,,0,0.15625,-0.9609375,0.024830095409577542,0.20634217769630087,15.168663088647591,3.4973504607024473,12493,0,53.05013084132186,32.48386018248424,61.232384665829855,0.0063521446200400615,0.003889569628272747,0.169921875,,
3.8617849999992178,1450,,,,-0.03125,-0.046875,-0.951171875,0.024984125317978147,0.20900984329554267,15.168620416398035,3.4882301749574394,12523,0,52.91163944895511,32.763617896426524,61.921381075395,0.006379327336690099,0.0039501675901987224,0.169921875,,
3.871150000001304,1450,,,,-0.0625,0.00390625,-0.921875,0.024984125317978147,0.20900984329554267,15.16832217621659,3.4885518073250266,12507,0,52.91547774192866,32.72183743874271,61.83793255789675,0.006387472698830618,0.003949881059656945,0.169921875,,
3.8799599999999628,1450,,,,0.09375,-0.025390625,-1.02734375,0.024984125317978147,0.20900984329554267,15.168635624242253,3.497217916000238,12486,0,53.04802426637946,32.66869413801687,61.58324384329896,0.006397863422778077,0.003940011832410656,0.169921875,,
3.888010000000708,1450,,,,-0.03125,0.115234375,-0.998046875,0.024984125317978147,0.20900984329554267,15.168541121789287,3.4918921256409154,12483,0,52.96690930063643,32.65949993784763,61.66019571290183,0.006399664529257858,0.003946045673709553,0.169921875,,
3.8968899999996647,1450,,,,-0.09375,0.11328125,-0.970703125,0.024984125317978147,0.20900984329554267,15.168707698144237,3.50007909600159,12489,0,53.09167672763304,32.674830731192955,61.54416802245469,0.00639666185312513,0.003936772318715594,0.169921875,,
3.9051699999999254,1450,,,,-0.09375,0.138671875,-0.9609375,0.024984125317978147,0.20900984329554267,15.168453069397781,3.5087187954852523,12494,0,53.22183638303196,32.689493842941744,61.42120615245008,0.006393792583627651,0.003927144523750004,0.169921875,,
3.9136450000004843,1450,,,,0.0625,-0.01953125,-1.02734375,0.024984125317978147,0.20900984329554267,15.168291254942456,3.507547519999424,12511,0,53.20350237390237,32.73381918849074,61.52568482887602,0.006385134655140725,0.003928497823821222,0.169921875,,
3.9216350000007076,1450,,,,-0.125,-0.048828125,-1.021484375,0.024984125317978147,0.20900984329554267,15.168370659859438,3.5011156747914,12523,0,53.10622027827985,32.76457489621002,61.69630360534348,0.006379141006945263,0.003935694203057914,0.169921875,,
3.9312400000002237,1450,,,,0.0625,-0.025390625,-0.931640625,0.024984125317978147,0.20900984329554267,15.168751956158625,3.4998153612226903,12509,0,53.08783110674069,32.728215714636775,61.649185947777774,0.006386227868880395,0.003937057493934881,0.169921875,,
3.9408999999994414,1450,,,,-0.0625,0.064453125,-1.017578125,0.024984125317978147,0.20900984329554267,15.16859883753812,3.496879807957828,12486,0,53.042766989999635,32.66730363184321,61.586726118571654,0.006398135752220624,0.00394040234241453,0.169921875,,
3.956375,1450,,,,-0.09375,0.07421875,-0.966796875,0.024984125317978147,0.20900984329554267,15.168691331777769,3.4933823315155488,12518,0,52.990038290645515,32.74997343268445,61.80401918763266,0.0063819851251223,0.003944323311282449,0.169921875,,
3.9764799999995155,1450,,,,-0.0625,0.072265625,-0.939453125,0.024984125317978147,0.20900984329554267,15.168651673586535,3.5051906293092303,12508,0,53.16901570551129,32.7251614750314,61.54930844739944,0.006386823895582997,0.003931045939484592,0.16796875,,
3.98475,1450,,,,0,-0.005859375,-0.958984375,0.024984125317978147,0.20900984329554267,15.168689463712475,3.493806666739625,12523,0,52.99646837402175,32.7644059724795,61.82375350229984,0.006379173895937583,0.003943844744907509,0.166015625,,
3.993990000001155,1450,,,,-0.09375,0.052734375,-1.0234375,0.024984125317978147,0.20900984329554267,15.1685571009752,3.4975935623776273,12507,0,53.05344766692831,32.723744082880955,61.68071166330593,0.006387100533672849,0.0039396090638202244,0.166015625,,
4.001229999999516,1450,,,,0,0.1171875,-0.974609375,0.024984125317978147,0.20900984329554267,15.16859911087316,3.4857158397911454,12529,0,52.873426188212456,32.77972822303416,61.99660318275731,0.006376192074364803,0.003953022498514369,0.166015625,,
4.0124099999992175,1450,,,,0,0.015625,-0.890625,0.025060352629194857,0.21019013785648907,15.168648238953786,3.5014113508044105,12429,0,53.111677120232116,32.61834332631436,61.41463628134778,0.006443924381865259,0.003957512721367637,0.1640625,,
4.020655000000261,1450,,,,-0.03125,-0.037109375,-0.986328125,0.025060352629194857,0.21019013785648907,15.16901759453421,3.4980303564733837,12468,0,53.061684023559536,32.72024577365204,61.664544531086044,0.006423855716442832,0.003961241368878606,0.1640625,,
4.031125,1450,,,,-0.125,0.06640625,-0.955078125,0.025060352629194857,0.21019013785648907,15.168955267892152,3.4929154597261878,12511,0,52.983878363115494,32.83213782959221,61.966278883140745,0.0064019631906832705,0.003967058364734811,0.1640625,,
4.039689999999479,1450,,,,0.03125,0.08984375,-0.947265625,0.025060352629194857,0.21019013785648907,15.168396406139584,3.4966624607672436,12503,0,53.03876230338505,32.81285509763197,61.86580092110818,0.006405725354623531,0.003962953295444345,0.1640625,,
4.047740000000224,1450,,,,-0.15625,0.0390625,-1.01953125,0.025060352629194857,0.21019013785648907,15.1684475463716,3.49656274396483,12515,0,53.03742857442768,32.843319428073784,61.924795961751045,0.006399783624697293,0.003963052951587354,0.1640625,,
4.063950000000187,1450,,,,0,0.134765625,-0.986328125,0.025060352629194857,0.21019013785648907,15.168228383704198,3.48195926452691,12510,0,52.81515334709887,32.829758027625864,62.15973247653024,0.0064024272636921805,0.003979731659115495,0.1640625,,
4.073350000000559,1450,,,,-0.09375,0.013671875,-1,0.025060352629194857,0.21019013785648907,15.168295098253937,3.47461999166158,12534,0,52.70406138781548,32.89333633051224,62.41138816318389,0.00639005225084189,0.003988120314103201,0.1640625,,
4.081974999999628,1450,,,,0.125,-0.046875,-0.91796875,0.025060352629194857,0.21019013785648907,15.168427493021525,3.477564083135241,12507,0,52.74917864737278,32.822884252958126,62.22444613285537,0.006403768061228376,0.003984709207732048,0.1640625,,
4.091225000000559,1450,,,,-0.0625,-0.01171875,-1.02734375,0.025060352629194857,0.21019013785648907,15.168697991545669,3.475927060403434,12526,0,52.72528781990081,32.87255196678793,62.34684214351582,0.006394092496038948,0.003986514755015794,0.1640625,,
4.101000000000932,1450,,,,-0.125,-0.017578125,-0.99609375,0.025060352629194857,0.21019013785648907,15.168572311201975,3.4881087906917587,12481,0,52.90963042094722,32.75277202807622,61.9032334331128,0.006417476288001229,0.003972625327076064,0.1640625,,
4.111464999999851,1450,,,,0,0.00390625,-1.056640625,0.025060352629194857,0.21019013785648907,15.168755572214096,3.4809244873404332,12516,0,52.80129271380169,32.84538660418927,62.20564860451577,0.006399380844239487,0.00398077636083231,0.166015625,,
4.129759999999776,1450,,,,-0.0625,-0.017578125,-0.98046875,0.025060352629194857,0.21019013785648907,15.1679855442294,3.4830011406980876,12530,0,52.8301109526431,32.88140359731204,62.23989123700103,0.006392371214763823,0.003978604891534365,0.166015625,,
4.140035000000149,1450,,,,-0.125,0.06640625,-0.98046875,0.025060352629194857,0.21019013785648907,15.168394879934805,3.4785124524309103,12534,0,52.763450473242486,32.89227584486413,62.33912973819734,0.006390258273639907,0.003983631395810271,0.166015625,,
4.147515000000596,1450,,,,-0.03125,0.001953125,-0.947265625,0.025060352629194857,0.21019013785648907,15.168175380458539,3.474371271853682,12515,0,52.69987278830344,32.842032714839114,62.31899808708512,0.006400034360891378,0.003988437290936689,0.166015625,,
4.165644999999553,1450,,,,0,-0.11328125,-0.98828125,0.025089002924215488,0.20934339918400466,15.167946502683732,3.46690780914837,12477,0,52.58587217889894,32.78213978906954,62.34020361503861,0.006385897947204943,0.003980981782936132,0.166015625,,
4.173795000000857,1450,,,,-0.0625,0.1328125,-0.9296875,0.025089002924215488,0.20934339918400466,15.168145341237118,3.460823567951872,12516,0,52.49427487907281,32.883505478948116,62.64207964525546,0.006366212973188805,0.0039879282010515165,0.166015625,,
4.182820000000298,1450,,,,-0.03125,0.005859375,-0.951171875,0.025089002924215488,0.20934339918400466,15.16768319171813,3.4675559203789286,12469,0,52.594789649874166,32.76025938184018,62.28803195131432,0.006390163055303795,0.003980306805628712,0.1640625,,
4.200910000000149,1450,,,,0.09375,-0.0234375,-0.94140625,0.025089002924215488,0.20934339918400466,15.167273873899752,3.4697637349116923,12491,0,52.62685684513094,32.818543726684325,62.36082809061152,0.006378814396136362,0.003977881479793776,0.1640625,,
4.209890000000596,1450,,,,-0.1875,0.0078125,-0.9296875,0.025089002924215488,0.20934339918400466,15.167244019713356,3.4682223157974352,12516,0,52.60337417831506,32.88234805775114,62.50995981034689,0.006366437056634024,0.00397965724545296,0.1640625,,
4.236220000000671,1450,,,,0.03125,0.029296875,-0.97265625,0.025089002924215488,0.20934339918400466,15.167361008990909,3.469667974818617,12506,0,52.625706755408345,32.85732396246862,62.43588160284778,0.006371285726833013,0.0039779684129846,0.1640625,,
4.245090000000783,1450,,,,-0.015625,-0.03515625,-0.984375,0.025089002924215488,0.20934339918400466,15.167236051930406,3.467955562618123,12529,0,52.59930063583419,32.91858193553725,62.583687496998564,0.006359429443040742,0.003979965449224734,0.162109375,,
4.255139999999665,1450,,,,0.125,-0.06640625,-1.01953125,0.025089002924215488,0.20934339918400466,15.167513332433902,3.4762128942173978,12534,0,52.725505419421026,32.93047084484768,62.456434666471694,0.006357133494092102,0.003970438927398023,0.162109375,,
4.266449999999255,1450,,,,0,-0.025390625,-1.013671875,0.025089002924215488,0.20934339918400466,15.167393337006,3.4857208061014258,12514,0,52.86929852912595,32.877162664459185,62.18573648437382,0.006367441172480151,0.00395964018831603,0.162109375,,
4.277739999999292,1450,,,,-0.0625,0.1328125,-1.0078125,0.025089002924215488,0.20934339918400466,15.168152203811967,3.4784141181735966,12532,0,52.7611147723455,32.924771162717406,62.403478972689896,0.0063582339919512065,0.003967759212201692,0.162109375,,
4.2899049999993295,1450,,,,-0.08203125,-0.005859375,-1.052734375,0.025089002924215488,0.20934339918400466,15.167774025435573,3.481192144931756,12513,0,52.80193579344624,32.87669122217892,62.26417787178848,0.006367532479752088,0.003964691749236745,0.162109375,,
4.299709999999031,1450,,,,-0.09375,0.076171875,-0.947265625,0.025089002924215488,0.20934339918400466,15.167918122553573,3.4748757188910986,12502,0,52.706630390189666,32.84780248458451,62.32195502047975,0.006373132549194108,0.0039718608007043065,0.162109375,,
4.31069000000041,1450,,,,-0.0625,0,-1.0078125,0.024889363124993336,0.2089660319021458,15.167418408782497,3.4661323874563226,12492,0,52.57228018078226,32.5601070538289,61.93398296947221,0.006417854571444736,0.003974832957284077,0.162109375,,
4.320439999999478,1450,,,,-0.09375,0.146484375,-0.98828125,0.024889363124993336,0.2089660319021458,15.167009377794509,3.473694426031732,12493,0,52.685555935215795,32.560570600017016,61.801702614763634,0.0064177632041263,0.003966286929933862,0.162109375,,
4.328620000000112,1450,,,,-0.0625,0.06640625,-0.951171875,0.024889363124993336,0.2089660319021458,15.167190303043048,3.4728723059225652,12522,0,52.67371516209548,32.637025712854616,61.96074382150385,0.00640272902747511,0.0039671785302989185,0.162109375,,
4.344175000000745,1450,,,,0.03125,-0.03515625,-0.92578125,0.024889363124993336,0.2089660319021458,15.167008775768961,3.460280274538461,12484,0,52.48210129054507,32.53916613168477,62.00050175496094,0.006421984849165101,0.003981662829109934,0.162109375,,
4.351660000000149,1450,,,,-0.15625,0.0859375,-0.9140625,0.024889363124993336,0.2089660319021458,15.166990090531685,3.452678187173046,12518,0,52.366735850648496,32.625790894514004,62.302510104054875,0.006404933832187444,0.003990434547956612,0.162109375,,
4.369275000001304,1450,,,,-0.0625,0.083984375,-0.953125,0.024889363124993336,0.2089660319021458,15.166923198909108,3.4546415541489455,12476,0,52.39628313153706,32.51870986666798,62.06300890662821,0.006426024671917817,0.003988184264474481,0.162109375,,
4.376740000000224,1450,,,,-0.0625,0.078125,-1.09765625,0.024889363124993336,0.2089660319021458,15.166835032937776,3.4504910384404437,12515,0,52.333028362656364,32.61912235681474,62.329896391188,0.0064062432341466385,0.003993004770411091,0.162109375,,
4.384840000000782,1450,,,,0,0.076171875,-0.94921875,0.024889363124993336,0.2089660319021458,15.166798948088992,3.4518920667200645,12524,0,52.35415296644661,32.64318053700507,62.35069939518617,0.006401521802241575,0.0039913936156329485,0.16015625,,
4.394270000000485,1450,,,,0,0.0703125,-0.9609375,0.024889363124993336,0.2089660319021458,15.16708410232491,3.4459187648816916,12529,0,52.264539716740195,32.65508131346576,62.48037673429738,0.006399188839746538,0.003998237295012751,0.16015625,,
4.404490000001155,1450,,,,0.0625,-0.025390625,-0.96875,0.024889363124993336,0.2089660319021458,15.167078532191292,3.4506752313653153,12524,0,52.336662223205096,32.64195101375766,62.36918753921765,0.006401762928143373,0.003992727526469852,0.16015625,,
4.418719999999739,1450,,,,-0.125,0.0859375,-0.986328125,0.024889363124993336,0.2089660319021458,15.167073379934815,3.4584179005924467,12480,0,52.45407807676575,32.529117776072916,62.01446859568678,0.006423968622224751,0.003983790003826341,0.16015625,,0.054549999999813734,122325,
4.438575000000187,1450,,,,-0.09375,-0.03125,-0.966796875,0.024889363124993336,0.2089660319021458,15.166959908643062,3.470523370723308,12516,0,52.6372888257692,32.6207228992227,61.97265023887941,0.006405928910518569,0.0039699239182669314,0.16015625,,
4.4505050000008195,1540,,,,-0.03125,0.15234375,-1.025390625,0.024889363124993336,0.2089660319021458,15.166743856182165,3.474200520364822,12506,0,52.692309397388044,32.59584242375277,61.860720846235196,0.006410818569606015,0.003965778579302585,0.162109375,,
4.460325000000187,1540,,,,0,0.056640625,-1.025390625,0.024889363124993336,0.20851614504272784,15.16634966303608,3.4695686175009985,12520,0,52.62069083291683,32.63102876945984,62.011783298457814,0.006390118635728797,0.003962626520902511,0.1640625,,
4.472265000000596,1540,,,,0,-0.001953125,-0.990234375,0.02484835577449865,0.20851614504272784,15.163015360935741,3.728670574903855,12520,0,56.53788920313625,32.57919919403309,57.623656725100844,0.006400284543547583,0.0036880779948035465,0.166015625,,
4.480844999999739,1540,,,,-0.25,0.0703125,-1.0546875,0.02484835577449865,0.20851614504272784,15.154206940646478,3.9984385101664723,12885,0,60.59316462251292,33.52913304617969,55.3348438805954,0.006218954267488469,0.00344124863492037,0.16796875,,
4.492635000000708,1540,,,,-0.0625,-0.04296875,-0.828125,0.02484835577449865,0.20851614504272784,15.145145337116256,4.2696014167748135,13543,0,64.66373398861202,35.24123380847404,54.49922488961185,0.005916823065161482,0.0032246227086027814,0.16796875,,
4.515799999998882,1540,,,,-0.0625,0.029296875,-1.318359375,0.02484835577449865,0.20851614504272784,15.134294009547942,4.56278465688496,14321,0,69.05452449955132,37.26554907816753,53.96539813753937,0.0055954131953174285,0.0030195870082934634,0.177734375,,
4.523385000000708,1540,,,,0.125,0.1015625,-0.515625,0.02484835577449865,0.20851614504272784,15.132345923285962,4.6177175886697315,14533,0,69.8768999277923,37.816842926306,54.11923391762408,0.005513843274782747,0.0029840497397308585,0.18359375,,
4.535529999999329,1540,,,,-0.08203125,-0.0625,-1.021484375,0.02484835577449865,0.20851614504272784,15.129433460995937,4.685694683705924,14648,0,70.89190593567118,38.11633911484105,53.76684208410002,0.005470518677423027,0.0029413251384712356,0.189453125,,
4.5455,1540,,,,-0.1875,0.55859375,-1.3984375,0.02484835577449865,0.20851614504272784,15.128145333571778,4.733255839866444,14718,0,71.6053822464769,38.297018377399716,53.48343542888354,0.005444709637389939,0.0029120177632036472,0.1953125,,
4.5535049999998884,1540,,,,0.125,-0.248046875,-0.48046875,0.02484835577449865,0.20851614504272784,15.12663013679484,4.7908092498753385,14743,0,72.46879957879977,38.363657391155364,52.93817148087323,0.005435251986449046,0.002877323017003965,0.201171875,,
4.562260000000708,1540,,,,-0.03125,0.275390625,-1.51171875,0.02484835577449865,0.20851614504272784,15.125078216011302,4.852934338907314,14832,0,73.40101145314023,38.594914366217054,52.580902636275454,0.005402684484908365,0.002840780268754827,0.20703125,,
4.5741849999995905,1540,,,,0.09375,-0.140625,-0.630859375,0.02484835577449865,0.20851614504272784,15.123661721035,4.897328032897782,14845,0,74.06553250648783,38.62900478728086,52.15517053616961,0.005397916570488108,0.002815292592738231,0.21484375,,
4.596260000000708,1540,,,,-0.041015625,0.2578125,-0.921875,0.02484835577449865,0.20851614504272784,15.122149206776854,4.917939397751824,14830,0,74.36981336268938,38.588179914180074,51.88688551091536,0.005403627367408018,0.002803773945563488,0.22265625,,
4.605025000001304,1540,,,,-0.15625,-0.125,-1.294921875,0.02484835577449865,0.20833003139379258,15.12145933420132,4.9341379639038845,14795,0,74.61136657051149,38.49904479549001,51.599436607432295,0.0054113039037840625,0.0027922023274685663,0.224609375,,
4.615744999999181,1540,,,,0.3125,0.017578125,-0.8046875,0.02516412233664152,0.20833003139379258,15.120110538155837,4.959556224007264,14803,0,74.98903832718861,39.007567943868935,52.01769327094578,0.005340759303260718,0.0027781397927096607,0.228515625,,
4.636485000001267,1540,,,,-0.15625,-0.138671875,-1.337890625,0.02516412233664152,0.20833003139379258,15.118852743188613,5.005550720974938,14809,0,75.67818424898168,39.02386648315007,51.565542792043374,0.005338528704831091,0.002752841303755195,0.234375,,
4.645674999999814,1540,,,,-0.041015625,0.07421875,-0.73828125,0.02516412233664152,0.20833003139379258,15.11833788216118,5.025070798029073,14787,0,75.97071820638486,38.96523570107702,51.28980825904873,0.005346561560463863,0.0027422411728139193,0.236328125,,
4.654979999999516,1540,,,,-0.34375,-0.177734375,-1.318359375,0.02516412233664152,0.20833003139379258,15.117555435080067,5.053258842129028,14804,0,76.3929206736941,39.01119320418608,51.066503100227166,0.005340262993325665,0.0027270855670469343,0.244140625,,
4.6660250000003725,1540,,,,0.21875,0.00390625,-0.53515625,0.02516412233664152,0.20833003139379258,15.1166494207806,5.083426410333218,14811,0,76.84437490134445,39.03028090571916,50.791331123231366,0.005337651345554772,0.0027110641691243387,0.248046875,,
4.673615000000224,1540,,,,-0.03125,-0.02734375,-1.251953125,0.02516412233664152,0.20833003139379258,15.116022690097537,5.087292684048014,14825,0,76.89963164323699,39.065690265943594,50.80088087701428,0.0053328132685117055,0.002709116115930243,0.25,,
4.6833750000009315,1540,,,,0,-0.0234375,-0.96484375,0.02516412233664152,0.20833003139379258,15.116245714045197,5.101558470409546,14788,0,77.11641136327927,38.96947841282788,50.5333141466488,0.005345979465950845,0.002701500597744278,0.25,,
4.691935000000521,1540,,,,0.03125,0.25390625,-0.5859375,0.02516412233664152,0.20833003139379258,15.11566864825854,5.126420261509434,14804,0,77.4892700246955,39.01031874214799,50.34286518600003,0.005340382701582651,0.00268850166387422,0.251953125,,
4.70025,1540,,,,-0.28125,-0.07421875,-1.51171875,0.02516412233664152,0.20833003139379258,15.114950197413396,5.1426300286458435,14787,0,77.73059676670455,38.9673747876785,50.13132075215194,0.005346268064731592,0.0026801547918004604,0.2578125,,
4.708955000000074,1540,,,,0.09375,0.169921875,-0.587890625,0.02516412233664152,0.20833003139379258,15.114475571460964,5.153183573562037,14803,0,77.88766723785733,39.009377800356816,50.084152194760165,0.005340511516486864,0.002674749915895975,0.259765625,,
4.719644999999553,1540,,,,-0.21875,0.177734375,-1.326171875,0.02516412233664152,0.20833003139379258,15.112402556208043,5.180314989703618,14786,0,78.2870054923598,38.96380430345344,49.770461979486505,0.005346757974947735,0.002661106145056525,0.26171875,,
4.731799999999814,1540,,,,0.1875,0.193359375,-0.99609375,0.02516412233664152,0.20833003139379258,15.111336334042862,5.200676093335219,14819,0,78.58916561080459,39.050792639380944,49.68979163460182,0.005334847702520159,0.0026508747074056095,0.265625,,
4.746274999999441,1540,,,,-0.0625,0.07421875,-0.82421875,0.02516412233664152,0.20833003139379258,15.111501245105305,5.186090050875431,14856,0,78.36960626103232,39.1482416955511,49.95334743058007,0.005321568028876958,0.0026583013662195777,0.267578125,,
4.763100000000559,1540,,,,0,0.013671875,-0.95703125,0.02516412233664152,0.2538504363478894,15.110743740425407,5.186597623942475,14832,0,78.37334758009405,39.08504414849271,49.87032627201428,0.006494822812108272,0.0032389893271876084,0.271484375,,
4.788179999999702,1540,,,,0,0.15234375,-0.623046875,0.030071553021721847,0.2538504363478894,15.109815181323336,5.21810784551464,14778,0,78.84464514193952,46.53571882461482,59.02204105407439,0.0054549589596887575,0.003219628116670408,0.27734375,,
4.801009999999777,1540,,,,-0.046875,0.123046875,-1.0703125,0.030071553021721847,0.2538504363478894,15.109250542067485,5.228308574808712,14788,0,78.99582416802461,46.56938596304752,58.951705933207485,0.005451015320436433,0.0032134665220777737,0.28125,,
4.810465000000782,1540,,,,-0.1875,-0.056640625,-1.091796875,0.030071553021721847,0.2538504363478894,15.109435651701066,5.243179085406778,14795,0,79.22147700129857,46.59041338727251,58.810331681279834,0.005448555140256296,0.00320431334982215,0.28515625,,
4.818259999999777,1540,,,,0,0.0625,-1.125,0.030071553021721847,0.2538504363478894,15.108922691176284,5.246877655512183,14776,0,79.27466886719384,46.529824632509715,58.6944421180233,0.005455649969729905,0.003202163313645074,0.287109375,,
4.830410000000149,1540,,,,0.1875,-0.041015625,-0.71484375,0.030071553021721847,0.2538504363478894,15.108763908823242,5.246519668720803,14789,0,79.26842701770015,46.570320471992915,58.750150878601445,0.0054509059369809015,0.003202415462226924,0.2890625,,
4.842305000000633,1540,,,,-0.14453125,0.171875,-1.01171875,0.030071553021721847,0.2538504363478894,15.108805176635187,5.254971591127589,14771,0,79.39634197909936,46.51634287543321,58.587513877753175,0.005457231172013655,0.003197256070244572,0.29296875,,
4.852100000000559,1540,,,,0.03125,-0.123046875,-0.9140625,0.030071553021721847,0.2538504363478894,15.108569686963298,5.259935454079455,14790,0,79.47010135688839,46.57522757387898,58.60723313377514,0.005450331637032249,0.0031942885690793934,0.294921875,,
4.8725599999995906,1540,,,,0.03125,0.0625,-0.537109375,0.030071553021721847,0.2538504363478894,15.107657648841208,5.28067024395148,14831,0,79.77855820204175,46.705457131496686,58.54387216827563,0.005435134391965959,0.003181938130606535,0.30078125,,
4.887745000000112,1540,,,,0,-0.046875,-1.537109375,0.030071553021721847,0.2538504363478894,15.106000761923228,5.336070221277836,14838,0,80.60668082829885,46.72529529328415,57.967025577959475,0.00543282679658903,0.003149248098784999,0.3046875,,
4.924929999999702,1540,,,,-0.046875,0.041015625,-0.994140625,0.032295767474031074,0.2722546390596255,15.106304568741484,5.340555697419573,14879,0,80.67606093154765,50.31943004036446,62.372194997298756,0.005410527083499008,0.0033746645029016625,0.314453125,,
4.948200000001117,1540,,,,-0.228515625,0.044921875,-1.1875,0.032295767474031074,0.2722546390596255,15.106172842125805,5.347003260695234,14811,0,80.77275544347248,50.0908384330319,62.01452229531426,0.0054352182470176,0.0033706246315957184,0.322265625,,
4.956224999999628,1540,,,,-0.0625,0.33984375,-0.65234375,0.032295767474031074,0.2722546390596255,15.105997702761103,5.343916844218677,14850,0,80.7251955725137,50.221932660258545,62.213454305162095,0.00542103070587455,0.0033726104610680694,0.32421875,,
4.966745000000111,1540,,,,0.03125,-0.078125,-0.919921875,0.032295767474031074,0.2722546390596255,15.10587308942384,5.332599845910048,14850,0,80.5535765089983,50.223340506787416,62.34774752822697,0.005420878745069371,0.0033797957937871707,0.328125,,
4.978600000000559,1540,,,,-0.1875,-0.02734375,-1.25390625,0.032295767474031074,0.2722546390596255,15.105738649787032,5.327641817482899,14789,0,80.47796491457305,50.0156844252934,62.148296714988746,0.00544338525380538,0.0033829712188749106,0.33203125,,
4.988289999999106,1540,,,,0.1875,0.103515625,-0.466796875,0.032295767474031074,0.2722546390596255,15.10533513974195,5.3345081950251005,14802,0,80.57953409155405,50.06075164390831,62.1258886742005,0.0054384848433004914,0.0033787070393121307,0.333984375,,
4.997424999999814,1540,,,,-0.0625,-0.01953125,-1.2578125,0.032295767474031074,0.2722546390596255,15.105265050054259,5.350034600460799,14813,0,80.81369066692152,50.097210973838884,61.990995041072374,0.005434526868208268,0.003368917281376733,0.337890625,,
5.003935000000522,1540,,,,0.3125,0.01171875,-0.28515625,0.032295767474031074,0.2722546390596255,15.105332658180787,5.352873872693971,14813,0,80.8569405243269,50.09652033823585,61.95698231144874,0.0054346017891352206,0.0033671152691921854,0.33984375,,
5.013230000000447,1540,,,,-0.25,0.37890625,-1.0390625,0.032295767474031074,0.2722546390596255,15.105261759021746,5.342915636257488,14785,0,80.70613924203957,50.00155769980993,61.95508565941199,0.005444923150077391,0.003373406801719601,0.33984375,,
5.022515000000596,1540,,,,0,0.0390625,-1.2109375,0.032295767474031074,0.2722546390596255,15.105129206410973,5.346730907996986,14806,0,80.76306119720553,50.07475747486811,62.00205481636788,0.005436963707637858,0.0033710292183556523,0.34375,,
5.030160000000149,1540,,,,-0.0625,0.1015625,-0.32421875,0.032295767474031074,0.2722546390596255,15.105068000250998,5.347513344186533,14784,0,80.7745526961872,49.99995222312422,61.900624087868664,0.00544509798418791,0.0033705496344082725,0.34765625,,
5.041315000000409,1540,,,,-0.09375,0.087890625,-1.33203125,0.032295767474031074,0.2722546390596255,15.105114364895268,5.349160925764227,14824,0,80.7996875398977,50.13653053984633,62.05040151311185,0.005430264841386449,0.003369501137305638,0.34765625,,
5.065650000000373,1540,,,,-0.1875,0.33203125,-1.259765625,0.03338289478838316,0.2794335652337409,15.104953948080322,5.3641398090378205,14783,0,81.02508478658065,51.67844715458327,63.780799848224575,0.005407158701922383,0.003448729069148973,0.353515625,,
5.077325000000187,1540,,,,0.125,-0.126953125,-0.458984375,0.03338289478838316,0.2794335652337409,15.104442197637292,5.381458839641242,14780,0,81.2839339823254,51.668385679819814,63.565311308695684,0.005408211647357112,0.0034377465698756868,0.357421875,,
5.08681500000041,1540,,,,-0.1875,-0.017578125,-1.392578125,0.03338289478838316,0.2794335652337409,15.103755343257564,5.404682545166106,14835,0,81.63100287016347,51.86102804617182,63.53104362647402,0.005388122367820428,0.003423130372147801,0.359375,,
5.096460000000894,1540,,,,0.15625,0.1171875,-0.796875,0.03338289478838316,0.2794335652337409,15.103525032247465,5.386576509299609,14871,0,81.35629314632281,51.986226243325945,63.89945292840034,0.005375146176716663,0.003434689001023775,0.365234375,,
5.105180000000633,1540,,,,-0.21875,-0.15234375,-1.046875,0.03338289478838316,0.2794335652337409,15.103842427396076,5.376294349995604,14856,0,81.20270270563341,51.93269364901672,63.954390578940554,0.0053806869160739484,0.0034411855261358842,0.3671875,,
5.114485000000335,1540,,,,-0.03125,-0.064453125,-1.0625,0.03338289478838316,0.2794335652337409,15.104070497561803,5.381715640098426,14841,0,81.28581242587757,51.88255616392788,63.82732067940915,0.005385886623450933,0.003437667126579428,0.369140625,,
5.122349999999628,1540,,,,-0.15625,0.4140625,-0.767578125,0.03338289478838316,0.2794335652337409,15.104212087629094,5.36711448505004,14832,0,81.06603548078202,51.849392496908976,63.95945254927471,0.0053893315191764195,0.003446986935730748,0.373046875,,
5.130499999999069,1540,,,,-0.0625,0.09375,-1.48046875,0.03338289478838316,0.2794335652337409,15.104531363852539,5.3677860555324655,14793,0,81.07789283024043,51.71425007787375,63.78341650559691,0.005403415205924029,0.0034464828263212803,0.373046875,,
5.140395000000484,1540,,,,0.25,-0.2890625,-0.93359375,0.03338289478838316,0.2794335652337409,15.104619137805214,5.3658353939988785,14831,0,81.04889998250805,51.847858504887185,63.97108229239012,0.005389490970150705,0.003447715703656042,0.376953125,,
5.149574999999255,1540,,,,-0.0625,0.162109375,-0.9140625,0.03338289478838316,0.2794335652337409,15.104520761059812,5.364286435388563,14824,0,81.02497583159808,51.822728912678,63.95895633512574,0.005392104412420856,0.0034487337066846434,0.37890625,,
5.157344999999739,1540,,,,-0.15625,0.130859375,-1.234375,0.03338289478838316,0.2794335652337409,15.104565162656057,5.357123263502387,14786,0,80.91701741795247,51.690095105160175,63.880376161383424,0.005405940241844231,0.0034533349615496955,0.37890625,,
5.165839999999851,1540,,,,-0.125,-0.173828125,-0.646484375,0.03338289478838316,0.2794335652337409,15.104537277810925,5.352977936952689,14806,0,80.85425479600131,51.761127455953954,64.01781524862167,0.005398521612024863,0.0034560155917429895,0.380859375,,
5.174564999999478,1540,,,,-0.3125,0.24609375,-1.3515625,0.03338289478838316,0.2794335652337409,15.10451097942496,5.345507630891818,14783,0,80.74127870140538,51.6800356180232,64.0069570970563,0.005406992504786309,0.0034608513727796227,0.3828125,,
5.182520000000484,1540,,,,0.09375,0.240234375,-1.072265625,0.03338289478838316,0.2794335652337409,15.10441081766896,5.352726040461436,14806,0,80.84977310956404,51.76103521835241,64.02124981625879,0.005398531232131633,0.0034562071665317465,0.3828125,,
5.192865000001155,1540,,,,-0.09375,-0.419921875,-0.708984375,0.03338289478838316,0.2794335652337409,15.104390037350125,5.357437232105106,14831,0,80.920821554337,51.84777666062744,64.07223217056999,0.005389499477726676,0.0034531726182006925,0.38671875,,
5.216425000000745,1540,,,,-0.166015625,-0.048828125,-0.796875,0.03388519605284647,0.2825051883153567,15.104407854021629,5.34173227333141,14807,0,80.68370290338777,52.540354339713986,65.11891800829571,0.00537691821582973,0.003501390964339278,0.392578125,,
5.2257750000013035,1540,,,,-0.09375,0.423828125,-1.150390625,0.03388519605284647,0.2825051883153567,15.103946499171322,5.337913300885776,14788,0,80.62355691379375,52.476111452760684,65.0878148540016,0.005383500806260571,0.0035040030374425637,0.396484375,,
5.234324999999255,1540,,,,0.09375,-0.228515625,-0.76953125,0.03388519605284647,0.2825051883153567,15.103804354635495,5.3358730410314665,14808,0,80.5919824729132,52.54630912859894,65.2004176051379,0.005376308878782886,0.003505375840708548,0.3984375,,
5.242584999999963,1540,,,,-0.25,-0.01171875,-1.28125,0.03388519605284647,0.2825051883153567,15.10374171550091,5.330924646429964,14807,0,80.51690896447619,52.54061544359087,65.2541386887711,0.0053768914948981224,0.003508644233225559,0.3984375,,
5.251679999999702,1540,,,,-0.0625,0.328125,-0.876953125,0.03388519605284647,0.2825051883153567,15.103688761776585,5.335827769833212,14802,0,80.5906819220053,52.523668724703306,65.17337671312309,0.005378626344554771,0.003505432409527963,0.396484375,,
5.26019500000123,1540,,,,0.09375,-0.189453125,-0.9453125,0.03388519605284647,0.2825051883153567,15.10355714589054,5.34052001600381,14818,0,80.66084925048581,52.57987253539108,65.18636119501853,0.005372877009642897,0.0035023830140699297,0.400390625,,
5.269304999999702,1540,,,,-0.15625,0.10546875,-1.263671875,0.03388519605284647,0.2825051883153567,15.103256837361574,5.339876211244861,14819,0,80.64952189814836,52.583778131438116,65.200359399335,0.005372477945749891,0.003502874929278939,0.400390625,,
5.278125000000931,1540,,,,0,0.224609375,-0.52734375,0.03388519605284647,0.2825051883153567,15.103590689545438,5.33746853029112,14793,0,80.61493999984673,52.49164905511577,65.11404592649399,0.0053819072824084595,0.003504377579588769,0.40234375,,
5.287505000000819,1540,,,,-0.0625,-0.08203125,-1.4765625,0.03388519605284647,0.2825051883153567,15.103025721706516,5.335066143619418,14823,0,80.57564119408966,52.599093162268694,65.27914935925688,0.005370913666587855,0.003506086754368625,0.404296875,,
5.295340000000782,1540,,,,0.0625,-0.12890625,-1.09765625,0.03388519605284647,0.2825051883153567,15.102858176864359,5.3235310632807185,14830,0,80.40053464886061,52.62181263736514,65.44958048747361,0.005368594773847802,0.0035137227575558192,0.404296875,,
5.303325000001117,1540,,,,0.09375,0.0234375,-0.71484375,0.03388519605284647,0.2825051883153567,15.10284884065464,5.320480375500116,14790,0,80.3544108708477,52.48264950217147,65.31396215016242,0.00538283015425256,0.003515739649556047,0.404296875,,
5.312400000000372,1540,,,,-0.0625,0.0625,-1.4296875,0.03388519605284647,0.2825051883153567,15.102775208540226,5.328252268154879,14783,0,80.47139626033773,52.457043260359946,65.18719159619536,0.005385457714671397,0.003510628638794928,0.404296875,,
5.320675000000745,1540,,,,-0.09375,-0.013671875,-0.9453125,0.03388519605284647,0.2825051883153567,15.102951743937979,5.334688276035231,14802,0,80.56953960191179,52.523999557963094,65.19088953155293,0.005378592466165811,0.003506352272970582,0.404296875,,
5.336705000000075,1540,,,,-0.01953125,0.013671875,-1.0390625,0.03388519605284647,0.2825051883153567,15.103315861053906,5.323015889295597,14776,0,80.39519030944015,52.43134192034769,65.2170132548229,0.005388097614295875,0.003513956335298138,0.40625,,
5.351355000000447,1540,,,,-0.0625,0.107421875,-0.802734375,0.03388519605284647,0.2825051883153567,15.102932520596706,5.328366571878768,14809,0,80.47396078008823,52.55000764710536,65.3006353082448,0.005375930489154136,0.0035105167631472823,0.408203125,,
5.370474999999628,1540,,,,0.09375,-0.15625,-0.4609375,0.03409750262149133,0.283958611214302,15.103068745825306,5.355065403452517,14798,0,80.87792092673409,52.83813607678071,65.3307299091502,0.005374122410405868,0.0035109533969293694,0.412109375,,
5.388919999999925,1540,,,,-0.09375,-0.2890625,-0.931640625,0.03409750262149133,0.283958611214302,15.102851310613682,5.357480113669162,14786,0,80.91322555631504,52.79577345153039,65.24986871866194,0.00537843453463169,0.0035094214729663544,0.41796875,,
5.398415000000037,1540,,,,-0.15625,0.2578125,-0.974609375,0.03409750262149133,0.283958611214302,15.103079980038112,5.354707319669131,14795,0,80.87257291865839,52.826992574763416,65.32127106664059,0.005375256045712417,0.003511185572145794,0.41796875,,
5.406620000000112,1540,,,,-0.03125,-0.12109375,-1.23046875,0.03409750262149133,0.283958611214302,15.102834548372947,5.355910726411097,14780,0,80.88943355684276,52.77374814880341,65.24183175509339,0.005380679242521083,0.003510453698686839,0.419921875,,
5.428405000000261,1540,,,,-0.01953125,0.140625,-1.2734375,0.03409750262149133,0.283958611214302,15.102587744190574,5.358592058542871,14795,0,80.9286067494665,52.826715848566614,65.27570159721657,0.005375284203324308,0.003508754476564295,0.421875,,
5.437519999999553,1540,,,,0.03125,-0.140625,-0.53515625,0.03409750262149133,0.283958611214302,15.102446579168685,5.371280146134314,14780,0,81.11947146874284,52.77413074323753,65.05729116291468,0.005380640234433201,0.0035004987837441424,0.423828125,,
5.445185000000522,1540,,,,-0.375,0.6640625,-1.17578125,0.03409750262149133,0.283958611214302,15.102392295468164,5.3737499243258355,14779,0,81.15647945491112,52.77091158707464,65.02365792788373,0.005380968466799291,0.003498902529058861,0.427734375,,
5.453240000001155,1540,,,,-0.21875,0.111328125,-1.427734375,0.03409750262149133,0.283958611214302,15.102149650756171,5.375573229068759,14774,0,81.18271136399498,52.75394400342788,64.98174687329373,0.005382699181616653,0.0034977719571489866,0.431640625,,
5.463954999999143,1540,,,,0.09375,-0.26171875,-0.50390625,0.03409750262149133,0.283958611214302,15.101765346486046,5.37209498407458,14826,0,81.12811786852899,52.93898893309599,65.25356476146224,0.005363884292787823,0.0035001257107242036,0.43359375,,
5.474725000000559,1540,,,,-0.25,0.529296875,-1.455078125,0.03409750262149133,0.283958611214302,15.101909017996926,5.393426270530365,14786,0,81.45103283282404,52.79677836927842,64.8202687345197,0.0053783321631520765,0.003486249361590283,0.4375,,
5.48324499999918,1540,,,,0.25,-0.44921875,-0.5390625,0.03409750262149133,0.283958611214302,15.101507031021685,5.393071631041655,14778,0,81.44350915497914,52.76652934755288,64.78911566438434,0.005381415354115401,0.0034865714181587654,0.439453125,,
5.491280000000261,1540,,,,-0.1875,0.22265625,-1.193359375,0.03409750262149133,0.283958611214302,15.101654835178328,5.38474633745151,14806,0,81.31858056318339,52.86587909634526,65.01082376280439,0.005371302171988902,0.0034919277887993897,0.443359375,,
5.50325,1540,,,,-0.15625,0.232421875,-0.8984375,0.03409750262149133,0.283958611214302,15.101341537129748,5.382356791613532,14771,0,81.28080818484584,52.74116989821272,64.88760517522252,0.005384002891144148,0.0034935505386281805,0.4453125,,
5.5144899999992925,1540,,,,-0.03125,-0.466796875,-0.80859375,0.03425791482299319,0.2845387286635789,15.101161029996831,5.369812526710125,14796,0,81.09040366674375,53.08011416878592,65.4579478811434,0.005360552310772979,0.0035089075377272043,0.451171875,,
5.525050000000745,1540,,,,-0.125,0.419921875,-1.435546875,0.03425791482299319,0.2845387286635789,15.101310890243333,5.369012526931128,14772,0,81.07912734279792,52.99450114546581,65.36145970270263,0.0053692123241719375,0.003509395549616184,0.455078125,,
5.537754999999888,1540,,,,0.01953125,-0.13671875,-0.69921875,0.03425791482299319,0.2845387286635789,15.100624868337254,5.380559378947786,14765,0,81.24980876330419,52.96759134692409,65.19103509674532,0.005371940113340692,0.0035020233646640715,0.45703125,,
5.545819999999367,1540,,,,-0.0625,0.2890625,-1.134765625,0.03425791482299319,0.2845387286635789,15.100737219707913,5.3793728289855185,14765,0,81.23249549734707,52.96811244774993,65.20557090293968,0.00537188726413954,0.0035027697588444944,0.458984375,,
5.556540000000037,1540,,,,0.15625,-0.45703125,-0.662109375,0.03425791482299319,0.2845387286635789,15.101099300383598,5.392437908095343,14791,0,81.43174032130058,53.063202219691696,65.16280016897986,0.005362260790171213,0.003494199283238828,0.4609375,,
5.568364999999292,1540,,,,-0.1875,0.3984375,-1.16796875,0.03425791482299319,0.2845387286635789,15.101164832896863,5.399038830211081,14778,0,81.5317753142282,53.01660475241154,65.02569648223955,0.005366973799857227,0.0034899120933764793,0.466796875,,
5.577185000000521,1540,,,,0.25,-0.26171875,-0.203125,0.03425791482299319,0.2845387286635789,15.101100742870749,5.399582105813643,14825,0,81.53963334929401,53.182809977950804,65.22326357555454,0.005350201104107634,0.0034895757679543516,0.470703125,,
5.585834999999963,1540,,,,-0.15625,-0.04296875,-1.470703125,0.03425791482299319,0.2845387286635789,15.10114468829313,5.3875391241728945,14790,0,81.35800782797493,53.060589040973724,65.21864344707916,0.005362524875927334,0.0034973659785919723,0.47265625,,
5.593575000001118,1540,,,,0.125,0.154296875,-0.767578125,0.03425791482299319,0.2845387286635789,15.101300671716347,5.369921650667722,14809,0,81.09280143029262,53.127318924781285,65.51422319581539,0.005355789345711845,0.003508803785847359,0.4765625,,
5.604719999999739,1540,,,,-0.21875,-0.212890625,-0.939453125,0.03425791482299319,0.2845387286635789,15.10128223272524,5.356615097239531,14779,0,80.8917563954911,53.02006788369338,65.54446367126813,0.00536662324325485,0.0035175244220490066,0.478515625,,
5.615550000000745,1540,,,,-0.1875,0.484375,-1.53125,0.03425791482299319,0.2845387286635789,15.101196088893737,5.35998523161575,14803,0,80.94218801620394,53.10459573412152,65.60805562050092,0.005358081061160457,0.0035153328027976785,0.482421875,,
5.623995000000112,1540,,,,0.01953125,0.12890625,-0.79296875,0.03425791482299319,0.2845387286635789,15.100811223400246,5.363760635944252,14785,0,80.9971368108994,53.04051327988885,65.48442990487466,0.005364554584193028,0.0035129479863946233,0.484375,,
5.632405000000261,1540,,,,-0.3125,0.1640625,-1.328125,0.03425791482299319,0.2845387286635789,15.100361980705612,5.364386324478082,14803,0,81.00417530396595,53.10709677832546,65.56093754308657,0.005357828725815555,0.0035126427445974864,0.484375,,
5.643229999999516,1540,,,,0.0625,0.43359375,-0.703125,0.03425791482299319,0.2845387286635789,15.099793544138263,5.388362012044849,14787,0,81.36315392295468,53.04755449714704,65.19849826295994,0.005363842525085331,0.0034971447755456665,0.484375,,
5.655615000000224,1540,,,,0,-0.33984375,-0.896484375,0.03425791482299319,0.28475977645592054,15.099384385469401,5.404260168895832,14816,0,81.60100160923996,53.151734343236754,65.13612982076215,0.005357487953582733,0.003489660308577343,0.486328125,,
5.674704999999143,1540,,,,-0.4375,0.544921875,-1.3828125,0.03447078377676871,0.28475977645592054,15.09908158367055,5.4295237782653185,14904,0,81.98082248850721,53.79959511866923,65.6246101046514,0.005292972481071792,0.0034734925536498568,0.4921875,,
5.684044999999926,1540,,,,0.03125,0.125,-1.01953125,0.03447078377676871,0.28475977645592054,15.099818278062017,5.409169217230465,14855,0,81.67747221546699,53.624632084084666,65.65412791255548,0.005310242054610475,0.0034863931110002758,0.494140625,,
5.692730000000447,1540,,,,0.1875,-0.3671875,-0.1484375,0.03447078377676871,0.28475977645592054,15.099633674169333,5.405275657024602,14803,0,81.61768232897644,53.43539567219568,65.47036640517871,0.005329047775800247,0.0034889471047234487,0.49609375,,
5.702289999999106,1540,,,,-0.0625,-0.3203125,-1.357421875,0.03447078377676871,0.28475977645592054,15.099580433934072,5.39089122726739,14814,0,81.40019569671351,53.47383729062677,65.69251687043027,0.0053252167954259575,0.0034982689417221826,0.5,,
5.7103850000007075,1540,,,,0.03125,0.40625,-0.857421875,0.03447078377676871,0.28475977645592054,15.099370423669756,5.381630466998161,14786,0,81.25923190451209,53.373295292687615,65.68274649138537,0.005335248177845484,0.0035043375353405065,0.5,,
5.726940000000409,1540,,,,-0.03125,0.244140625,-1.248046875,0.03447078377676871,0.28475977645592054,15.099154094304696,5.371578671333212,14780,0,81.10629408814064,53.35368499747511,65.78242243381762,0.005337209163142085,0.003510945477874548,0.501953125,,
5.735515000000596,1540,,,,0.1875,-0.36328125,-0.24609375,0.03447078377676871,0.28475977645592054,15.099200185441456,5.3766783035032955,14773,0,81.18354203731602,53.32556964260196,65.68519715251013,0.005340023151453127,0.0035076047350216712,0.50390625,,
