Time (s),ESC signal (µs),Servo 1 (µs),Servo 2 (µs),Servo 3 (µs),AccX (g),AccY (g),AccZ (g),Torque (N·m),Thrust (kgf),Voltage (V),Current (A),Motor Electrical Speed (RPM),Motor Optical Speed (RPM),Electrical Power (W),Mechanical Power (W),Motor Efficiency (%),Propeller Mech. Efficiency (kgf/W),Overall Efficiency (kgf/W),Vibration (g),App message,90% settling time (s),Max acceleration (RPM/s),
0,1000,,,,-0.0625,0.048828125,-0.955078125,0.0006424248829818704,0.02339762374479495,15.295298742324624,-0.026003412252253513,0,0,0.3977299587180419,0,0,0,0,0.05859375,,
0,1000,,,,-0.0625,0.048828125,-0.955078125,0.0006504757131774001,0.02339762374479495,15.295243240081135,-0.026970983781060415,0,0,0.4125277573556022,0,0,0,0,0.05859375,,
0.008134999999776482,1000,,,,-0.0625,0.046875,-0.953125,0.0006504757131774001,0.02339762374479495,15.295153600503195,-0.02647707754496339,0,0,0.4049709679426491,0,0,0,0,0.05859375,,
0.01640500000026077,1000,,,,-0.0625,0.048828125,-0.955078125,0.0006504757131774001,0.02339762374479495,15.29539423164285,-0.026948926072915734,0,0,0.4121944484046449,0,0,0,0,0.05859375,,
0.02413499999977648,1000,,,,-0.0625,0.05078125,-0.95703125,0.0006504757131774001,0.02339762374479495,15.295359490312462,-0.026031863210357775,0,0,0.39816670600506165,0,0,0,0,0.05859375,,
0.03303000000026077,1000,,,,-0.0625,0.05078125,-0.95703125,0.0006504757131774001,0.02339762374479495,15.295321522950532,-0.0259824994530677,0,0,0.39741068310455685,0,0,0,0,0.05859375,,
0.04208500000089407,1000,,,,-0.0625,0.048828125,-0.955078125,0.0006504757131774001,0.02339762374479495,15.295359063564312,-0.025095532577019623,0,0,0.3838451816568906,0,0,0,0,0.05859375,,
0.049740000000223515,1000,,,,-0.0625,0.048828125,-0.95703125,0.0006504757131774001,0.02339762374479495,15.29539040558723,-0.0253093882344831,0,0,0.38711697397299516,0,0,0,0,0.05859375,,
0.05842500000074506,1000,,,,-0.0625,0.046875,-0.953125,0.0006504757131774001,0.02339762374479495,15.295354702205692,-0.025729191542803002,0,0,0.39353711084816284,0,0,0,0,0.05859375,,
0.0666949999993667,1000,,,,-0.0625,0.05078125,-0.958984375,0.0006504757131774001,0.02339762374479495,15.29538991016579,-0.02451412164185024,0,0,0.374953048817333,0,0,0,0,0.05859375,,
0.07521500000078231,1000,,,,-0.0625,0.052734375,-0.955078125,0.0006504757131774001,0.02339762374479495,15.295617159590373,-0.02475860768233574,0,0,0.37869818451350057,0,0,0,0,0.05859375,,
0.08530000000074506,1000,,,,-0.0625,0.052734375,-0.955078125,0.0006504757131774001,0.02339762374479495,15.295565059943506,-0.02454114596144409,0,0,0.37537069469883794,0,0,0,0,0.05859375,,
0.09431000000052155,1000,,,,-0.0625,0.048828125,-0.955078125,0.0006504757131774001,0.023291509805280088,15.29551061332474,-0.024576967061963967,0,0,0.3759172605396024,0,0,0,0,0.05859375,,
0.10308500000089407,1000,,,,-0.0625,0.048828125,-0.955078125,0.0006504757131774001,0.023291509805280088,15.295390652753216,-0.02412913117078684,0,0,0.36906448736870934,0,0,0,0,0.05859375,,
0.11071500000078231,1000,,,,-0.0625,0.05078125,-0.95703125,0.0006504757131774001,0.023291509805280088,15.295355585201849,-0.02438829397557233,0,0,0.37302762847281484,0,0,0,0,0.05859375,,
0.1227050000000745,1000,,,,-0.0625,0.05078125,-0.953125,0.000604453256453581,0.023291509805280088,15.295279623133371,-0.02467330408436179,0,0,0.3773850851969123,0,0,0,0,0.05859375,,
0.1398300000000745,1000,,,,-0.0625,0.05078125,-0.955078125,0.000604453256453581,0.023291509805280088,15.2952338444723,-0.024573819360506226,0,0,0.3758623135707635,0,0,0,0,0.05859375,,
0.14808500000089406,1000,,,,-0.0625,0.048828125,-0.955078125,0.000604453256453581,0.023291509805280088,15.29527668750723,-0.025332263092949385,0,0,0.3874639731273885,0,0,0,0,0.05859375,,
0.1562400000002235,1000,,,,-0.0625,0.046875,-0.95703125,0.000604453256453581,0.023291509805280088,15.295440369101327,-0.024275143423240948,0,0,0.3712990086815642,0,0,0,0,0.05859375,,
0.16534499999973923,1000,,,,-0.0625,0.048828125,-0.95703125,0.000604453256453581,0.023291509805280088,15.295142517720446,-0.023846727181267437,0,0,0.36473909081868344,0,0,0,0,0.05859375,,
0.1728199999993667,1000,,,,-0.0625,0.05078125,-0.955078125,0.000604453256453581,0.023291509805280088,15.294987968449838,-0.023482929193528637,0,0,0.35917111947897995,0,0,0,0,0.05859375,,
0.18114000000059605,1000,,,,-0.0625,0.05078125,-0.953125,0.000604453256453581,0.023291509805280088,15.29497228708173,-0.023563599098824384,0,0,0.360404595200423,0,0,0,0,0.05859375,,
0.18909499999973922,1000,,,,-0.0625,0.048828125,-0.955078125,0.000604453256453581,0.023291509805280088,15.295022221351747,-0.022902416881263793,0,0,0.3502929751215911,0,0,0,0,0.05859375,,
0.1973400000007823,1000,,,,-0.0625,0.05078125,-0.955078125,0.000604453256453581,0.023291509805280088,15.295170409780532,-0.022581221068802157,0,0,0.3453836243082555,0,0,0,0,0.05859375,,
0.20545499999914318,1000,,,,-0.0625,0.05078125,-0.95703125,0.000604453256453581,0.023291509805280088,15.295405833882882,-0.022705548622875688,0,0,0.3472905808678442,0,0,0,0,0.05859375,,
0.21243999999947846,1000,,,,-0.0625,0.05078125,-0.95703125,0.000604453256453581,0.023291509805280088,15.295434766218463,-0.023034773356871693,0,0,0.35232687323465806,0,0,0,0,0.05859375,,
0.22170999999996274,1000,,,,-0.0625,0.048828125,-0.95703125,0.000604453256453581,0.023291509805280088,15.295561737813204,-0.022708951975725783,0,0,0.3473461769457488,0,0,0,0,0.05859375,,
0.22881500000040977,1000,,,,-0.0625,0.05078125,-0.95703125,0.000604453256453581,0.023291509805280088,15.295714444237323,-0.02218793211325016,0,0,0.3393802737123976,0,0,0,0,0.05859375,,
0.23723000000044703,1000,,,,-0.0625,0.048828125,-0.955078125,0.000604453256453581,0.02324126305491594,15.295532536775365,-0.021588031669102004,0,0,0.3302004407996867,0,0,0,0,0.05859375,,
0.2471949999993667,1000,,,,-0.0625,0.052734375,-0.955078125,0.000604453256453581,0.02324126305491594,15.295413129355332,-0.021309041825759746,0,0,0.3259305981157075,0,0,0,0,0.05859375,,
0.25528500000108034,1000,,,,-0.0625,0.05078125,-0.95703125,0.000604453256453581,0.02324126305491594,15.29544873102159,-0.021409215215587092,0,0,0.3274635537014197,0,0,0,0,0.05859375,,
0.26228500000014904,1000,,,,-0.0625,0.05078125,-0.955078125,0.000604453256453581,0.02324126305491594,15.295472343486077,-0.0195285839761475,0,0,0.2986989161146094,0,0,0,0,0.05859375,,
0.27262999999895693,1000,,,,0,-0.03515625,-0.98046875,0.0006604746052270152,0.02324126305491594,15.295318089023588,-0.014766566601724443,0,0,0.22585933325612745,0.000027321327193555227,0.012096611992816114,0,0,0.05859375,,
0.2804099999992177,1000,,,,-0.103515625,-0.029296875,-0.90625,0.0006604746052270152,0.02324126305491594,15.295098682070133,-0.007701359880026862,0,0,0.11779305935114666,0.000027321327193555227,0.0231943438298084,0,0,0.05859375,,
0.288375,1000,,,,-0.125,-0.04296875,-0.91796875,0.0006604746052270152,0.02324126305491594,15.294794605752285,-0.005285336943184435,0,0,0.08083814296820056,0.000027321327193555227,0.03379756905635829,0,0,0.060546875,,
0.2959900000002235,1000,,,,-0.125,-0.111328125,-0.884765625,0.0006604746052270152,0.02324126305491594,15.294854788919862,-0.001293676082808684,0,0,0.01978658783045749,0.000027321327193555227,0.1380800339485493,0,0,0.0625,,
0.304375,1000,,,,-0.125,-0.109375,-0.8984375,0.0006604746052270152,0.02324126305491594,15.294713712158842,0.0028915803446909333,0,0,0.04422589354775341,0.000027321327193555227,0.06177676696131581,0,0,0.064453125,,
0.31293999999947847,1000,,,,-0.125,-0.107421875,-0.908203125,0.0006604746052270152,0.02324126305491594,15.29467510974165,0.006073709071678868,0,0,0.09289540696241884,0.000027321327193555227,0.029410848272195162,0,0,0.064453125,,
0.320054999999702,1000,,,,-0.125,-0.09765625,-0.90625,0.0006604746052270152,0.02324126305491594,15.294560133835553,0.00958367008783044,0,0,0.14657801846116372,0.000027321327193555227,0.018639443676743448,0,0,0.06640625,,
0.32762999999988823,1000,,,,-0.125,-0.078125,-0.896484375,0.0006604746052270152,0.02324126305491594,15.294337761946256,0.01212431740520696,0,0,0.18543340552827905,0.000027321327193555227,0.014733767691813573,0,0,0.068359375,,
0.33589499999955297,1000,,,,-0.0625,-0.0859375,-0.904296875,0.0006604746052270152,0.02324126305491594,15.294221196386886,0.014918823447796228,0,0,0.22817178580043876,0.000027321327193555227,0.01197401646207508,0,0,0.0703125,,
0.34529500000085683,1000,,,,-0.0625,-0.021484375,-0.91015625,0.0006604746052270152,0.02324126305491594,15.294099018338628,0.019643437104132216,0,0,0.3004286721311051,0.000027321327193555227,0.009094114419822214,0,0.07736033611590044,0.0703125,,
0.35329500000085684,1000,,,,0,-0.0625,-0.8828125,0.0006604746052270152,0.02324126305491594,15.293800503186302,0.022550842811127833,0,0,0.34488809113210206,0.000027321327193555227,0.007921794894069094,0,0.06738783870044927,0.0703125,,
0.36231000000052155,1000,,,,0,0.029296875,-0.9921875,0.0006604746052270152,0.02324126305491594,15.293555811979168,0.02540765449579971,0,0,0.38857338208299624,0.000027321327193555227,0.007031188561371814,0,0.05981177333951246,0.0703125,,
0.37021000000089405,1000,,,,0,0.048828125,-0.96484375,0.0006604746052270152,0.02324126305491594,15.29377471296175,0.028476425280354087,0,0,0.43551203286822404,0.000027321327193555227,0.006273380557046981,0,0.05336537523854872,0.0703125,,
0.37825499999988826,1000,,,,0,0.05078125,-1.0234375,0.0006604746052270152,0.02324126305491594,15.293622327975545,0.030954445519173188,0,0,0.4734055991421296,0.000027321327193555227,0.005771230260703486,0,0.04909376462177893,0.0703125,,
0.3862199999997392,1000,,,,0,0.052734375,-1.013671875,0.0006604746052270152,0.02321917860854394,15.293477239953852,0.03395467325685303,0,0,0.5192850226437515,0.000027321327193555227,0.005261335490567124,0,0.04471374600856367,0.068359375,,
0.3941350000007078,1000,,,,0,0.10546875,-1.0625,0.0006604746052270152,0.02321917860854394,15.293405491043469,0.03688534466716081,0,0,0.5641025326717881,0.000027321327193555227,0.004843326454173465,0,0.04116127346312334,0.0703125,,
0.40257500000018626,1000,,,,0,0.09375,-1.083984375,0.0006604746052270152,0.02321917860854394,15.293237098129763,0.03843247300588393,0,0,0.5877569219464548,0.000027321327193555227,0.004648405858509689,0,0.03950473017255121,0.0703125,,
0.4111900000004098,1000,,,,0,0.08203125,-1.111328125,0.0006604746052270152,0.02321917860854394,15.293169216401747,0.04066298940954459,0,0,0.6218659778849176,0.000027321327193555227,0.0043934429869407175,0,0.03733791433246872,0.072265625,,
0.4192949999999255,1000,,,,0,0.07421875,-1.1171875,0.0006945300401229495,0.02321917860854394,15.293177322817126,0.04190930359450344,0,0,0.6409264113465183,0.00002873007125751637,0.004482585012709579,0,0.03622752658883711,0.072265625,,
0.43130499999970195,1000,,,,0,0.0390625,-1.091796875,0.0006945300401229495,0.02321917860854394,15.293315525705918,0.04447193134408996,0,0,0.6801232780826986,0.00002873007125751637,0.0042242446602486355,0,0.03413966167133694,0.07421875,,
0.4401250000009313,1000,,,,0,0.0078125,-1.060546875,0.0006945300401229495,0.02321917860854394,15.29321204155846,0.04766715081351795,0,0,0.7289838448080759,0.00002873007125751637,0.003941112201887042,0,0.0318514309664256,0.07421875,,
0.4483199999993667,1000,,,,0,0.0078125,-1.03125,0.0006945300401229495,0.02321917860854394,15.292957258046904,0.05026347283404704,0,0,0.7686771416920831,0.00002873007125751637,0.0037375992727288706,0,0.030206672410515212,0.07421875,,
0.4622400000002235,1000,,,,0,0.01171875,-1.0390625,0.0006945300401229495,0.02321917860854394,15.292875694500516,0.05382606315901671,0,0,0.8231552930151763,0.00002873007125751637,0.0034902370793583274,0,0.028207531198023716,0.07421875,,
0.4700699999993667,1000,,,,0,0.015625,-1.03515625,0.0006945300401229495,0.02321917860854394,15.292872086843143,0.05508469538147477,0,0,0.842403200411613,0.00002873007125751637,0.003410489329038441,0,0.02756302278671145,0.07421875,,
0.4783000000007451,1000,,,,0,0.025390625,-1.009765625,0.0006945300401229495,0.02321917860854394,15.292830344138446,0.05727038805908423,0,0,0.8758263283305474,0.00002873007125751637,0.0032803388443779797,0,0.02651116763388819,0.07421875,,
0.4872400000002235,1000,,,,0,0.033203125,-0.984375,0.0006945300401229495,0.02321917860854394,15.292710759038165,0.05775409559466939,0,0,0.8832166790791193,0.00002873007125751637,0.0032528904784125696,0,0.026289334382535983,0.07421875,,
0.49622000000067057,1000,,,,0,0.04296875,-0.98828125,0.0006945300401229495,0.02321917860854394,15.292671523740548,0.059649664870471644,0,0,0.9122027313653287,0.000028730071257516368,0.0031495269932501706,0,0.025453967424314668,0.07421875,,
0.5052049999991431,1000,,,,0.03125,0.025390625,-0.962890625,0.0006945300401229495,0.02321917860854394,15.29256226584311,0.05905044506199657,0,0,0.9030326079363303,0.000028730071257516368,0.0031815098375209527,0,0.02571244759544834,0.07421875,,
0.512964999999851,1000,,,,0.0625,-0.048828125,-0.8828125,0.0006945300401229495,0.02321917860854394,15.292534477100256,0.06046909063298665,0,0,0.9247256533038485,0.000028730071257516368,0.003106875120731205,0,0.025109261893607845,0.07421875,,
0.5208650000002235,1000,,,,0.0625,-0.02734375,-0.8828125,0.0006945300401229495,0.02321917860854394,15.292637800171091,0.06094827969110887,0,0,0.9320599658596516,0.00002873007125751637,0.0030824273447919454,0,0.024911678925216552,0.07421875,,
0.5283700000001118,1000,,,,0.0625,-0.009765625,-0.888671875,0.0006945300401229495,0.02321917860854394,15.292475885528823,0.0611964151266962,0,0,0.935844702605813,0.00002873007125751637,0.003069961413204447,0,0.02481093128367484,0.07421875,,
0.5354650000007823,1000,,,,0.125,-0.0546875,-0.8984375,0.0006945300401229495,0.02301329848668292,15.29262656842326,0.061216835698555835,0,0,0.9361662080385365,0.00002873007125751637,0.00306890710333498,0,0.02458249217828593,0.076171875,,
0.5435699999993667,1000,,,,0.125,-0.029296875,-0.90625,0.0006945300401229495,0.02301329848668292,15.292693997157622,0.06251719204187957,0,0,0.956056287458002,0.00002873007125751637,0.003005060646994431,0,0.024071070698014587,0.076171875,,
0.5525950000006705,1000,,,,0.15625,-0.03515625,-0.892578125,0.0006945300401229495,0.02301329848668292,15.292659171979922,0.06280187885719195,0,0,0.9604077287230084,0.00002873007125751637,0.002991445237088718,0,0.023962008841059833,0.078125,,
0.5615549999997019,1000,,,,0.1875,-0.0546875,-0.87109375,0.0006945300401229495,0.02301329848668292,15.29284352169646,0.06441589537599231,0,0,0.9851022082950209,0.00002873007125751637,0.002916455877937918,0,0.02336133072578682,0.080078125,,
0.5702500000009313,1000,,,,0.1875,-0.111328125,-0.818359375,0.0007892661189500918,0.02301329848668292,15.292797549737138,0.06450302484731239,0,0,0.9864317003356127,0.00003264894321139135,0.0033098027162228503,0,0.023329844812218756,0.08203125,,
0.5818400000007823,1000,,,,0.1875,-0.115234375,-0.884765625,0.0007892661189500918,0.02301329848668292,15.292679335781916,0.06530995899228702,0,0,0.998764260302112,0.00003264894321139135,0.003268933872495148,0,0.023041772119200308,0.0859375,,
0.5908500000005588,1000,,,,0.15625,-0.09765625,-0.88671875,0.0007892661189500918,0.02301329848668292,15.292768698718444,0.06616445855968399,0,0,1.0118377608291889,0.000032648943211391346,0.003226697448475923,0,0.02274405974711183,0.087890625,,
0.5994549999991432,1000,,,,0.125,-0.08203125,-0.888671875,0.0007892661189500918,0.02301329848668292,15.29279886468151,0.06569321915455585,0,0,1.0046331873040653,0.000032648943211391346,0.003249837216606873,0,0.02290716529924633,0.08984375,,
0.6082949999999255,1000,,,,0.125,-0.1015625,-0.884765625,0.0007892661189500918,0.02301329848668292,15.292754547517923,0.06619331925665707,0,0,1.012278184077548,0.000032648943211391346,0.0032252935729463663,0,0.022734164233376316,0.08984375,,
0.6164650000007823,1000,,,,0.125,-0.05078125,-0.9296875,0.0007892661189500918,0.02301329848668292,15.292783086978112,0.06639825451213512,0,0,1.015414103608048,0.000032648943211391346,0.00321533284749351,0,0.02266395395229423,0.091796875,,
0.6247050000000745,1000,,,,0.09375,-0.033203125,-0.91015625,0.0007892661189500918,0.02301329848668292,15.29274450975128,0.06712839710827583,0,0,1.0265774263259888,0.000032648943211391346,0.0031803683165173846,0,0.02241749905708044,0.091796875,,
0.6327749999994412,1000,,,,0.0625,-0.021484375,-0.888671875,0.0007892661189500918,0.02301329848668292,15.292578281460361,0.06834345913650082,0,0,1.0451476988707262,0.000032648943211391346,0.003123859263783317,0,0.022019183041352534,0.091796875,,
0.6413649999992922,1000,,,,0.0625,-0.009765625,-0.96875,0.0007892661189500918,0.02301329848668292,15.292473823619218,0.06892762507640308,0,0,1.0540739022051338,0.00003264894321139135,0.003097405518065614,0,0.02183271821694746,0.091796875,,
0.6504600000008941,1000,,,,0.03125,0.025390625,-0.986328125,0.0007892661189500918,0.02301329848668292,15.292450623739027,0.06984903102665603,0,0,1.0681628580911526,0.00003264894321139135,0.0030565510646696934,0,0.021544746957227624,0.091796875,,
0.6578800000008196,1000,,,,0,0.03515625,-0.98046875,0.0007892661189500918,0.02301329848668292,15.292426257910734,0.07128770582247963,0,0,1.0901619843859034,0.000032648943211391346,0.0029948708246126145,0,0.021109980733410447,0.091796875,,
0.6664199999989942,1000,,,,0,0.0078125,-0.9765625,0.0007892661189500918,0.02301329848668292,15.292405098717495,0.07145712642202544,0,0,1.0927513244358824,0.000032648943211391346,0.0029877742978939793,0,0.021059959363181936,0.091796875,,
0.6746650000000373,1000,,,,-0.0625,0.0390625,-0.97265625,0.0007892661189500918,0.02301329848668292,15.292483871847985,0.07225933169891353,0,0,1.105024664596149,0.000032648943211391346,0.0029545895451413735,0,0.020826049611384505,0.08984375,,
0.6825100000007078,1000,,,,-0.0625,0.01953125,-0.96875,0.0007892661189500918,0.02301329848668292,15.292525687928718,0.07173891871142486,0,0,1.0970692572186949,0.000032648943211391346,0.002976014777240536,0,0.020977069893496562,0.08984375,,
0.690210000000894,1000,,,,-0.0625,0.005859375,-0.962890625,0.0007892661189500918,0.022868651433951875,15.292500054190878,0.07188316588142667,0,0,1.0992733181371293,0.000032648943211391346,0.0029700478191101278,0,0.020803426278649215,0.08984375,,
0.6978300000010058,1000,,,,-0.0625,0,-0.9609375,0.0007892661189500918,0.022868651433951875,15.292605368602356,0.072864049457415,0,0,1.1142811539105721,0.000032648943211391346,0.0029300453567584635,0,0.020523232717069916,0.08984375,,
0.7052050000000745,1000,,,,-0.0625,0.0078125,-1.02734375,0.0007892661189500918,0.022868651433951875,15.292754127444748,0.07408494273115172,0,0,1.1329628137333283,0.000032648943211391346,0.002881731228565822,0,0.020184820857972657,0.08984375,,
0.7133150000004098,1000,,,,0,0.017578125,-0.994140625,0.0007892661189500918,0.022868651433951875,15.293009849987783,0.06967182176308535,0,0,1.0654918564894575,0.000032648943211391346,0.0030642133032308524,0,0.021462999735444854,0.08984375,,
0.7225449999999255,1000,,,,0,0.01953125,-0.97265625,0.0006891908134714715,0.022868651433951875,15.293175170562572,0.06371323806447941,0,0,0.9743777104038387,0.000028509207719159067,0.0029258887405524906,0,0.02347000674355921,0.08984375,,
0.733120000001043,1000,,,,-0.0625,0.05859375,-0.962890625,0.0006891908134714715,0.022868651433951875,15.293328116651647,0.05890631352401947,0,0,0.9008735808651841,0.000028509207719159067,0.0031646180246266403,0,0.025384972897073085,0.08984375,,
0.7413099999995902,1000,,,,-0.0625,0.0546875,-0.9609375,0.0006891908134714715,0.022868651433951875,15.293328481861096,0.05423203327378118,0,0,0.8293882990951563,0.000028509207719159067,0.0034373776131471786,0,0.027572913023852702,0.087890625,,
0.7494249999998137,1000,,,,-0.0625,0.05078125,-0.95703125,0.0006891908134714715,0.022868651433951875,15.293328752182768,0.051198645623666994,0,0,0.7829977191892429,0.000028509207719159067,0.0036410333032232847,0,0.029206536460452633,0.087890625,,
0.7577450000010431,1000,,,,-0.0625,0.05078125,-0.95703125,0.0006891908134714715,0.022868651433951875,15.29355716261737,0.048209316594854904,0,0,0.7372919391141316,0.000028509207719159067,0.0038667461566734814,0,0.031017091359263924,0.087890625,,
0.7657350000003352,1000,,,,-0.0625,0.048828125,-0.955078125,0.0006891908134714715,0.022868651433951875,15.293616662589619,0.044278256736435345,0,0,0.6771746850147686,0.000019475628306737078,0.002876012458485853,0,0.03377068272044624,0.087890625,,
0.7747450000001117,1000,,,,-0.0625,0.046875,-0.95703125,0.0006891908134714715,0.022868651433951875,15.293944815529187,0.04015297109329921,0,0,0.6140973240804568,0,0,0,0,0.0859375,,
0.7823300000000745,1000,,,,-0.0625,0.05078125,-0.95703125,0.0006891908134714715,0.022868651433951875,15.293979187776987,0.0368423782289945,0,0,0.5634665658624498,0,0,0,0,0.0859375,,
0.7896550000002608,1000,,,,-0.0625,0.05078125,-0.953125,0.0006891908134714715,0.022868651433951875,15.294077110429049,0.033419469064513735,0,0,0.5111199368622712,0,0,0,0,0.0859375,,
0.796620000001043,1000,,,,-0.0625,0.05078125,-0.953125,0.0006891908134714715,0.022868651433951875,15.294502561750907,0.031000598218131697,0,0,0.4741387288630258,0,0,0,0,0.0859375,,
0.8036349999997765,1000,,,,-0.0625,0.05078125,-0.955078125,0.0006891908134714715,0.022868651433951875,15.294394703370537,0.028674150961082154,0,0,0.43855378258282207,0,0,0,0,0.0859375,,
0.8110499999998138,1000,,,,-0.0625,0.05078125,-0.95703125,0.0006891908134714715,0.022868651433951875,15.294377453301484,0.026128899444696624,0,0,0.39962525054654974,0,0,0,0,0.0859375,,
0.8196650000009685,1000,,,,-0.0625,0.05078125,-0.95703125,0.0006891908134714715,0.022868651433951875,15.294457099680878,0.024358858140321002,0,0,0.3725555108243519,0,0,0,0,0.083984375,,
0.827625,1000,,,,-0.0625,0.05078125,-0.955078125,0.0006891908134714715,0.022868651433951875,15.294467587624712,0.021024392390199945,0,0,0.32155688796141674,0,0,0,0,0.083984375,,
0.8353499999996274,1000,,,,-0.0625,0.05078125,-0.953125,0.0006891908134714715,0.022811841070049604,15.294670070432513,0.019007341623674595,0,0,0.29071101905010194,0,0,0,0,0.083984375,,
0.8436899999994785,1000,,,,-0.0625,0.05078125,-0.958984375,0.0006891908134714715,0.022811841070049604,15.29493390852813,0.017253531316977683,0,0,0.26389162118189396,0,0,0,0,0.083984375,,
0.8517150000007823,1000,,,,-0.0625,0.0546875,-0.953125,0.0006891908134714715,0.022811841070049604,15.29492091016076,0.015609608697716423,0,0,0.2387477304701302,0,0,0,0,0.083984375,,
0.8605399999991059,1000,,,,-0.0625,0.048828125,-0.95703125,0.0006891908134714715,0.022811841070049604,15.295202353845575,0.013592614909163858,0,0,0.2079017955535595,0,0,0,0,0.083984375,,
0.8700600000005215,1000,,,,-0.0625,0.048828125,-0.953125,0.0007162008820742888,0.022811841070049604,15.29513719212828,0.010553133920267715,0,0,0.16141163111739726,0,0,0,0,0.08203125,,
0.8787549999998883,1000,,,,-0.0625,0.05078125,-0.955078125,0.0007162008820742888,0.022811841070049604,15.295038400563218,0.008596993578807777,0,0,0.13149134691726036,0,0,0,0,0.08203125,,
0.8907450000001118,1000,,,,-0.0625,0.052734375,-0.95703125,0.0007162008820742888,0.022811841070049604,15.295091481319616,0.006257144766671441,0,0,0.09570360161809997,0,0,0,0,0.08203125,,
0.899730000000447,1000,,,,-0.0625,0.052734375,-0.95703125,0.0007162008820742888,0.022811841070049604,15.295348329923485,0.004495358411436154,0,0,0.06875807277076747,0,0,0,0,0.08203125,,
0.9080749999992549,1000,,,,-0.03125,0.025390625,-0.96875,0.0007162008820742888,0.022811841070049604,15.295377326891497,0.0053008553939580955,0,0,0.08107858340587715,0,0,0,0,0.08203125,,
0.9155000000009313,1000,,,,-0.0625,0.03515625,-0.953125,0.0007162008820742888,0.022811841070049604,15.295148173519795,0.011211279050614406,0,0,0.17147817429382567,0,0,0,0,0.08203125,,
0.924339999999851,1000,,,,-0.03125,0.017578125,-0.970703125,0.0007162008820742888,0.022811841070049604,15.294974335455905,0.018317263519891172,0,0,0.28016207543251814,0,0,0,0,0.080078125,,
0.9317400000002235,1000,,,,-0.03125,0.03515625,-0.96875,0.0007162008820742888,0.022811841070049604,15.29467768259147,0.02311258078245454,0,0,0.3534994734804999,0,0,0,0,0.080078125,,
0.939234999999404,1000,,,,0,0.02734375,-0.97265625,0.0007162008820742888,0.022811841070049604,15.294477303656459,0.02872962617899083,0,0,0.4394046155371097,0,0,0,0,0.080078125,,
0.947714999999851,1000,,,,-0.03125,0.01953125,-1.001953125,0.0007162008820742888,0.022811841070049604,15.294160030103715,0.03480794302276506,0,0,0.5323582509089009,0,0,0,0,0.080078125,,
0.9555750000001862,1000,,,,-0.0625,0.076171875,-0.984375,0.0007162008820742888,0.022811841070049604,15.294054585138323,0.0396141780186163,0,0,0.6058614009621044,0,0,0,0,0.080078125,,
0.9769350000005216,1000,,,,-0.01953125,0.01953125,-0.98828125,0.0007162008820742888,0.022811841070049604,15.2936980646396,0.0523216901080301,0,0,0.8001921307438529,0,0,0,0,0.080078125,,
0.9865449999999255,1000,,,,-0.0625,0.076171875,-0.998046875,0.0007162008820742888,0.022811841070049604,15.293507486164133,0.056492899953272904,0,0,0.8639745883505006,0,0,0,0,0.080078125,,
1.0018500000005588,1000,,,,0,0.046875,-0.94140625,0.0007162008820742888,0.02284520614877348,15.29310608489168,0.06315509120726696,0,0,0.9658375096337434,0,0,0,0,0.078125,,
1.009460000000894,1000,,,,-0.03125,0.021484375,-0.970703125,0.0007162008820742888,0.02284520614877348,15.29305554671846,0.06606220421498386,0,0,1.0102929585984066,0,0,0,0,0.078125,,
1.0167600000007078,1000,,,,-0.0625,0.01953125,-0.97265625,0.0007532931049478679,0.02284520614877348,15.292945501391346,0.06906013878110671,0,0,1.0561329386979879,0,0,0,0,0.078125,,
1.0248649999992923,1000,,,,-0.0625,0.05859375,-0.96875,0.0007532931049478679,0.02284520614877348,15.292899422970951,0.07187527166532338,0,0,1.0991813005765043,0,0,0,0,0.078125,,
1.032839999999851,1000,,,,0.0625,0,-0.9609375,0.0007532931049478679,0.02284520614877348,15.292788632428945,0.07524900499608837,0,0,1.1507671282057692,0,0,0,0,0.078125,,
1.0426700000008569,1000,,,,-0.03125,0.01171875,-0.96484375,0.0007532931049478679,0.02284520614877348,15.292666856088143,0.0786375336291892,0,0,1.2025776041756184,0,0,0,0,0.078125,,
1.0619950000001117,1000,,,,-0.03125,0.05859375,-0.97265625,0.0007532931049478679,0.02284520614877348,15.29244353908264,0.08496956716500904,0,0,1.299392308411191,0,0,0,0,0.078125,,
1.0708800000008196,1000,,,,-0.03125,0.009765625,-0.966796875,0.0007532931049478679,0.02284520614877348,15.292198171110957,0.08631984139809155,0,0,1.3200201207584836,0,0,0,0,0.076171875,,
1.078359999999404,1000,,,,-0.0625,0.041015625,-0.96484375,0.0007532931049478679,0.02284520614877348,15.292188897135226,0.08822179125420697,0,0,1.3491042967029654,0,0,0,0,0.076171875,,
1.0856550000002607,1000,,,,-0.0625,0.0703125,-0.9609375,0.0007532931049478679,0.02284520614877348,15.292180826108353,0.09043300021726101,0,0,1.3829177919698514,0,0,0,0,0.076171875,,
1.1195449999989942,1000,,,,-0.041015625,0.052734375,-0.98828125,0.0007532931049478679,0.02284520614877348,15.291521193394523,0.10031741886259689,0,0,1.5340059366040357,0,0,0,0,0.076171875,,
1.127475000000559,1000,,,,-0.041015625,0.046875,-0.96484375,0.0007532931049478679,0.02284520614877348,15.291516908257911,0.10137011157992763,0,0,1.5501027752164545,0,0,0,0,0.076171875,,
1.1345750000001862,1000,,,,-0.0625,0.052734375,-0.98828125,0.0007532931049478679,0.022857518217812543,15.291450775922915,0.10276248374746509,0,0,1.571387461835941,0,0,0,0,0.076171875,,
1.1418800000008196,1000,,,,-0.0625,0.0390625,-0.99609375,0.0007532931049478679,0.022857518217812543,15.291303916491355,0.1048934867646009,0,0,1.6039581849779758,0,0,0,0,0.076171875,,
1.1506399999996648,1000,,,,-0.0625,0.060546875,-0.97265625,0.0007532931049478679,0.022857518217812543,15.29134221926644,0.10609572057609269,0,0,1.6223459713287014,0,0,0,0,0.076171875,,
1.1584699999997392,1000,,,,-0.03125,0.04296875,-0.9609375,0.0007532931049478679,0.022857518217812543,15.29130917104567,0.10796033686878044,0,0,1.6508548892707624,0,0,0,0,0.07421875,,
1.176370000001043,1000,,,,-0.0625,0.064453125,-0.982421875,0.0008193538815398733,0.022857518217812543,15.291265532636183,0.11083447055821134,0,0,1.694799319474757,0,0,0,0,0.07421875,,
1.1848100000005215,1000,,,,0,0.0078125,-0.951171875,0.0008193538815398733,0.022857518217812543,15.291204040895604,0.11287598749422571,0,0,1.726009756091786,0,0,0,0,0.07421875,,
1.1971150000011548,1000,,,,-0.03125,0.01171875,-0.9609375,0.0008193538815398733,0.022857518217812543,15.29104619260234,0.11398821573641087,0,0,1.7429990722377797,0,0,0,0,0.07421875,,
1.214785000000149,1000,,,,-0.03125,0.060546875,-0.96875,0.0008193538815398733,0.022857518217812543,15.291063945553425,0.11637640995083355,0,0,1.7795191263121357,0,0,0,0,0.07421875,,
1.2226599999992176,1000,,,,-0.03125,0.013671875,-0.96875,0.0008193538815398733,0.022857518217812543,15.290911904532551,0.11689304848905856,0,0,1.7874013066984462,0,0,0,0,0.07421875,,
1.2311299999998881,1000,,,,-0.0625,0.044921875,-0.96484375,0.0008193538815398733,0.022857518217812543,15.29075571135414,0.11788925181299993,0,0,1.8026157504668952,0,0,0,0,0.07421875,,
1.2397000000001863,1000,,,,-0.0625,0.0703125,-0.9609375,0.0008193538815398733,0.022857518217812543,15.290818295716528,0.11833605039075716,0,0,1.8094550443578226,0,0,0,0,0.07421875,,
1.2476399999996648,1000,,,,-0.03125,0.033203125,-0.96875,0.0008193538815398733,0.022857518217812543,15.29077820904454,0.11938864199998718,0,0,1.8255452455008236,0,0,0,0,0.072265625,,
1.2560100000007077,1000,,,,0,0,-0.9765625,0.0008193538815398733,0.022857518217812543,15.290837765388781,0.11996003939006013,0,0,1.8342895006430573,0,0,0,0,0.072265625,,undefined,0,
1.2754050000002608,1000,,,,-0.041015625,0.06640625,-0.986328125,0.0008193538815398733,0.022857518217812543,15.290598231522967,0.11971673605003229,0,0,1.8305405125303256,0,0,0,0,0.072265625,,
1.2931399999996647,1180,,,,-0.0625,0.04296875,-0.970703125,0.0008193538815398733,0.022656460976895977,15.290534022433944,0.12240255099911963,0,0,1.8716003704847446,0,0,0,0,0.072265625,,
1.3011100000003353,1180,,,,-0.0625,0.05859375,-0.96484375,0.0008193538815398733,0.022656460976895977,15.29050935980128,0.12200259270622964,0,0,1.8654817856946277,0,0,0,0,0.072265625,,
1.3089799999995158,1180,,,,0,0.05859375,-0.953125,0.0008193538815398733,0.022656460976895977,15.290517022631803,0.12202366754791998,0,0,1.8658049658054343,0,0,0,0,0.072265625,,
1.3167050000010059,1180,,,,-0.0625,0.044921875,-0.966796875,0.0008460338593753584,0.022656460976895977,15.290458594718835,0.1226873606447199,0,0,1.8759460080334267,0,0,0,0,0.072265625,,
1.3250000000009314,1180,,,,-0.0625,0.0234375,-0.953125,0.0008460338593753584,0.022656460976895977,15.290533674820656,0.12288638395458336,0,0,1.8789983920344977,0,0,0,0,0.072265625,,
1.3328799999998882,1180,,,,-0.0625,0.064453125,-0.978515625,0.0008460338593753584,0.022656460976895977,15.290474245310161,0.12394009188657103,0,0,1.8951027829529892,0,0,0,0,0.072265625,,
1.3424300000006333,1180,,,,0,0.01171875,-0.958984375,0.0008460338593753584,0.022656460976895977,15.290557517055278,0.12480470794248331,0,0,1.908333565193827,0,0,0,0,0.072265625,,
1.3526299999989568,1180,,,,-0.03125,0.01171875,-0.958984375,0.0008460338593753584,0.022656460976895977,15.290472952324711,0.12632709441512102,0,0,1.931601020300178,0,0,0,0,0.072265625,,
1.368894999999553,1180,,,,-0.03125,0.037109375,-0.95703125,0.0008460338593753584,0.022656460976895977,15.290465550604472,0.12580880556092633,0,0,1.9236752073920402,0,0,0,0,0.0703125,,
1.3764249999998137,1180,,,,0,0.00390625,-1.05078125,0.0008460338593753584,0.022656460976895977,15.290604685962789,0.12522423207474265,0,0,1.9147542297581517,0,0,0,0,0.0703125,,
1.3838699999991804,1180,,,,-0.0625,0.076171875,-0.994140625,0.0008460338593753584,0.022656460976895977,15.290665084332392,0.12641808014607453,0,0,1.9330165241179158,0,0,0,0,0.0703125,,
1.3919050000002609,1180,,,,-0.0625,0.06640625,-0.9609375,0.0008460338593753584,0.022656460976895977,15.290729872197508,0.12727816856179647,0,0,1.946176094106451,0,0,0,0,0.0703125,,
1.3993349999999627,1180,,,,-0.03125,0.03515625,-0.966796875,0.0008460338593753584,0.022656460976895977,15.290595344741213,0.12725351472253954,0,0,1.9457819998184205,0,0,0,0,0.0703125,,
1.408074999999255,1180,,,,0,0,-0.97265625,0.0008460338593753584,0.022656460976895977,15.29046710687626,0.1270154602995573,0,0,1.9421257177751283,0,0,0,0,0.0703125,,
1.4158150000004097,1180,,,,-0.0625,0.072265625,-0.984375,0.0008460338593753584,0.022656460976895977,15.290739800897054,0.12283530942275948,0,0,1.8782427547460934,0,0,0,0,0.0703125,,
1.424065000001341,1180,,,,-0.0625,0.06640625,-0.978515625,0.0008460338593753584,0.022656460976895977,15.290867492903551,0.11469258830286212,0,0,1.7537491701572046,0,0,0,0,0.0703125,,
1.4318999999994413,1180,,,,-0.0625,0.046875,-0.95703125,0.0008460338593753584,0.022293373105957696,15.290987426644836,0.10726508571049341,0,0,1.6401890769171354,0,0,0,0,0.0703125,,
1.4400800000000744,1180,,,,-0.0625,0.048828125,-0.955078125,0.0008460338593753584,0.022293373105957696,15.291036912134311,0.10249233704152723,0,0,1.5672141089129037,0,0,0,0,0.0703125,,
1.448265000000596,1180,,,,-0.0625,0.05078125,-0.95703125,0.0008460338593753584,0.022293373105957696,15.291414119288381,0.09532990796633196,0,0,1.4577291006668305,0,0,0,0,0.0703125,,
1.4568250000011176,1180,,,,-0.0625,0.048828125,-0.955078125,0.0008460338593753584,0.022293373105957696,15.291803781785214,0.08862202605173815,0,0,1.3551906331274373,0,0,0,0,0.0703125,,
1.464835000000894,1180,,,,-0.0625,0.05078125,-0.95703125,0.0008460338593753584,0.022293373105957696,15.291813613160741,0.08208221176293266,0,0,1.2551858832347564,0,0,0,0,0.0703125,,
1.4735800000000745,1180,,,,-0.0625,0.048828125,-0.95703125,0.0008319102157889499,0.022293373105957696,15.29201857413572,0.07630255347656804,0,0,1.1668200650176626,0,0,0,0,0.0703125,,
1.4816900000004098,1180,,,,-0.0625,0.046875,-0.95703125,0.0008319102157889499,0.022293373105957696,15.292235550230004,0.07036146084190907,0,0,1.0759840328527581,0,0,0,0,0.0703125,,
1.4888300000000745,1180,,,,-0.0625,0.048828125,-0.95703125,0.0008319102157889499,0.022293373105957696,15.292400508332788,0.06570005182041742,0,0,1.0047115058560419,0,0,0,0,0.0703125,,
1.4965449999999254,1180,,,,-0.0625,0.052734375,-0.955078125,0.0008319102157889499,0.022293373105957696,15.292671795068642,0.061720185363606864,0,0,0.9438665378964392,0,0,0,0,0.068359375,,
1.5074199999999256,1180,,,,-0.0625,0.0546875,-0.95703125,0.0008319102157889499,0.022293373105957696,15.292769478874174,0.05746849270419106,0,0,0.8788524112235562,0,0,0,0,0.068359375,,
1.5157749999994412,1180,,,,-0.0625,0.05078125,-0.955078125,0.0008319102157889499,0.022293373105957696,15.292898108198944,0.052458257104511394,0,0,0.8022387808329962,0,0,0,0,0.068359375,,
1.5232749999994413,1180,,,,-0.0625,0.048828125,-0.95703125,0.0008319102157889499,0.022293373105957696,15.293034281740946,0.0494356551000395,0,0,0.7560211681852257,0,0,0,0,0.068359375,,
1.5378400000007824,1180,,,,-0.0625,0.05078125,-0.953125,0.0008319102157889499,0.022293373105957696,15.293392264091317,0.04474506633647575,0,0,0.6843038513665111,0,0,0,0,0.068359375,,
1.5460099999997765,1180,,,,-0.0625,0.046875,-0.95703125,0.0008319102157889499,0.022293373105957696,15.293518620586179,0.04051877264401514,0,0,0.6196746039145434,0,0,0,0,0.068359375,,
1.5538099999995902,1180,,,,-0.0625,0.05078125,-0.95703125,0.0008319102157889499,0.022293373105957696,15.293738818169547,0.037082039541736556,0,0,0.5671230275963545,0,0,0,0,0.068359375,,
1.562550000000745,1180,,,,-0.0625,0.052734375,-0.95703125,0.0008319102157889499,0.022293373105957696,15.2938488585857,0.035109708353904506,0,0,0.5369625730336393,0,0,0,0,0.068359375,,
1.5708800000008196,1180,,,,-0.0625,0.05078125,-0.953125,0.0008319102157889499,0.022293373105957696,15.293968080281331,0.03105240184634704,0,0,0.4749144426541007,0,0,0,0,0.068359375,,
1.579074999999255,1180,,,,-0.0625,0.048828125,-0.955078125,0.0008319102157889499,0.022293373105957696,15.293969688055688,0.02677593929062423,0,0,0.4095104038800263,0,0,0,0,0.068359375,,
1.5883649999992921,1180,,,,-0.0625,0.05078125,-0.955078125,0.0008319102157889499,0.022424636199443498,15.294155091782782,0.022716891089043387,0,0,0.3474356555189678,0,0,0,0,0.068359375,,
1.5972199999997392,1180,,,,-0.0625,0.05078125,-0.95703125,0.0008319102157889499,0.022424636199443498,15.294476889413158,0.019843663960089686,0,0,0.30349845983887247,0,0,0,0,0.068359375,,
1.6052849999992176,1180,,,,-0.0625,0.046875,-0.955078125,0.0008319102157889499,0.022424636199443498,15.29448713758713,0.018123311559583175,0,0,0.277186755538529,0,0,0,0,0.068359375,,
1.612370000001043,1180,,,,-0.0625,0.04296875,-0.95703125,0.0008319102157889499,0.022424636199443498,15.294724860003544,0.015790675705329354,0,0,0.24151404026655487,0,0,0,0,0.06640625,,
1.6199500000001863,1180,,,,-0.0625,0.05078125,-0.95703125,0.0007783509847170833,0.022424636199443498,15.294007094571377,0.013795938408042455,0,0,0.21099517988887104,0,0,0,0,0.06640625,,
1.6280349999992176,1180,,,,-0.03125,0.009765625,-0.86328125,0.0007783509847170833,0.022424636199443498,15.28968468643942,0.13564159717552943,0,0,2.0739172511788766,0,0,0,0,0.068359375,,
1.6369800000013783,1180,,,,-0.09375,0.05078125,-1.1015625,0.0007783509847170833,0.022424636199443498,15.28694495137167,0.22143382226713354,0,0,3.3850466513694886,0,0,0,0,0.072265625,,
1.6450550000006332,1180,,,,0.3125,-0.126953125,-1.173828125,0.0007783509847170833,0.022424636199443498,15.284041835466287,0.3412717006647831,0,0,5.216010950221272,0,0,0,0,0.076171875,,
1.6591100000003354,1180,,,,-0.8125,0.33203125,-0.7109375,0.0007783509847170833,0.022424636199443498,15.28198898845608,0.38984626172506875,0,0,5.957626278873268,0,0,0,0,0.083984375,,
1.6669949999991804,1180,,,,0.041015625,0.0390625,-0.9765625,0.0007783509847170833,0.022424636199443498,15.28160559092381,0.3992639333265493,15,0,6.101393955777227,0.0012487313411418666,0.02046632868148893,0,0.003675329992125862,0.087890625,,
1.676300000000745,1180,,,,-0.0625,0.037109375,-0.962890625,0.0007783509847170833,0.022424636199443498,15.28151966397968,0.40175486003816113,25,0,6.139424793772563,0.0020398736777272977,0.0332258109879677,0,0.0036525630580554716,0.08984375,,
1.6842150000007823,1180,,,,-0.0625,0.064453125,-0.982421875,0.0007783509847170833,0.022424636199443498,15.281576783358306,0.401570052885616,1696,0,6.136623597068796,0.13827905554295053,2.2533410002366865,0,0.0036542303507346927,0.08984375,,
1.6927350000003352,1180,,,,-0.125,0.1484375,-1.046875,0.0007783509847170833,0.022424636199443498,15.28176118903835,0.39756571324679957,2426,0,6.075504286787292,0.19775084072407814,3.2548876832189375,0,0.003690991749970697,0.091796875,,
1.7012749999994412,1180,,,,-0.0625,0.033203125,-0.962890625,0.0007783509847170833,0.022424636199443498,15.2822160430871,0.3890820258342352,2820,0,5.946035577280778,0.22985726144568264,3.8657229419202404,0.09755896358637617,0.0037713592372581564,0.08984375,,
1.7094049999993295,1180,,,,-0.0625,0.083984375,-1.03125,0.0007783509847170833,0.022424636199443498,15.280450330260754,0.44479002663767353,3056,0,6.796591909432328,0.24907376051736116,3.664686122638847,0.09003210997764029,0.003299394240269528,0.091796875,,
1.7174799999995156,1180,,,,0.0625,-0.09375,-0.86328125,0.0007783509847170833,0.022424636199443498,15.279417774964795,0.47533822480695687,3332,0,7.262891321235628,0.2715824425484427,3.7393157977508973,0.08257027217598417,0.0030875632317224895,0.091796875,,
1.7254150000009685,1180,,,,-0.0625,0.0859375,-0.958984375,0.0007783509847170833,0.022424636199443498,15.278733210054058,0.4962715588213914,3669,0,7.582400746969689,0.2990275547623189,3.943705493036957,0.07499187229507209,0.0029574585870320185,0.09375,,
1.7329150000000373,1180,,,,0,-0.109375,-0.9453125,0.0007783509847170833,0.023364981660861876,15.278409445373459,0.508349377487266,3995,0,7.766769930551163,0.32562404230199077,4.192528492715158,0.0717544733358254,0.0030083267394021796,0.09375,,
1.741285000000149,1180,,,,0,0.01171875,-0.92578125,0.0007783509847170833,0.023364981660861876,15.27829147096652,0.5135763585843031,4279,0,7.846569299048601,0.34877234471027746,4.444902369658116,0.06699207094608085,0.002977732148965394,0.09375,,
1.7490049999998882,1180,,,,-0.0625,0.064453125,-1.001953125,0.0007783509847170833,0.023364981660861876,15.278277225855032,0.5110516015913464,4462,0,7.807988045829807,0.3636604561509778,4.657543710574792,0.064249442758114,0.00299244588025989,0.095703125,,
1.7571050000004471,1180,,,,0.0625,-0.0390625,-0.9765625,0.0007783509847170833,0.023364981660861876,15.27836169312024,0.5088115026085414,4572,0,7.7738061704732875,0.3726685358235263,4.793900537924492,0.06269641629183888,0.003005603837873843,0.095703125,,
1.7651500000013038,1180,,,,-0.03125,0.033203125,-1.009765625,0.0007783509847170833,0.023364981660861876,15.27863940966311,0.5037835949539065,4624,0,7.697127887804513,0.3769027478474091,4.896667345810657,0.061992070353175825,0.00303554546597593,0.095703125,,
1.7732350000003352,1180,,,,-0.125,-0.06640625,-0.97265625,0.0008062776737389428,0.023364981660861876,15.278706542694431,0.5027429807110737,4650,0,7.681262468683982,0.39260021844343423,5.111141821335234,0.059513419919882946,0.0030418152948319915,0.09765625,,
1.781230000000447,1180,,,,-0.03125,0.123046875,-0.998046875,0.0008062776737389428,0.023364981660861876,15.278866811091113,0.49997187145206234,4665,0,7.639003633208028,0.3938646294943673,5.155968610646705,0.059322365887125236,0.003058642564233166,0.09765625,,
1.7889699999997393,1180,,,,-0.03125,0.123046875,-1.052734375,0.0008062776737389428,0.023364981660861876,15.278792929740288,0.4984069908060573,4678,0,7.615057207260721,0.39498411980156073,5.186883158605238,0.05915423048552027,0.003068260818655977,0.099609375,,
1.7972449999991804,1180,,,,-0.09375,0.0078125,-0.919921875,0.0008062776737389428,0.023364981660861876,15.278753562876075,0.4925562280070127,4692,0,7.5256452235789455,0.39618084319765484,5.264410312040254,0.058975546299206275,0.0031047147409574895,0.099609375,,
1.8049850000003353,1180,,,,0,0.109375,-1.0234375,0.0008062776737389428,0.023364981660861876,15.278683991936244,0.4909031890825234,4692,0,7.500354696625601,0.39611841963347744,5.281329159162173,0.05898484014573508,0.0031151835621019025,0.099609375,,
1.8165449999999255,1180,,,,-0.09375,0.015625,-1.017578125,0.0008062776737389428,0.023364981660861876,15.278749195250793,0.4885078823888951,4694,0,7.463789414922999,0.39630484879664046,5.309700297871131,0.05895709258114922,0.003130444920397439,0.1015625,,
1.824995000001043,1180,,,,-0.0625,-0.044921875,-0.9765625,0.0008062776737389428,0.023364981660861876,15.278837675286756,0.4844519838538133,4693,0,7.401863222773053,0.39626715042104227,5.353613522631181,0.05896270138979748,0.003156635154912841,0.1015625,,
1.833179999999702,1180,,,,-0.03125,0.09375,-0.970703125,0.0008062776737389428,0.023364981660861876,15.278963821901284,0.48140146688281626,4701,0,7.355315596312759,0.3968995861611035,5.396091859879818,0.05886874785346315,0.0031766117109339005,0.103515625,,
1.8415800000000746,1180,,,,0.03125,0.10546875,-0.958984375,0.0008062776737389428,0.023364981660861876,15.279016033868206,0.4766576205230748,4707,0,7.282859426637527,0.3974645442412464,5.457534204044832,0.05878507152245557,0.003208215385210231,0.103515625,,
1.8500999999996275,1180,,,,-0.3125,-0.04296875,-0.890625,0.0008062776737389428,0.023364981660861876,15.27899724634616,0.4775670619796186,4698,0,7.296745824932219,0.39669350585241164,5.436581119448499,0.05889932987598424,0.0032021098475194477,0.10546875,,
1.8593500000005587,1180,,,,0,0.037109375,-0.9921875,0.0008062776737389428,0.023364981660861876,15.279200543960975,0.4729202534965188,4701,0,7.225843394474172,0.396931872462039,5.493225507289366,0.05886395948991577,0.0032335300373005325,0.10546875,,
1.8671800000006333,1180,,,,0.03125,0.052734375,-1.029296875,0.0008062776737389428,0.023364981660861876,15.279239594117113,0.4709606395261319,4698,0,7.195920450718392,0.3966263775020658,5.5118227086914136,0.058909298488954334,0.0032469760916449923,0.10546875,,
1.8850249999994413,1180,,,,0.0625,0.10546875,-0.96875,0.0008062776737389428,0.03133508932595245,15.279531463111697,0.4647537157080487,4708,0,7.101219021759198,0.3975131485714209,5.5978156335325115,0.07882780591928645,0.004412635243320484,0.107421875,,
1.8926349999997765,1180,,,,-0.0625,0.064453125,-0.97265625,0.0008062776737389428,0.03133508932595245,15.27965395402212,0.45993706455675853,4710,0,7.027679187056003,0.3976642878952275,5.6585435577035055,0.07879784602183915,0.004458810439677907,0.109375,,
1.8997799999993294,1180,,,,-0.1875,-0.1796875,-0.88671875,0.0008062776737389428,0.03133508932595245,15.279836937286492,0.46153374262340396,4710,0,7.052160328341165,0.39770193643854895,5.639434129712956,0.07879038660601091,0.004443331953192165,0.111328125,,
1.9087949999989942,1180,,,,0.0625,0.0234375,-1.046875,0.0008062776737389428,0.03133508932595245,15.27984512927511,0.4607460371317199,4710,0,7.040128091299919,0.39766685035682614,5.648574077057726,0.07879733826904481,0.004450926022876753,0.111328125,,
1.9174199999999255,1180,,,,-0.0625,0.142578125,-0.982421875,0.003061395723003743,0.03133508932595245,15.28007278500965,0.4575486265612584,4710,0,6.991376316537228,1.5098668894123635,21.5961324502153,0.020753544266506826,0.004481962907908877,0.11328125,,
1.9253100000005214,1180,,,,-0.09375,0.05859375,-0.896484375,0.003061395723003743,0.03133508932595245,15.280069283549139,0.45824220278184036,4705,0,7.001972607152695,1.5085195363689936,21.544207911182088,0.020772080553478282,0.004475180221919585,0.11328125,,
1.9333449999997392,1180,,,,0.0625,0,-1.02734375,0.003061395723003743,0.03133508932595245,15.280065921715924,0.46053533044092965,4698,0,7.037010208416631,1.5060972185647559,21.40251575538977,0.020805489140875915,0.004452898091361875,0.11328125,,
1.9424899999992922,1180,,,,-0.0625,-0.001953125,-0.98828125,0.003061395723003743,0.03133508932595245,15.280062384452599,0.4611477658443076,4720,0,7.04636663055196,1.51315772457177,21.474297377757086,0.020708409187694173,0.004446985371168217,0.115234375,,
1.9515200000004842,1180,,,,-0.09375,0.001953125,-0.935546875,0.003061395723003743,0.03133508932595245,15.280059043832745,0.45720006175681827,4728,0,6.9860439384881605,1.5157339914877166,21.696599747062777,0.020673211461858534,0.004485383945743352,0.115234375,,
1.9600250000003725,1180,,,,-0.0625,0.072265625,-0.927734375,0.003061395723003743,0.03133508932595245,15.280055880119136,0.45370062010844425,4728,0,6.932570828101732,1.5157976704831935,21.864871027913424,0.020672342975671488,0.0045199811300784916,0.1171875,,
1.971574999999255,1180,,,,0.0625,0.078125,-1.0625,0.003061395723003743,0.03133508932595245,15.280120312982573,0.4506777139417182,4707,0,6.886409691409398,1.5088872211809916,21.911087036591592,0.02076701882426095,0.004550279569489177,0.119140625,,
1.988769999999553,1180,,,,-0.1875,-0.11328125,-0.921875,0.003061395723003743,0.03133508932595245,15.280352900900978,0.4483258657851683,4696,0,6.850577443799339,1.5055597440471389,21.97712173022532,0.020812916558010302,0.004574080007564146,0.12109375,,
1.997054999999702,1180,,,,0.0625,0.08984375,-0.947265625,0.003061395723003743,0.03133508932595245,15.280334282239245,0.44681016661521455,4692,0,6.827408706583492,1.5040903609519443,22.030179026803964,0.020833249211251084,0.004589602098338838,0.119140625,,
2.0045100000007077,1180,,,,-0.03125,0.140625,-0.9921875,0.003061395723003743,0.03133508932595245,15.280317901834017,0.4480387056950238,4689,0,6.846173855346215,1.5031699404459926,21.95635068881809,0.020846005819312275,0.0045770221422996304,0.12109375,,
2.0116899999994784,1180,,,,-0.125,-0.05859375,-0.8671875,0.003061395723003743,0.03133508932595245,15.280246060751857,0.44709114096031755,4688,0,6.831662645455945,1.5028307358357431,21.998023231362946,0.02085071098078561,0.004586744245457563,0.123046875,,
2.0204749999996277,1180,,,,-0.03125,0.02734375,-0.998046875,0.003061395723003743,0.03133508932595245,15.280333885560847,0.4493058692415586,4680,0,6.865543698753158,1.5002713836640342,21.852186068475486,0.02088628075370231,0.004564108933083212,0.123046875,,
2.028234999999404,1180,,,,-0.25,-0.12109375,-0.89453125,0.003061395723003743,0.03133508932595245,15.28044903511517,0.4487032716669527,4675,0,6.856387474596307,1.4987564223037773,21.8592725083995,0.020907392862268087,0.004570203980164848,0.123046875,,
2.036375,1180,,,,0,0.07421875,-1.029296875,0.003061395723003743,0.04223859454222883,15.280427234265254,0.44761250062944014,4685,0,6.83971024501567,1.5018479060190724,21.957770902846654,0.028124415510349575,0.0061754947255272296,0.123046875,,
2.044475000000559,1180,,,,0,0.013671875,-0.986328125,0.003061395723003743,0.04223859454222883,15.280406289675483,0.44560363870690933,4685,0,6.809004643599339,1.5018881547760592,22.057381855186094,0.028123661810573946,0.0062033434772194385,0.123046875,,
2.052535000000149,1180,,,,-0.1875,-0.06640625,-0.9375,0.003061395723003743,0.04223859454222883,15.280386142596967,0.4408586784171187,4676,0,6.736490840528553,1.4991068220823118,22.25352720830969,0.028175840387116607,0.006270118306716904,0.125,,
2.061265000000596,1180,,,,0.03125,0.107421875,-0.955078125,0.003061395723003743,0.04223859454222883,15.280365133816998,0.43851940127787514,4683,0,6.700736569788749,1.501323125151149,22.405344688822478,0.028134246275581993,0.006303574853646346,0.123046875,,
2.069620000000112,1180,,,,-0.0625,0.12109375,-1.001953125,0.004326583361216438,0.04223859454222883,15.280154231363067,0.4376121894376025,4674,0,6.686781748131038,2.1178352427962426,31.671966015462967,0.01994423064112387,0.006316729950702303,0.125,,
2.077639999999665,1180,,,,-0.0625,-0.0625,-0.9296875,0.004326583361216438,0.04223859454222883,15.280146761528147,0.4391800720643634,4692,0,6.71073595588198,2.125798090533667,31.677570157866192,0.019869523230037864,0.006294182161228765,0.125,,
2.0861299999998884,1180,,,,-0.03125,0.021484375,-0.994140625,0.004326583361216438,0.04223859454222883,15.280028618932068,0.4352406488232857,4694,0,6.650489570142367,2.1267412375802524,31.97871698240593,0.019860711682201045,0.006351200779542704,0.125,,
2.094445000000298,1180,,,,-0.0625,-0.0078125,-1.005859375,0.004326583361216438,0.04223859454222883,15.280027299045576,0.43448309128849616,4692,0,6.6389134958619325,2.1259308312977674,32.02227040046343,0.019868282599036592,0.00636227517779172,0.126953125,,
2.1032799999993292,1180,,,,-0.0625,0.01171875,-0.90625,0.004326583361216438,0.04223859454222883,15.279952917685161,0.4327264604661646,4691,0,6.612039942159544,2.125194568476152,32.14128449112252,0.01987516586423217,0.006388133603505331,0.126953125,,
2.111094999999739,1180,,,,0,0.03515625,-0.98046875,0.004326583361216438,0.04223859454222883,15.280051687697934,0.4324145939908304,4697,0,6.6073173466948045,2.127934658376057,32.20572808479555,0.01984957309472247,0.006392699536879056,0.126953125,,
2.123975000000559,1180,,,,-0.03125,0.046875,-0.9609375,0.004326583361216438,0.04223859454222883,15.28004918245474,0.4352583741792403,4691,0,6.65076936453408,2.125552361475678,31.95949588645199,0.019871820289058612,0.006350933587844818,0.126953125,,
2.140839999999851,1180,,,,-0.09375,0.095703125,-1.015625,0.004326583361216438,0.04223859454222883,15.280245775576862,0.43757997370303503,4688,0,6.6863295446528355,2.1239457185241246,31.765495618185284,0.019886852179809636,0.006317157157772414,0.12890625,,
2.148510000000708,1180,,,,0.0625,0.0078125,-1.025390625,0.004326583361216438,0.04223859454222883,15.280304326189691,0.43475208641063334,4688,0,6.643144186800395,2.124082449693832,31.97405309844517,0.019885572025849164,0.006358223358474571,0.12890625,,
2.1580649999994783,1180,,,,-0.1875,-0.1171875,-0.96484375,0.004326583361216438,0.04223859454222883,15.280223462738006,0.4363693609214808,4688,0,6.6678213471724,2.1240358267993993,31.85502004639239,0.019886008517039,0.0063346919995300715,0.130859375,,
2.166325000000186,1180,,,,0.03125,0.044921875,-0.970703125,0.004326583361216438,0.04223859454222883,15.280507883137112,0.43592740213739567,4689,0,6.661192104835957,2.12431633710419,31.890933389564886,0.01988338262266877,0.006340996307787617,0.130859375,,
2.1745000000009314,1180,,,,0.03125,0.107421875,-0.9609375,0.004326583361216438,0.04223859454222883,15.280581488428762,0.4405843426694174,4689,0,6.732384950685853,2.12440999582698,31.555088002069137,0.01988250602529593,0.006273942273298829,0.130859375,,
2.1935050000008194,1180,,,,-0.125,-0.029296875,-0.94140625,0.004326583361216438,0.047094792305072165,15.2804836811504,0.4417015897899972,4691,0,6.74941393472424,2.1254471382098536,31.490839927225366,0.02215759284643395,0.006977612094996854,0.130859375,,
2.201230000000447,1180,,,,0.125,0.08984375,-1.13671875,0.004326583361216438,0.047094792305072165,15.280653525021881,0.4400134382664075,4686,0,6.723692896502578,2.1229130722604395,31.573617429265727,0.022184041786942544,0.007004304484157683,0.1328125,,
2.209735000000335,1180,,,,-0.09375,0.013671875,-0.962890625,0.004326583361216438,0.047094792305072165,15.280621449481744,0.43805687655932934,4687,0,6.693781304045465,2.1236695384336786,31.72600719940184,0.02217613967369289,0.007035603669425214,0.1328125,,
2.2174599999999627,1180,,,,-0.03125,-0.046875,-0.919921875,0.004571365690195168,0.047094792305072165,15.280459696378767,0.44014526296022893,4687,0,6.725621951215812,2.24373679146407,33.36103051493197,0.02098944603673506,0.007002295497230362,0.134765625,,
2.2259900000002237,1180,,,,0.125,0.07421875,-1.0078125,0.004571365690195168,0.047094792305072165,15.280237834284776,0.4415590425683761,4686,0,6.747127188323862,2.243105848943774,33.245347039337666,0.020995349964090193,0.006979976957685241,0.134765625,,
2.234190000001341,1180,,,,-0.09375,0.103515625,-0.95703125,0.004571365690195168,0.047094792305072165,15.28029632372786,0.44294352461570985,4689,0,6.768308310804493,2.2447143025348515,33.16507167605728,0.020980305712798377,0.006958133427505521,0.134765625,,
2.2423400000007825,1180,,,,-0.09375,0.142578125,-0.9609375,0.004571365690195168,0.047094792305072165,15.280481187718474,0.4421107323408666,4689,0,6.755664728423049,2.2446844019421284,33.22669925430265,0.02098058518352298,0.006971155940721963,0.13671875,,
2.250524999999441,1180,,,,0,0.02734375,-1.009765625,0.004571365690195168,0.047094792305072165,15.28045766933679,0.4413332249905596,4689,0,6.743773662540136,2.244672880926229,33.285115919515334,0.020980692868548062,0.0069834479420137095,0.13671875,,
2.2587249999996275,1180,,,,-0.25,-0.01953125,-0.9921875,0.004571365690195168,0.047094792305072165,15.280634269487205,0.44301470834521606,4689,0,6.769545734226788,2.244668298203999,33.15832976583595,0.02098073570280009,0.006956861531632934,0.13671875,,
2.266460000000894,1180,,,,-0.03125,0.0625,-1.001953125,0.004571365690195168,0.047094792305072165,15.280668206409064,0.43956817112633384,4690,0,6.716895377079548,2.244962421138972,33.42262005151349,0.02097798691934399,0.007011392862508542,0.13671875,,
2.2792700000004844,1180,,,,0,0.0625,-0.98828125,0.004571365690195168,0.047094792305072165,15.280849284590758,0.4391986059246794,4690,0,6.711327703137395,2.2449820563682654,33.450639808853126,0.020977803440112113,0.007017209468561102,0.13671875,,
2.2878799999998884,1180,,,,0.01953125,0.08984375,-0.98046875,0.004571365690195168,0.047094792305072165,15.280555358862568,0.45014264536531,4694,0,6.878429611889461,2.247286561287252,32.67150626071373,0.020956291519002426,0.006846736095644297,0.13671875,,
2.2966150000011547,1180,,,,-0.15625,0.009765625,-0.951171875,0.004571365690195168,0.047094792305072165,15.280526552284734,0.457012975188101,4714,0,6.983398902100422,2.2567827034004053,32.316393994357455,0.020868111154038946,0.00674382101971968,0.138671875,,
2.3054699999988078,1180,,,,-0.0625,0.083984375,-0.9609375,0.004571365690195168,0.047094792305072165,15.280278071291502,0.46009043579335207,4765,0,7.030309796864108,2.2812133918420354,32.448262704718616,0.020644623810069797,0.0066988217682923375,0.138671875,,
2.3143899999996647,1180,,,,0.03125,0.08203125,-1.015625,0.004571365690195168,0.047094792305072165,15.280262901790007,0.46216484835968774,4793,0,7.062000386901941,2.2945980572865534,32.49218254848015,0.020524201245408307,0.006668760935275505,0.138671875,,
2.322669999998994,1180,,,,-0.1875,0,-0.91015625,0.004571365690195168,0.047094792305072165,15.280512237451651,0.4598660949388843,4820,0,7.026989491302724,2.307337222503277,32.835358945093894,0.0204108839599866,0.006701987012128195,0.138671875,,
2.330675000000745,1180,,,,0,0.015625,-0.962890625,0.004571365690195168,0.049074903853650896,15.280487134258175,0.4511934414926141,4816,0,6.894455577789558,2.3056384066188076,33.44192127434117,0.021284735591136635,0.007118024519839589,0.140625,,
2.3494199999999257,1180,,,,0,0.1328125,-0.99609375,0.004571365690195168,0.049074903853650896,15.28065115708745,0.4439585230407357,4744,0,6.783975318801253,2.2711718771531997,33.47848083790673,0.021607745475945146,0.007233944928667955,0.142578125,,
2.3576850000005214,1180,,,,-0.25,-0.1015625,-0.87890625,0.004571365690195168,0.049074903853650896,15.280621147994644,0.4436420048678742,4724,0,6.779125401722781,2.2614172303170617,33.35853958008163,0.021700950711678428,0.007239120232409254,0.14453125,,
2.366050000000745,1180,,,,0,0.052734375,-1.029296875,0.004571365690195168,0.049074903853650896,15.28044179412921,0.44245689873455996,4706,0,6.760936887524365,2.2528113746487537,33.32099400019188,0.021783849462897173,0.007258595172542799,0.14453125,,
2.3739399999994784,1180,,,,-0.3125,0.0546875,-0.93359375,0.004641343076495203,0.049074903853650896,15.280596924614166,0.4431702345414199,4696,0,6.77190572301416,2.2826051619677132,33.7069837551095,0.021499514971457443,0.007246838018856495,0.14453125,,
2.3823549999995155,1180,,,,0.0625,-0.013671875,-0.98828125,0.004641343076495203,0.049074903853650896,15.280564169332429,0.4437916044270498,4696,0,6.781386089258528,2.2825555141885916,33.65912933056676,0.0214999826065988,0.007236706951604449,0.146484375,,
2.390825000000186,1180,,,,0.03125,0.146484375,-1.046875,0.004641343076495203,0.049074903853650896,15.280536500877194,0.4451683627064793,4701,0,6.802411415372094,2.2846602236279474,33.58603418877416,0.021480176065621675,0.007214339277208578,0.146484375,,
2.3985599999995904,1180,,,,-0.25,0.0078125,-0.8359375,0.004641343076495203,0.049074903853650896,15.280771526289882,0.4443483287781843,4694,0,6.789985290148174,2.2812509622706214,33.59728872433005,0.02151227754652853,0.007227541998486416,0.1484375,,
2.4066249999990688,1180,,,,0.03125,0.052734375,-0.97265625,0.004641343076495203,0.049074903853650896,15.280927757770668,0.44410284005003353,4691,0,6.786303415825344,2.2799130508519263,33.59580188435541,0.0215249015024118,0.007231463264552909,0.1484375,,
2.4148000000007452,1180,,,,0,0.03515625,-1.005859375,0.004641343076495203,0.049074903853650896,15.280732211829207,0.4445487069679487,4692,0,6.793029746292157,2.2806214567915664,33.572964376262284,0.02151821544408806,0.007224302805451055,0.1484375,,
2.4231149999992923,1180,,,,-0.09375,-0.03515625,-0.9609375,0.004641343076495203,0.049074903853650896,15.280696444945287,0.4433360466195667,4701,0,6.774483551495711,2.285105121044278,33.73106014169536,0.021475993993319654,0.007244080449913535,0.1484375,,
2.4330700000012295,1180,,,,0.125,0.0078125,-0.9453125,0.004641343076495203,0.049074903853650896,15.280792400679662,0.4421869029626835,4696,0,6.756966266472249,2.282642032756352,33.78205458983442,0.02149916769665002,0.007262860567642357,0.1484375,,
2.4497000000011178,1180,,,,-0.125,0.015625,-0.908203125,0.004641343076495203,0.049074903853650896,15.280590379721279,0.44206131201957977,4698,0,6.754957831693357,2.2833797571456476,33.803020152580906,0.021492221650855514,0.007265020015876047,0.150390625,,
2.459484999999404,1180,,,,-0.125,-0.029296875,-0.98046875,0.004641343076495203,0.049074903853650896,15.280409322808323,0.44154440915696413,4692,0,6.746979306115968,2.2805706755207886,33.801358682892484,0.02151869458833772,0.007273611141680207,0.150390625,,
2.46756500000041,1180,,,,0.0625,0.046875,-1.03515625,0.004641343076495203,0.049074903853650896,15.280314510681352,0.44083081505633515,4698,0,6.736033500060805,2.2834200751067786,33.89858549673434,0.021491842166341656,0.007285430491580528,0.15234375,,
2.475589999999851,1180,,,,-0.25,-0.00390625,-0.90234375,0.004641343076495203,0.049074903853650896,15.280233586574449,0.44128791631538633,4699,0,6.74298244023182,2.2837905335218482,33.86914549703815,0.021488355929898777,0.007277922534818839,0.15234375,,
2.484504999999888,1180,,,,0.03125,0.0625,-0.966796875,0.004641343076495203,0.050060885877741615,15.28044141244523,0.4440491233433578,4703,0,6.7852666134958435,2.2856654872196414,33.685713729707686,0.0219021051670327,0.00737788044734615,0.15234375,,
2.4922499999990686,1180,,,,0,0.12109375,-0.953125,0.004641343076495203,0.050060885877741615,15.28042034400142,0.44434055928242744,4699,0,6.7897105217241736,2.283892218239982,33.637549214101284,0.021919110489513224,0.007373051578203248,0.15234375,,
2.499695000000298,1180,,,,-0.15625,0.01953125,-0.94140625,0.004641343076495203,0.050060885877741615,15.280401974230022,0.44568542941941236,4698,0,6.810252515585944,2.283402001953314,33.52888893220215,0.0219238162333735,0.007350811994587906,0.15234375,,
2.508,1180,,,,-0.0625,0.072265625,-1.048828125,0.004641343076495203,0.050060885877741615,15.280285004021161,0.44616646323528886,4702,0,6.8175507174713434,2.285592963389094,33.525133264235244,0.02190280013966746,0.00734294293542262,0.154296875,,
2.516334999999963,1180,,,,0.0625,0.103515625,-1.052734375,0.004641343076495203,0.050060885877741615,15.280195710885181,0.4454268035088468,4696,0,6.806208732489177,2.2826547035213527,33.53782984387752,0.021930993680522443,0.007355179343645148,0.154296875,,
2.524714999999851,1180,,,,-0.25,-0.125,-0.90625,0.004519114395018547,0.050060885877741615,15.280120532456984,0.4458716040217744,4692,0,6.8129718514526445,2.2203988331800177,32.59075307505622,0.022545898119593795,0.007347877984710558,0.15625,,
2.5331200000001117,1180,,,,0.03125,0.12890625,-1.01171875,0.004519114395018547,0.050060885877741615,15.280114722879915,0.4446051866403624,4689,0,6.793618258252175,2.2189780463111397,32.6626837416977,0.02256033400644208,0.007368810547594856,0.15625,,
2.54075,1180,,,,-0.125,0.04296875,-0.98046875,0.004519114395018547,0.050060885877741615,15.28004227611462,0.4457507277009992,4689,0,6.811089963880125,2.2189967301842612,32.579172231637195,0.022560144049236456,0.007349908185506193,0.154296875,,0.06489500000048429,34032,
2.549264999999665,1180,,,,-0.09375,0.060546875,-0.927734375,0.004519114395018547,0.050060885877741615,15.280040233964275,0.44447386129773647,4690,0,6.79157848357487,2.219396322313066,32.6786523586612,0.022556082198770117,0.007371023687469951,0.15625,,
2.5579599999999627,1450,,,,0.03125,0.01953125,-1.044921875,0.004519114395018547,0.050060885877741615,15.280110343712183,0.44630820977061647,4690,0,6.819638692599663,2.2194587436197493,32.54510750002338,0.022555447818821156,0.007340694739747023,0.15625,,
2.5755600000005217,1450,,,,-0.1875,-0.12109375,-0.87890625,0.004519114395018547,0.050060885877741615,15.280244160296391,0.4446564806945077,4697,0,6.794459592470196,2.2226896799917824,32.71326659231335,0.022522660868217418,0.0073678980935026,0.158203125,,
2.586320000000298,1450,,,,0.0625,0.0234375,-1.099609375,0.004519114395018547,0.050060885877741615,15.236927285501237,1.2759486299869132,4781,0,19.441536495145517,2.2625286202376866,11.637601898402588,0.022126078507896416,0.0025749449324770006,0.158203125,,
2.5962250000005587,1450,,,,-0.125,-0.125,-1.00390625,0.004519114395018547,0.050060885877741615,15.192088516462595,2.7207505016969367,6073,0,41.333882452989876,2.874033220419781,6.95321380392586,0.01741833932957453,0.0012111343746786234,0.16015625,,
2.6047400000002234,1450,,,,-0.09375,0.15234375,-0.95703125,0.004519114395018547,0.050060885877741615,15.18143698347082,3.0219070510809147,8120,0,45.87689146589104,3.8428741200679983,8.37649194894805,0.013026938773850808,0.0010912004775860049,0.162109375,,
2.6123799999998885,1450,,,,-0.15625,0.310546875,-1.12109375,0.004519114395018547,0.050060885877741615,15.176316488003975,3.1933206327471506,9871,0,48.46284457024387,4.671357792171813,9.63904994351079,0.010716559960710534,0.0010329745668391686,0.166015625,,
2.6208499999996273,1450,,,,0.03125,-0.220703125,-0.796875,0.004519114395018547,0.050060885877741615,15.173386914437309,3.3002850461561963,10881,0,50.07650193325956,5.149335444753365,10.282937597390973,0.009721814866178204,0.0009996881560229835,0.169921875,,
2.6285999999996275,1450,,,,0.25,0.7734375,-1.16796875,0.004519114395018547,0.05230504482363635,15.171279878731088,3.3802938599237393,11496,0,51.28338422125927,5.440417878625475,10.608539122833818,0.009614159424983592,0.0010199218639309992,0.177734375,,
2.636645000000484,1450,,,,-0.15625,-0.09765625,-0.794921875,0.004519114395018547,0.05230504482363635,15.1702344214086,3.430467559833359,11900,0,52.04099705770959,5.631389529728967,10.821063869095697,0.009288124102854192,0.0010050738414107236,0.177734375,,
2.644370000000112,1450,,,,-0.25,-0.23828125,-1.01953125,0.004519114395018547,0.05230504482363635,15.169995395338486,3.458992660599523,12159,0,52.47290273380438,5.754220213238236,10.966079468539142,0.009089858032075774,0.0009968010553748174,0.181640625,,
2.6531049999995155,1450,,,,-0.0625,0.439453125,-1.119140625,0.004519114395018547,0.05230504482363635,15.169597106933432,3.482725295137308,12302,0,52.831539561358795,5.821957734072766,11.019852501763872,0.008984099028669212,0.0009900344615717477,0.185546875,,
2.6716450000004843,1450,,,,-0.03125,0.15625,-1.087890625,0.0045483430633123986,0.05230504482363635,15.16921520118592,3.492657480205787,12440,0,52.98087294127334,5.925162430945486,11.183587778014216,0.008827613661772638,0.000987243922568318,0.19140625,,
2.6889649999989196,1450,,,,-0.03125,0.201171875,-1.068359375,0.0045483430633123986,0.05230504482363635,15.169364727451905,3.4909882762083426,12479,0,52.95607442106296,5.943884800151584,11.224179407428734,0.008799807967728857,0.0009877062338070953,0.19140625,,
2.707905000001192,1450,,,,-0.09375,0.013671875,-1.0625,0.0045483430633123986,0.05230504482363635,15.17012496836973,3.4942410806203426,12499,0,53.008073862621885,5.953238888256258,11.230815335197692,0.00878598117855083,0.0009867373215482695,0.19140625,,
2.71530999999959,1450,,,,0,0.046875,-1.033203125,0.0045483430633123986,0.05230504482363635,15.170480663690054,3.4967315875271017,12479,0,53.04709893469412,5.9436979903044485,11.20456746865967,0.00880008454483354,0.0009860114101249663,0.19140625,,
2.722359999999404,1450,,,,-0.0625,0.015625,-0.97265625,0.0045483430633123986,0.05230504482363635,15.170116343768244,3.497396379055378,12508,0,53.055909970543865,5.957755320630578,11.229202032230278,0.008779320735531702,0.0009858476624503398,0.189453125,,
2.739085000000894,1450,,,,-0.25,0.12109375,-0.9140625,0.0045483430633123986,0.05230504482363635,15.16847729716114,3.5672967082763036,12632,0,54.11045913172678,6.016468211558461,11.118863724500914,0.008693646003672251,0.0009666346518388373,0.189453125,,
2.7553700000010433,1450,,,,-0.0625,0.150390625,-0.93359375,0.0045483430633123986,0.05230504482363635,15.1692083225621,3.5736385357850002,12709,0,54.20926741885847,6.053283184428996,11.166509847213254,0.008640772821959141,0.0009648727480393939,0.189453125,,
2.763780000001192,1450,,,,-0.09375,0.080078125,-0.96484375,0.0045483430633123986,0.05230504482363635,15.169547110738465,3.5782022274128704,12705,0,54.27970726048885,6.051319156157941,11.148400500978388,0.008643577288500758,0.0009636206137336726,0.1875,,
2.7713500000005586,1450,,,,0,-0.0703125,-0.994140625,0.0045483430633123986,0.05230504482363635,15.170423453054706,3.5586690957995084,12666,0,53.98651711257785,6.032931996829647,11.174886470726014,0.008669921167870458,0.0009688538476109668,0.1875,,
2.8014249999998135,1450,,,,0,0.103515625,-1.046875,0.0045483430633123986,0.1107077361808851,15.172485930931664,3.5454659737834735,12521,0,53.793532605826684,5.9636375600231615,11.086160865697089,0.01856379350130311,0.002058012010330285,0.1875,,
2.8096200000001117,1450,,,,-0.046875,0.033203125,-0.98046875,0.0045483430633123986,0.1107077361808851,15.172724120113147,3.535674531438032,12530,0,53.645814244019576,5.96811263103224,11.125029445699138,0.018549873808553975,0.0020636789233416616,0.1875,,
2.8196549999993294,1450,,,,-0.03125,-0.0625,-0.994140625,0.0045483430633123986,0.1107077361808851,15.173171590788646,3.5392352787806165,12505,0,53.70142418511099,5.956041305464214,11.091030444431972,0.018587469512563518,0.0020615419024879312,0.1875,,
2.8278449999997393,1450,,,,0.03125,-0.068359375,-0.947265625,0.010598301005161997,0.1107077361808851,15.173562656275136,3.5374199955876042,12521,0,53.67526394460903,13.896081964241974,25.889173043624414,0.00796683097190728,0.00206254665641014,0.185546875,,
2.8358250000001863,1450,,,,-0.125,0.1015625,-1.015625,0.010598301005161997,0.1107077361808851,15.173682755025789,3.5335055231999988,12532,0,53.6162918221682,13.90820752374825,25.940263772582945,0.007959885268597823,0.002064815234669248,0.185546875,,
2.8437649999996646,1450,,,,-0.125,0.044921875,-1.03125,0.010598301005161997,0.1107077361808851,15.173796220942965,3.5254458396301986,12496,0,53.494396758519805,13.869021243419661,25.926119526174123,0.007982375557569489,0.0020695202280835738,0.185546875,,
2.8519699999997394,1450,,,,-0.03125,0.15234375,-0.982421875,0.010598301005161997,0.1107077361808851,15.173511842227159,3.516648739050214,12494,0,53.35991128693163,13.866615842335946,25.986954453074624,0.00798376023679008,0.0020747361363773207,0.185546875,,
2.8595449999989944,1450,,,,-0.125,-0.03125,-1.02734375,0.010598301005161997,0.1107077361808851,15.17383102361499,3.514721578234725,12521,0,53.33179132318712,13.896590893231167,26.056861298767835,0.007966539206015576,0.002075830071223439,0.185546875,,
2.868034999999218,1450,,,,0,-0.03515625,-0.966796875,0.010598301005161997,0.1107077361808851,15.17413192493255,3.519996514627317,12504,0,53.41289148825768,13.877384291137206,25.981338782582135,0.007977565069779657,0.0020726782073803877,0.185546875,,
2.876945000000298,1450,,,,-0.03125,0.046875,-1.03515625,0.010598301005161997,0.1107077361808851,15.174235188414432,3.5183669864900096,12515,0,53.388528132152345,13.890050869963497,26.016920405787413,0.007970290189525853,0.002073624054719224,0.18359375,,
2.8846549999993294,1450,,,,0,-0.12109375,-0.828125,0.010598301005161997,0.1107077361808851,15.173802091862665,3.5257700005672628,12494,0,53.49933621003416,13.866779379169254,25.919535384008086,0.007983666080906344,0.002069329154781571,0.185546875,,
2.896780000001192,1450,,,,-0.0625,0.017578125,-0.994140625,0.010598301005161997,0.1107077361808851,15.17390958455271,3.5233540389786895,12521,0,53.46305562183124,13.896578160339377,25.992861797193672,0.00796654650544429,0.0020707334231692964,0.18359375,,
2.9060250000003727,1450,,,,-0.0625,0.11328125,-0.9765625,0.010598301005161997,0.1107077361808851,15.173916871769542,3.533026604338088,12516,0,53.60985199997637,13.890633360497503,25.910598224564442,0.007969955962966978,0.0020650632682390896,0.18359375,,
2.9144699999997394,1450,,,,0,0.01953125,-1.02734375,0.010598301005161997,0.1107077361808851,15.173563094884482,3.5377291388180105,12530,0,53.67995630046643,13.90598702997869,25.90536205383956,0.007961156294926787,0.0020623663618728233,0.181640625,,
2.9223849999997764,1450,,,,-0.0625,-0.015625,-0.98828125,0.010598301005161997,0.1107077361808851,15.173696763451487,3.5381140249290137,12559,0,53.68626932878769,13.938822292497823,25.963477192153373,0.007942402439585617,0.0020621238459108448,0.1796875,,
2.9299900000002235,1450,,,,-0.125,0.17578125,-0.90234375,0.010598301005161997,0.16959278639176711,15.173796225750047,3.5313735956684824,12546,0,53.58434333766779,13.92445469962932,25.986050835563656,0.01217949212734929,0.0031649690157264597,0.1796875,,
2.937765000000596,1450,,,,0.03125,0.021484375,-0.892578125,0.010598301005161997,0.16959278639176711,15.17419445143809,3.525074892866621,12537,0,53.4901718802404,13.914490721398511,26.013172574116574,0.0121882136966003,0.0031705410625987485,0.1796875,,
2.9457450000010432,1450,,,,-0.0625,0.12890625,-0.978515625,0.010598301005161997,0.16959278639176711,15.174283730785792,3.512852837340285,12531,0,53.305025658297396,13.90720584815288,26.08985865104466,0.012194598127293269,0.0031815534144737532,0.177734375,,
2.95375,1450,,,,-0.125,0.00390625,-0.97265625,0.010598301005161997,0.16959278639176711,15.174106556934877,3.5103741820560868,12469,0,53.266791893232174,13.839290890213423,25.981085772826084,0.01225444191737426,0.0031838370655341603,0.177734375,,
2.962540000000037,1450,,,,-0.03125,0.08203125,-0.990234375,0.010598301005161997,0.16959278639176711,15.17390197695024,3.5231141825012373,12484,0,53.45938925887695,13.854954134390475,25.9167834247,0.012240588077502723,0.0031723667019560304,0.17578125,,
2.971175000000745,1450,,,,-0.0625,-0.025390625,-0.966796875,0.01903347037119817,0.16959278639176711,15.173948211745165,3.5237654836661125,12486,0,53.469434959484744,24.88758605142845,46.54544427164128,0.006814352586920866,0.0031717706858183973,0.17578125,,
2.9780250000003727,1450,,,,0,-0.03125,-1.0390625,0.01903347037119817,0.16959278639176711,15.174089593123817,3.5205658868532987,12511,0,53.421382185607364,24.937158771102506,46.680107759961714,0.006800806296677766,0.0031746237078354427,0.173828125,,
2.985445000000298,1450,,,,-0.125,0.0703125,-0.935546875,0.01903347037119817,0.16959278639176711,15.173996972335914,3.527700756841728,12489,0,53.52932060362349,24.893792676768577,46.50496661652656,0.006812653603805207,0.003168222284149205,0.17578125,,
2.9925299999993293,1450,,,,0.125,-0.1484375,-0.98046875,0.01903347037119817,0.16959278639176711,15.174083835007986,3.5277341616526665,12513,0,53.53013391653918,24.94097359234409,46.592399023754524,0.006799766086269604,0.0031681741475966703,0.17578125,,
3.000739999999292,1450,,,,-0.0625,0.0625,-0.998046875,0.01903347037119817,0.16959278639176711,15.173982738663723,3.5225561728674872,12501,0,53.451206563064595,24.916311042641915,46.61505819002293,0.006806496599818692,0.0031728523507074152,0.173828125,,
3.0100099999997765,1450,,,,-0.125,-0.078125,-1.0390625,0.01903347037119817,0.16959278639176711,15.174239988562276,3.522940286330646,12483,0,53.457941370155524,24.881126094743337,46.543367471748475,0.00681612181643166,0.003172452624343804,0.17578125,,
3.018915000000037,1450,,,,-0.03125,0.158203125,-0.98828125,0.01903347037119817,0.16959278639176711,15.17469897041992,3.528149098040305,12489,0,53.538600485520185,24.893191893013334,46.495783728500406,0.006812818023524175,0.0031676731340340965,0.173828125,,
3.0276749999988826,1450,,,,-0.0625,0.015625,-0.9609375,0.01903347037119817,0.16959278639176711,15.174660509148762,3.5256578320439265,12513,0,53.50066067268801,24.94091186556904,46.61795116541679,0.006799782915150355,0.003169919478739146,0.173828125,,
3.0356900000004097,1450,,,,-0.125,0.033203125,-1.02734375,0.01903347037119817,0.16959278639176711,15.1747268235814,3.5264956665805025,12501,0,53.513608384902724,24.916296533991435,46.560673604325345,0.006806500563211888,0.0031691525111136533,0.173828125,,
3.047945000000298,1450,,,,0.0625,0.0234375,-0.96875,0.01903347037119817,0.16959278639176711,15.174690780935745,3.5175447946013323,12510,0,53.377654566165354,24.93564819867743,46.71551869662602,0.006801218281574978,0.0031772243979275062,0.173828125,,
3.056640000000596,1450,,,,-0.0625,-0.025390625,-1.041015625,0.01903347037119817,0.16959278639176711,15.17405345984006,3.512426090958662,12486,0,53.297741277943786,24.88626830005471,46.69291362700467,0.006814713413316142,0.003181988248007608,0.171875,,
3.0668700000001117,1450,,,,-0.125,-0.005859375,-0.9375,0.01903347037119817,0.16959278639176711,15.174256645044983,3.5117396825334346,12510,0,53.28803921335113,24.93470827095598,46.792317073488185,0.00680147465728762,0.0031825675873109675,0.171875,,
3.0753399999989197,1450,,,,-0.03125,0.1796875,-0.9921875,0.01903347037119817,0.16959278639176711,15.174440363773128,3.5028218956884007,12476,0,53.15336196104237,24.86696899855048,46.783435856373856,0.00682000232523927,0.0031906314132315195,0.173828125,,
3.082714999999851,1450,,,,-0.0625,0.03125,-0.96875,0.01903347037119817,0.19472228552103632,15.174321380327976,3.505927113952846,12474,0,53.20006476312623,24.86362297678986,46.73607652076246,0.007831613506318414,0.003660188881123342,0.171875,,
3.0903400000007824,1450,,,,-0.0625,0.142578125,-0.998046875,0.01903347037119817,0.19472228552103632,15.174742139206023,3.511577099314285,12507,0,53.28727698403534,24.927973287633208,46.780347389680905,0.007811396589454717,0.0036541984605326025,0.171875,,
3.0999700000006705,1450,,,,-0.09375,0.015625,-0.966796875,0.01903347037119817,0.19472228552103632,15.174656602666271,3.5135925245650648,12494,0,53.317560001970115,24.902648382612856,46.706279097716944,0.00781934043838455,0.0036521229687525316,0.169921875,,
3.107949999999255,1450,,,,-0.0625,0.06640625,-0.9765625,0.01903347037119817,0.19472228552103632,15.174526517230206,3.519108178875803,12493,0,53.400800377352574,24.90105552852578,46.630491214671736,0.007819840620730685,0.0036464300936511537,0.169921875,,
3.116094999998808,1450,,,,0,-0.125,-0.90625,0.01903347037119817,0.19472228552103632,15.174599247188207,3.5173740075733635,12516,0,53.374740967402126,24.94732312512797,46.73994228911424,0.0078053378530582316,0.003648210407989806,0.169921875,,
3.1239449999993667,1450,,,,-0.15625,0.10546875,-0.978515625,0.022773376125979385,0.19472228552103632,15.174570180660412,3.507169123029283,12502,0,53.21978399285309,29.815164520877374,56.022708631965266,0.0065309814200316275,0.0036588326917521064,0.169921875,,
3.133149999999441,1450,,,,0.0625,0.05859375,-0.951171875,0.022773376125979385,0.19472228552103632,15.174336107849971,3.507340433164999,12493,0,53.22156257749781,29.792484068859093,55.97822128104036,0.006535953332087936,0.003658710419061716,0.16796875,,
3.1419700000006707,1450,,,,-0.125,0,-0.9296875,0.022773376125979385,0.19472228552103632,15.174214968426597,3.5143467829914514,12476,0,53.32745355871074,29.75311912023667,55.79324932040875,0.006544600743677842,0.0036514454099455034,0.16796875,,
3.150170000000857,1450,,,,-0.03125,0.13671875,-0.998046875,0.022773376125979385,0.19472228552103632,15.173542927196001,3.5433147840959305,12538,0,53.76463898104783,29.901351537338357,55.61527447041662,0.006512156658801295,0.0036217537997358528,0.166015625,,
3.1592549999998885,1450,,,,-0.0625,0.05078125,-0.91796875,0.022773376125979385,0.19472228552103632,15.172804206059588,3.553697687111381,12553,0,53.91955921406779,29.93569321918224,55.51917273717609,0.006504686031331383,0.0036113478737458344,0.166015625,,
3.1670400000000374,1450,,,,0.03125,-0.068359375,-1.01953125,0.022773376125979385,0.19472228552103632,15.173358006530512,3.547784362149938,12576,0,53.831802256871505,29.99073229571682,55.71192313534063,0.006492748613172274,0.003617235116741433,0.1640625,,
3.1760200000004843,1450,,,,-0.09375,0.134765625,-1.021484375,0.022773376125979385,0.19472228552103632,15.174020544114018,3.5371715602534985,12557,0,53.67311392334242,29.945200931888778,55.79180849215759,0.00650262076931585,0.003627929726587964,0.166015625,,
3.183919999998994,1450,,,,-0.1875,-0.0390625,-0.9765625,0.022773376125979385,0.19472228552103632,15.173986844901552,3.5339165491509954,12541,0,53.6236032277971,29.908696579759372,55.77524593546052,0.006510557389278344,0.0036312793956392937,0.166015625,,
3.1930900000007822,1450,,,,-0.03125,-0.0625,-0.96875,0.022773376125979385,0.19472228552103632,15.17376906437358,3.5270344090116645,12516,0,53.51840560444235,29.84937977214867,55.774045274754954,0.006523495195123764,0.0036384171636247922,0.166015625,,
3.2037050000000744,1450,,,,-0.125,-0.03125,-1.03125,0.022773376125979385,0.19472228552103632,15.17387828518771,3.5211096628362157,12473,0,53.42888945267507,29.745413407727224,55.6729022677411,0.006546296158400394,0.0036445130624231416,0.166015625,,
3.220825000000186,1450,,,,-0.0625,-0.01953125,-0.990234375,0.022773376125979385,0.19472228552103632,15.173743749724755,3.517714605079606,12521,0,53.37690000214216,29.859583625107934,55.94102247209859,0.006521265934776826,0.0036480628420388146,0.1640625,,
3.2294150000000372,1450,,,,-0.125,0.16015625,-1.02734375,0.022773376125979385,0.20357037748049372,15.173532772374616,3.5137123845234846,12492,0,53.31543001926565,29.79182641039228,55.87843219050646,0.006833094912552334,0.003818226307223502,0.1640625,,
3.236114999999292,1450,,,,-0.03125,0.140625,-1,0.022773376125979385,0.20357037748049372,15.173846675215891,3.515060649316671,12516,0,53.336991346815985,29.847943519578433,55.96105585614409,0.006820248012964912,0.0038166828000628515,0.1640625,,
3.2436250000009315,1450,,,,0,-0.0078125,-1.0234375,0.022773376125979385,0.20357037748049372,15.17376549105309,3.5185139685116282,12496,0,53.38910583519,29.799861179358576,55.8163706119176,0.006831252543602468,0.0038129572371732017,0.162109375,,
3.2512600000007077,1450,,,,-0.15625,0.0546875,-0.951171875,0.022773376125979385,0.20357037748049372,15.17380912862651,3.515055947571678,12517,0,53.33678802489604,29.851038987293204,55.96707280790816,0.006819540772672879,0.0038166973494068125,0.162109375,,
3.2592550000008194,1450,,,,-0.0625,-0.1015625,-0.96484375,0.022773376125979385,0.20357037748049372,15.17381752758978,3.5176398073752253,12492,0,53.376024564897726,29.79155778510953,55.814493544544874,0.006833156525377892,0.003813891707745691,0.162109375,,
3.2669000000003727,1450,,,,0,0.037109375,-0.955078125,0.022773376125979385,0.20357037748049372,15.173434851753688,3.5148218834721345,12492,0,53.331920864382624,29.79221626826616,55.861884937586595,0.006833005495376026,0.0038170456676059248,0.162109375,,
3.275085000000894,1450,,,,-0.03125,0.00390625,-0.9453125,0.024304698410523774,0.20357037748049372,15.17375899628638,3.5124421897773233,12516,0,53.29695127606949,31.85568970016911,59.77019123507055,0.0063903930317168135,0.0038195501357297617,0.16015625,,
3.2829249999998136,1450,,,,-0.1875,0.09765625,-0.95703125,0.024304698410523774,0.20357037748049372,15.173476147349746,3.5051839947071133,12490,0,53.18582573576048,31.789619000917156,59.770847892548204,0.006403674654755081,0.003827530637427321,0.16015625,,
3.2912150000007823,1450,,,,-0.0625,0.16015625,-1.021484375,0.024304698410523774,0.20357037748049372,15.17379435744706,3.503303161179617,12521,0,53.15840173953372,31.867978578278247,59.949090897099225,0.0063879287787412635,0.003829505230009561,0.16015625,,
3.299914999999106,1450,,,,0,-0.001953125,-0.935546875,0.024304698410523774,0.20357037748049372,15.17398827556183,3.502363035886298,12472,0,53.14481564329982,31.743094658234835,59.72942849456815,0.006413060215843928,0.0038304842159360966,0.16015625,,
3.3082200000006705,1450,,,,-0.125,0.12890625,-1.015625,0.024304698410523774,0.20357037748049372,15.173790064138538,3.4950861296431452,12468,0,53.03370318728758,31.73413102172398,59.83766758594145,0.00641487165163392,0.0038385095749694973,0.158203125,,
3.316699999999255,1450,,,,0,-0.068359375,-0.982421875,0.024304698410523774,0.20357037748049372,15.173508707191571,3.497077557532528,12502,0,53.06293676894405,31.819543515713875,59.96566615652675,0.006397652354125125,0.0038363948525298474,0.158203125,,
3.3261500000003723,1450,,,,-0.0625,0.041015625,-0.91015625,0.024304698410523774,0.20357037748049372,15.173334012874314,3.498406957979487,12505,0,53.08249728638631,31.82646149855295,59.956601753013715,0.006396261723589644,0.0038349811686930937,0.158203125,,
3.3341500000003723,1450,,,,0.0625,-0.015625,-0.9453125,0.024304698410523774,0.20357037748049372,15.173202244476675,3.5006961882526375,12494,0,53.116771260825864,31.80051865746635,59.86907318088354,0.006401479789471863,0.0038325066198183783,0.158203125,,
3.342544999998994,1450,,,,-0.0625,-0.03515625,-0.986328125,0.024304698410523774,0.20357037748049372,15.173240975746168,3.4932012973805273,12482,0,53.003185061943896,31.768109383827007,59.936227128049325,0.006408010468011371,0.0038407197084964722,0.158203125,,
3.354535000000149,1450,,,,0.09375,-0.01171875,-0.93359375,0.024304698410523774,0.20357037748049372,15.173391788057902,3.4857017579566274,12476,0,52.88991842979809,31.754396408789944,60.03865642360222,0.0064107777348318086,0.0038489448182964588,0.158203125,,
3.371769999999553,1450,,,,-0.0625,0.03125,-1.00390625,0.024304698410523774,0.20357037748049372,15.17382536851907,3.484815115996086,12495,0,52.877976011700135,31.800890676619993,60.14014354404094,0.006401404902478364,0.003849814097185762,0.158203125,,
3.3831150000002235,1450,,,,-0.125,0.0859375,-0.9921875,0.024304698410523774,0.20725011579677627,15.1738374294051,3.4777432405192434,12479,0,52.77071055285148,31.762539096216848,60.18971274681946,0.006524985775506256,0.003927370195048045,0.158203125,,
3.3920599999995904,1450,,,,-0.03125,-0.01953125,-0.93359375,0.024304698410523774,0.20725011579677627,15.173527036240797,3.484419231605368,12492,0,52.870929416361435,31.79354540732695,60.13426614264912,0.0065186223537377075,0.003919925715030852,0.15625,,
3.400364999999292,1450,,,,0.03125,-0.109375,-1.044921875,0.024304698410523774,0.20725011579677627,15.173650192212019,3.4733158401884863,12492,0,52.702879566089074,31.79501721791051,60.32880457326769,0.0065183206027650716,0.003932424897901185,0.158203125,,
3.4094700000006704,1450,,,,-0.0625,0.01953125,-0.904296875,0.024304698410523774,0.20725011579677627,15.173488859938825,3.476239662145567,12489,0,52.74668378804326,31.787857145227676,60.265129222082805,0.00651978882533423,0.003929159160594589,0.15625,,
3.4173250000001865,1450,,,,0,0.0546875,-1.0859375,0.024304698410523774,0.20725011579677627,15.173677313602424,3.475768253880321,12515,0,52.740185901243336,31.852463270090983,60.395053081032216,0.0065065647839983925,0.003929643255047579,0.15625,,
3.425165000000037,1450,,,,-0.09375,0.03515625,-0.9609375,0.02501123304211385,0.20725011579677627,15.173495324890048,3.4733837941692034,12490,0,52.70337276237527,32.71219880302191,62.06851115679455,0.006335560536445222,0.003932388098408976,0.15625,,
3.433379999999888,1450,,,,0,0.115234375,-1.0390625,0.02501123304211385,0.20725011579677627,15.173714654781678,3.467662816710127,12491,0,52.617326099755964,32.71706337174519,62.179258804823476,0.006334618527399978,0.00393881884845033,0.15625,,
3.442360000000335,1450,,,,0,0.013671875,-0.927734375,0.02501123304211385,0.20725011579677627,15.173620355281015,3.475124396525908,12489,0,52.73021828025917,32.710913146298225,62.03447323589848,0.006335809546797381,0.003930386077585522,0.154296875,,
3.4502549999998884,1450,,,,-0.125,0.09765625,-1.01953125,0.02501123304211385,0.20725011579677627,15.173476028443982,3.47937733824069,12515,0,52.79424863570634,32.777853964297215,62.08603173893561,0.006322870192249936,0.003925619194371994,0.154296875,,
3.4585550000006333,1450,,,,-0.09375,0.029296875,-0.958984375,0.02501123304211385,0.20725011579677627,15.173304831395626,3.472821051172362,12525,0,52.694172434326035,32.80445163103264,62.25442039519188,0.006317743644302226,0.003933074687814423,0.15625,,
3.466209999999963,1450,,,,-0.125,0.16796875,-1.046875,0.02501123304211385,0.20725011579677627,15.173109162392167,3.475403132828321,12529,0,52.73267111772384,32.814911175999,62.22880517988717,0.006315729903555555,0.003930203257371462,0.15625,,
3.473770000000484,1450,,,,0.03125,0.0234375,-0.955078125,0.02501123304211385,0.20725011579677627,15.173341591249004,3.469568240477996,12527,0,52.644944086921406,32.811349002837495,62.325736254298405,0.006316415572515883,0.003936752510451682,0.154296875,,
3.4820849999990315,1450,,,,-0.15625,0.048828125,-0.95703125,0.02501123304211385,0.20725011579677627,15.17337431126775,3.46845312685121,12499,0,52.628137574800455,32.736672596089896,62.203745191555015,0.006330824099133717,0.003938009691150696,0.154296875,,
3.4893499999996274,1450,,,,0.0625,0.07421875,-0.91015625,0.02501123304211385,0.20725011579677627,15.173503221758562,3.471135385252814,12492,0,52.66928395129372,32.7189789636995,62.121556453960146,0.006334247655671426,0.003934933233351572,0.154296875,,
3.4971200000001117,1450,,,,-0.0625,0.142578125,-0.9296875,0.02501123304211385,0.20725011579677627,15.17361261492007,3.464953188668762,12481,0,52.57585741369185,32.690862540900845,62.17846773980992,0.006339695550629089,0.003941925552750073,0.154296875,,
3.514035000000149,1450,,,,-0.0625,0.1171875,-0.96875,0.02501123304211385,0.20725011579677627,15.173670276239402,3.4608920668971246,12509,0,52.51443508474965,32.76228579055345,62.38720027680107,0.006325874730527318,0.003946536137393627,0.15234375,,
3.5319350000005216,1450,,,,0.03125,-0.021484375,-0.98046875,0.02501123304211385,0.20848034922851824,15.173801862999044,3.453107827114684,12492,0,52.396773980209375,32.71786952291803,62.442526586227984,0.0063720637152881576,0.003978877579510195,0.15234375,,
3.5401749999998136,1450,,,,-0.1875,0.0390625,-0.9765625,0.02501123304211385,0.20848034922851824,15.173779123722802,3.454717597340484,12476,0,52.42112175688283,32.67688472106792,62.33534046183872,0.006380055840944462,0.003977029530108157,0.15234375,,
3.548270000001416,1450,,,,0.03125,-0.0390625,-1.01171875,0.02501123304211385,0.20848034922851824,15.173692126169538,3.4541851960290755,12486,0,52.41274271131776,32.7032764951076,62.39565953499665,0.006374907091028228,0.003977665324190333,0.15234375,,
3.557464999999851,1450,,,,-0.03125,0.07421875,-1.0546875,0.02501123304211385,0.20848034922851824,15.173889591607157,3.456506963503966,12506,0,52.44865503683049,32.75429061052795,62.45020122542178,0.006364978307956639,0.003974941761273367,0.15234375,,
3.5659550000000744,1450,,,,-0.09375,-0.025390625,-0.962890625,0.02501123304211385,0.20848034922851824,15.173494527669325,3.463945007978168,12489,0,52.560150622704214,32.712114287701155,62.23748200898539,0.006373184790042784,0.003966509737102271,0.15234375,,
3.574304999999702,1450,,,,0.0625,0.08984375,-1.04296875,0.02522925003919771,0.20848034922851824,15.173814366586859,3.461196006154661,12480,0,52.51954568376265,32.97148067979997,62.7794476333288,0.00632305085880611,0.0039695764027329284,0.15234375,,
3.583614999999292,1450,,,,-0.03125,-0.037109375,-0.951171875,0.02522925003919771,0.20848034922851824,15.173923625481804,3.4612502768490887,12507,0,52.52074734958582,33.04302414164906,62.91423067861132,0.006309360436708313,0.003969485579495707,0.15234375,,
3.5920149999996647,1450,,,,-0.0625,0.107421875,-0.994140625,0.02522925003919771,0.20848034922851824,15.173888280943013,3.4680857296769747,12497,0,52.62434541085114,33.017941309910725,62.74271167105563,0.006314153486181781,0.003961671116302942,0.15234375,,
3.6013450000006704,1450,,,,-0.0625,-0.009765625,-0.98828125,0.02522925003919771,0.20848034922851824,15.17311877363854,3.469087369393865,12469,0,52.63687469194239,32.94402102569994,62.5873424638241,0.006328321277657052,0.003960728110258268,0.15234375,,
3.6094100000010805,1450,,,,-0.1875,0.171875,-0.9921875,0.02522925003919771,0.20848034922851824,15.17325885522764,3.4664365659629186,12507,0,52.597139320581746,33.042727754526894,62.82229068225573,0.006309417030497919,0.003963720307255151,0.15234375,,
3.6179050000011923,1450,,,,0.03125,-0.0546875,-0.951171875,0.02522925003919771,0.20848034922851824,15.173041401229312,3.4681303007028856,12485,0,52.62208463742275,32.985788917259114,62.684306683283545,0.006320308110606848,0.00396184131938124,0.15234375,,
3.6264349999995904,1450,,,,-0.09375,0.080078125,-1.0078125,0.02522925003919771,0.20848034922851824,15.173189001298065,3.4677303293037434,12507,0,52.61652769205927,33.04456344954544,62.802630464215206,0.0063090665291081665,0.00396225973801729,0.15234375,,
3.634589999999851,1450,,,,-0.0625,0.0390625,-0.9609375,0.02522925003919771,0.20848034922851824,15.173196056115772,3.4674671702150865,12504,0,52.61255919181847,33.03633996466725,62.79173731926079,0.006310636997061128,0.00396255860636671,0.150390625,,
3.643680000000633,1450,,,,-0.125,0.1484375,-0.943359375,0.02522925003919771,0.20848034922851824,15.173130469579753,3.4681353011132385,12484,0,52.62246940994643,32.98376164634473,62.67999585764462,0.006320696573782756,0.003961812350621317,0.150390625,,
3.652410000000149,1450,,,,-0.0625,0.083984375,-0.955078125,0.02522925003919771,0.20848034922851824,15.173180521411261,3.466175076106593,12515,0,52.59290014858175,33.06507786331474,62.86985081617789,0.006305152224057648,0.003964039796997965,0.150390625,,
3.6633600000003352,1450,,,,-0.03125,0.109375,-0.958984375,0.02522925003919771,0.20848034922851824,15.173124431051397,3.467330652579388,12486,0,52.61023943518569,32.987843117530645,62.702324626693105,0.00631991453596207,0.003962733328468502,0.1484375,,
3.671754999998957,1450,,,,0.03125,-0.0234375,-0.94921875,0.02522925003919771,0.20848034922851824,15.173471295948849,3.4686701906925674,12498,0,52.63176757358709,33.019115783740816,62.7360951493319,0.0063139288948245425,0.003961112439118285,0.1484375,,
3.680519999999553,1450,,,,-0.125,0.0390625,-1.005859375,0.02522925003919771,0.20922326579454217,15.173596698929178,3.4738914695217247,12495,0,52.71142813437307,33.010977645524804,62.62584569208129,0.006337990593347541,0.003969220208968459,0.1484375,,
3.688265000000596,1450,,,,0.125,-0.1171875,-1.0234375,0.02522925003919771,0.20922326579454217,15.173583969724609,3.475333642648239,12482,0,52.73326684953195,32.97647401019012,62.53447961850065,0.006344622100285486,0.003967576414173915,0.1484375,,
3.695670000000857,1450,,,,-0.15625,-0.001953125,-0.986328125,0.02522925003919771,0.20922326579454217,15.173700900077483,3.481999869167336,12485,0,52.83482454885409,32.98615833736229,62.43260693874626,0.006342759397888482,0.003959950043954105,0.1484375,,
3.703440000001341,1450,,,,0.125,-0.09765625,-0.89453125,0.02522925003919771,0.20922326579454217,15.173539055786732,3.478764105866763,12507,0,52.78516302623834,33.04429489642684,62.601483072054265,0.006331600249008975,0.003963675658073499,0.150390625,,
3.711489999999292,1450,,,,-0.125,0.1171875,-1,0.02522925003919771,0.20922326579454217,15.173528899810341,3.471788837125958,12491,0,52.67928825416966,33.00122552385759,62.64554176326686,0.006339863519410463,0.003971641848786402,0.150390625,,
3.719305000000633,1450,,,,0,0.037109375,-1.01171875,0.02522925003919771,0.20922326579454217,15.173066437792944,3.490824796355793,12489,0,52.96651655780147,32.99602142413408,62.29600050840812,0.006340863436387251,0.003950104318569267,0.150390625,,
3.728979999999516,1450,,,,-0.0625,0.1328125,-0.962890625,0.02561043624986504,0.20922326579454217,15.17332723954883,3.4969025055747873,12518,0,53.05964604188447,33.571022299591164,63.27034724862415,0.006232257806372794,0.003943171155521553,0.150390625,,
3.7374949999991802,1450,,,,-0.25,-0.13671875,-1.0234375,0.02561043624986504,0.20922326579454217,15.173163966572002,3.502604928765708,12505,0,53.145598894285335,33.538465037408336,63.10675904531895,0.006238307732962062,0.003936793829545867,0.150390625,,
3.746344999999739,1450,,,,-0.03125,-0.033203125,-0.947265625,0.02561043624986504,0.20922326579454217,15.173100468608256,3.4964987280393443,12519,0,53.052726488901946,33.57454857716204,63.28524620536792,0.006231603242965396,0.003943685454852342,0.150390625,,
3.7542250000005586,1450,,,,0,0.046875,-1.052734375,0.02561043624986504,0.20922326579454217,15.173243777395848,3.49105282759115,12496,0,52.9705955928076,33.5121368498797,63.26554662041598,0.006243208743500139,0.003949800138228967,0.15234375,,
3.762539999999106,1450,,,,-0.09375,0.013671875,-0.9453125,0.02561043624986504,0.20922326579454217,15.173084937388088,3.4881021644640713,12491,0,52.92527041170059,33.499385767543075,63.29563459374808,0.006245585135392383,0.003953182745539409,0.150390625,,
3.770495000000112,1450,,,,0,0.04296875,-1.10546875,0.02561043624986504,0.20922326579454217,15.173162118590186,3.481232920320591,12515,0,52.82131147259748,33.56498925151739,63.54440720187373,0.0062333780066705586,0.00396096310299078,0.150390625,,
3.779394999999553,1450,,,,-0.125,0.064453125,-1.001953125,0.02561043624986504,0.20922326579454217,15.172656374347975,3.4768324318376034,12504,0,52.752783759460584,33.534310605116396,63.56879810935554,0.006239080572081913,0.003966108532746776,0.150390625,,
3.7952099999999627,1450,,,,-0.03125,0.0859375,-0.962890625,0.02561043624986504,0.20922326579454217,15.172481293696231,3.4596967883257332,12525,0,52.49218480273312,33.590890184873906,63.992173903809245,0.0062285716348403335,0.00398579839229036,0.150390625,,
3.802709999999963,1450,,,,-0.0625,0.037109375,-0.9765625,0.02561043624986504,0.20922326579454217,15.1723188189117,3.4600140166367934,12499,0,52.49643577831668,33.521244549491115,63.85432468414714,0.00624151246788116,0.00398547563644236,0.150390625,,
3.814925000000745,1450,,,,-0.0625,0.015625,-1.0390625,0.02561043624986504,0.20922326579454217,15.172106377844358,3.4658866955528986,12523,0,52.58480163848404,33.585774674740314,63.86973731619187,0.006229520319860239,0.00397877826435353,0.1484375,,
3.8232299999995156,1450,,,,-0.041015625,0.01171875,-0.921875,0.02561043624986504,0.20922326579454217,15.172246923465782,3.485012944879521,12505,0,52.87547693118674,33.53832020761738,63.42887507428985,0.0062383346720812334,0.003956905505870514,0.1484375,,
3.8358250000001863,1450,,,,-0.0625,0.021484375,-1,0.02561043624986504,0.21030858065842656,15.172383598511702,3.491956271229095,9402,0,52.9813000563164,25.21441635776494,47.59116203445991,0.008340807007958393,0.003969486978139067,0.1484375,,
3.8430499999988825,1450,,,,0,0.17578125,-0.998046875,0.02561043624986504,0.21030858065842656,15.172452199481777,3.4897768374046088,11132,0,52.948472252380114,29.855558700701497,56.386062582493956,0.007044201810682748,0.0039719480414087465,0.1484375,,
3.8511550000002606,1450,,,,-0.125,-0.01953125,-0.8203125,0.02561043624986504,0.21030858065842656,15.172559977282816,3.4960375042099865,11976,0,53.04383871545615,32.118108755825745,60.550121434682346,0.006547975232828108,0.003964806954990343,0.1484375,,
3.8585400000009686,1450,,,,-0.0625,0.166015625,-0.955078125,0.02561043624986504,0.21030858065842656,15.172360013008818,3.499890106431141,12273,0,53.10159270074102,32.91495128979875,61.984866396181424,0.006389454409540839,0.0039604947791988115,0.1484375,,
3.8672199999997394,1450,,,,0,0.03515625,-0.98046875,0.02561043624986504,0.21030858065842656,15.172125862847484,3.495307677123673,12446,0,53.03124800669744,33.3796063175899,62.943278863386944,0.006300511116202147,0.00396574828168981,0.1484375,,
3.875454999999143,1450,,,,-0.0625,-0.03515625,-0.8828125,0.02559569139910981,0.21030858065842656,15.171986712793881,3.500371450185661,12507,0,53.1075891320599,33.52376726564294,63.124249873744255,0.00627341727413681,0.003960047595748755,0.1484375,,
3.884024999999441,1450,,,,0.03125,-0.03515625,-1.005859375,0.02559569139910981,0.21030858065842656,15.17198741164767,3.5001518690948177,12528,0,53.104260096761635,33.579092087841154,63.23238856290712,0.006263081208636323,0.003960295845855339,0.1484375,,
3.892519999999553,1450,,,,-0.125,0.12109375,-0.97265625,0.02559569139910981,0.21030858065842656,15.172061366410595,3.4970018804238636,8513,0,53.056727128244106,22.818774993985482,43.008259704429044,0.009216471117045467,0.003963843833602607,0.1484375,,
3.9014399999994787,1450,,,,0.125,-0.046875,-0.94921875,0.02559569139910981,0.21030858065842656,15.17205802050754,3.494002222720805,11096,0,53.01120444690236,29.74167223680581,56.10450195787568,0.007071175385967915,0.003967247732865191,0.1484375,,
3.910785000000149,1450,,,,-0.0625,0,-1.01171875,0.02559569139910981,0.21030858065842656,15.171759489055752,3.4875193595589256,11947,0,52.911804936653766,32.02188282144721,60.51935453682583,0.006567651934494269,0.003974700558981287,0.150390625,,
3.91956500000041,1450,,,,0,-0.01953125,-0.96484375,0.02559569139910981,0.21030858065842656,15.171775249711649,3.49104476517053,12325,0,52.965346563849664,33.03567534962077,62.37224429334432,0.006366105079817622,0.00397068261235485,0.1484375,,
3.9271349999997764,1450,,,,-0.09375,-0.01953125,-0.96484375,0.02559569139910981,0.21030858065842656,15.171697160203083,3.4893967418606193,12440,0,52.94007063930865,33.343533521354466,62.98354558030469,0.006307327342008817,0.0039725783913531435,0.150390625,,
3.935579999999143,1450,,,,0.03125,-0.05859375,-0.974609375,0.02559569139910981,0.21030858065842656,15.171321992735454,3.4919360745014236,12434,0,52.97728656430976,33.326849786899395,62.90780813480043,0.006310484849399049,0.003969787701435605,0.1484375,,
3.9434199999999255,1450,,,,-0.1875,-0.015625,-0.89453125,0.02559569139910981,0.21030858065842656,15.171093975737078,3.4960111166938725,12484,0,53.038313191584265,33.46152791084636,63.08935163525485,0.006285086001415263,0.003965220008011054,0.150390625,,
3.9516500000003725,1450,,,,0,0.1171875,-1.05859375,0.02559569139910981,0.21030858065842656,15.170148454622911,3.51501660615536,12516,0,53.323323735841605,33.546878434664485,62.91220442456355,0.006269095381497898,0.00394402610197883,0.1484375,,
3.960054999999702,1450,,,,-0.125,0.046875,-0.890625,0.02559569139910981,0.21030858065842656,15.170043483955899,3.5266563721745556,12534,0,53.499530518858165,33.5959088086766,62.79664229358855,0.006259946169520246,0.003931036003844827,0.1484375,,
3.971085000000894,1450,,,,-0.125,0.052734375,-1.017578125,0.02559569139910981,0.21030858065842656,15.16978167897437,3.5410446620836016,12577,0,53.71687443930581,33.710717980332475,62.75629089034563,0.006238626563252817,0.003915130633597311,0.1484375,,
3.979230000000447,1450,,,,-0.0625,0.0703125,-0.96484375,0.02559569139910981,0.2117399043511619,15.169753554233289,3.5553396244705264,12606,0,53.933625904818214,33.790029762374914,62.6511368288262,0.006266342641311716,0.003925934902371285,0.150390625,,
3.9871650000000374,1450,,,,-0.125,0.177734375,-0.994140625,0.02559569139910981,0.2117399043511619,15.170502387403086,3.5388807111807936,12615,0,53.68659827770296,33.81309245702963,62.98237091149959,0.0062620685942951036,0.003943999268791471,0.150390625,,
3.9959550000000745,1450,,,,0,-0.033203125,-0.966796875,0.02559569139910981,0.2117399043511619,15.170963370511542,3.5253591217920426,12573,0,53.48309410460582,33.70159011888835,63.01353854541871,0.006282786764785038,0.003959006259754284,0.15234375,,
4.004464999999851,1450,,,,-0.09375,0.142578125,-0.986328125,0.02559569139910981,0.2117399043511619,15.171353296130034,3.5255315379730283,12553,0,53.48708451923749,33.6457513288724,62.9044406351428,0.006293213733927282,0.003958710897300941,0.15234375,,
4.012850000000559,1450,,,,-0.125,0.03515625,-1.015625,0.02559569139910981,0.2117399043511619,15.171520474192388,3.530110734902974,12543,0,53.557147290746805,33.61871938127416,62.77167676382671,0.0062982739452325,0.003953532162601661,0.15234375,,
4.021814999999479,1450,,,,0.03125,0.11328125,-0.943359375,0.025754428062640507,0.2117399043511619,15.171689520032265,3.5178403896008734,12535,0,53.37158217205379,33.80802438715852,63.34461713758402,0.006263007324130664,0.003967278010769414,0.150390625,,
4.032174999999814,1450,,,,-0.03125,-0.021484375,-1.009765625,0.025754428062640507,0.2117399043511619,15.171596960032302,3.5096795315540024,12536,0,53.247443311612294,33.80940559989095,63.49489007769456,0.006262751462032354,0.003976527156656653,0.150390625,,
4.040094999999739,1450,,,,-0.125,-0.005859375,-0.98828125,0.025754428062640507,0.2117399043511619,15.171804848170972,3.5122180962027083,12503,0,53.28668753980207,33.72180666597515,63.28373600026632,0.00627902017375613,0.0039735985501632935,0.150390625,,
4.049189999999478,1450,,,,0.0625,0.017578125,-0.89453125,0.025754428062640507,0.2117399043511619,15.171814491642895,3.500520313013062,12512,0,53.109244813261896,33.74352138042057,63.53605949221571,0.006274979483143761,0.003986874697534551,0.150390625,,
4.057875,1450,,,,-0.125,0.125,-0.9765625,0.025754428062640507,0.2117399043511619,15.172123100452874,3.5105163649665734,12505,0,53.2619864354272,33.727187038526154,63.32318656461623,0.0062780185050503624,0.003975441370514172,0.150390625,,
4.065645000000484,1450,,,,0,0.005859375,-0.998046875,0.025754428062640507,0.2117399043511619,15.171836056822306,3.5246500421438176,12503,0,53.475412597077835,33.721816580137855,63.06041401535738,0.006279018327733764,0.003959574953569081,0.150390625,,
4.073604999999516,1450,,,,-0.09375,0.146484375,-0.990234375,0.025754428062640507,0.2117399043511619,15.171844120784087,3.517038074055932,12520,0,53.359953426439276,33.76725738828134,63.282021853396195,0.006270568613743697,0.003968142600481489,0.150390625,,
4.082645000000484,1450,,,,-0.125,-0.109375,-1.03125,0.025754428062640507,0.2117399043511619,15.171785146741154,3.5207107317280144,12496,0,53.41546678560327,33.7012766499258,63.09273077252053,0.006282845203480684,0.003964018609086288,0.150390625,,
4.092019999999553,1450,,,,-0.03125,-0.021484375,-0.9921875,0.025754428062640507,0.2117399043511619,15.171797043250214,3.5173708841000098,12522,0,53.36483717940292,33.77123798837295,63.283689735321715,0.00626982950474192,0.003967779450714535,0.15234375,,
4.099584999999963,1450,,,,0,-0.00390625,-1.04296875,0.025754428062640507,0.2117399043511619,15.171740764346373,3.5221943619605183,12528,0,53.43781978130736,33.7869420541351,63.22664770457913,0.006266915307455223,0.003962360463389056,0.150390625,,
4.107589999999851,1450,,,,0,0.044921875,-0.919921875,0.025754428062640507,0.2117399043511619,15.171558034108022,3.5205923110266304,12512,0,53.412870561175005,33.7456818793506,63.17893332600592,0.006274577740292401,0.003964211287027745,0.150390625,,
4.11555999999959,1450,,,,-0.125,0.109375,-1.0703125,0.025754428062640507,0.2117399043511619,15.17177626109761,3.511655206960653,12528,0,53.27804710612545,33.788740069986055,63.41962948206733,0.006266581823192832,0.003974242973459474,0.150390625,,
4.127614999999293,1450,,,,-0.15625,0.076171875,-0.99609375,0.025754428062640507,0.2117399043511619,15.171353479782226,3.523195282136437,12506,0,53.45164100359296,33.72731970968547,63.09875445623523,0.00627799380958092,0.003961335898685112,0.150390625,,
4.146540000000037,1450,,,,-0.3125,0.1796875,-0.98828125,0.025754428062640507,0.21131656889703923,15.171308590381804,3.5331512306303834,12558,0,53.602527616380776,33.86864959479545,63.18479948778626,0.00623929715017371,0.003942287393784421,0.15234375,,
4.15533999999892,1450,,,,-0.03125,0.171875,-0.974609375,0.025754428062640507,0.21131656889703923,15.171454088109778,3.527793405296132,12535,0,53.52175568078672,33.80675356031323,63.164507834800354,0.006250720540794847,0.003948236865721836,0.15234375,,
4.163480000001378,1450,,,,-0.125,0.0234375,-0.98046875,0.025754428062640507,0.21131656889703923,15.171615127823475,3.532555613039783,12537,0,53.5945741786721,33.81293090058069,63.09021280373659,0.006249578586321547,0.003942872429447017,0.154296875,,
4.171584999999963,1450,,,,-0.03125,0.02734375,-0.9765625,0.025754428062640507,0.21131656889703923,15.171729131601342,3.524115717257857,12537,0,53.46692909065519,33.81130673781924,63.237794488796794,0.006249878791601792,0.003952285506032037,0.15234375,,
4.179785000000149,1450,,,,0,0.1015625,-1,0.025285172549091975,0.21131656889703923,15.17194392111979,3.5210038708741926,12538,0,53.42047327494896,33.19852888608641,62.14570341827083,0.006365238942428035,0.0039557225150256056,0.15234375,,
4.18825500000082,1450,,,,-0.03125,0.083984375,-0.99609375,0.025285172549091975,0.21131656889703923,15.172044302091832,3.515172465595122,12499,0,53.33235237750257,33.09515919305456,62.05456485173762,0.0063851201822104145,0.0039622585443311485,0.15234375,,
4.19636999999918,1450,,,,-0.0625,0.0859375,-0.9765625,0.025285172549091975,0.21131656889703923,15.17247688409092,3.5081707226089427,12483,0,53.22763919422872,33.05191016408603,62.09539003501347,0.006393475228752567,0.003970053380085877,0.15234375,,
4.204890000000596,1450,,,,0,0.25,-1.00390625,0.025285172549091975,0.21131656889703923,15.17235371414051,3.498490393314217,12512,0,53.08033371288585,33.130752178461854,62.41624696194965,0.006378260528428785,0.003981070843300665,0.15234375,,
4.21288000000082,1450,,,,0,-0.11328125,-0.9296875,0.025285172549091975,0.21131656889703923,15.172271179344873,3.498099148018606,12436,0,53.07410888597355,32.92926717717848,62.04393793577388,0.006417287325588936,0.003981537765448683,0.15234375,,
4.2213000000007455,1450,,,,-0.0625,0.1328125,-1.0234375,0.025285172549091975,0.21131656889703923,15.1724752825103,3.504036941733803,12497,0,53.164913887459115,33.09054148445628,62.241314929058674,0.006386011210977058,0.003974737349229224,0.15234375,,
4.228645000000484,1450,,,,-0.0625,0.0859375,-0.91015625,0.025285172549091975,0.21131656889703923,15.172397907705127,3.5052206948012326,12497,0,53.18260313584693,33.09112835080392,62.22171612449587,0.006385897955997184,0.003973415298180552,0.15234375,,
4.240724999999627,1450,,,,0.03125,-0.017578125,-0.935546875,0.025285172549091975,0.21131656889703923,15.172368901953504,3.5044218785815904,12494,0,53.1703815299168,33.08172134456093,62.21832605422851,0.0063877138283126985,0.003974328617110638,0.154296875,,
4.2503649999992925,1450,,,,0,-0.025390625,-1.02734375,0.025285172549091975,0.21131656889703923,15.17299755916985,3.490591776224726,12502,0,52.96274050071612,33.10408071057497,62.50447087443929,0.006383399398538047,0.003989910017858346,0.154296875,,
4.258714999999851,1450,,,,-0.0625,0.140625,-1.005859375,0.025285172549091975,0.21131656889703923,15.172869096860632,3.4841312040030803,12527,0,52.864266674626165,33.170240927935694,62.746053269016166,0.006370667290482965,0.00399734229167823,0.154296875,,
4.267369999999181,1450,,,,-0.0625,0.041015625,-0.9765625,0.025285172549091975,0.21131656889703923,15.17245469080505,3.48650741681732,12488,0,52.89887581081654,33.066482243983984,62.5088562604627,0.006390657685865134,0.003994727026955649,0.154296875,,
4.278860000000336,1450,,,,-0.125,0.146484375,-1.04296875,0.025285172549091975,0.21131656889703923,15.1726296506411,3.476841266429385,12517,0,52.75282488959904,33.144213447472005,62.829267469251405,0.006375670046656573,0.004005786786570803,0.154296875,,
4.297230000000447,1450,,,,-0.09375,0.0078125,-1.00390625,0.025285172549091975,0.2121987156590706,15.172342164470312,3.487242677192826,12524,0,52.90963910891305,33.16257991347556,62.67776622934679,0.006398739670216189,0.004010587092122578,0.154296875,,
4.315024999999441,1450,,,,0,0.080078125,-0.958984375,0.025285172549091975,0.2121987156590706,15.172244910009066,3.4736175627571417,12527,0,52.70257638586014,33.16882181065066,62.93586402267367,0.006397535519061839,0.0040263442550790085,0.15625,,
4.323630000000819,1450,,,,-0.1875,0.03125,-0.984375,0.025203857876889224,0.2121987156590706,15.172232920466257,3.4747132628797446,12494,0,52.71915895624478,32.97672393761641,62.551688210705414,0.006434802803956412,0.004025077786904543,0.15625,,
4.3342800000011925,1450,,,,-0.09375,0.158203125,-0.990234375,0.025203857876889224,0.2121987156590706,15.172220469659937,3.469737637689049,12522,0,52.643624410895306,33.050973660766985,62.7824813177693,0.006420346881065116,0.0040308530811406906,0.15625,,
4.342009999999776,1450,,,,-0.03125,-0.0546875,-0.998046875,0.025203857876889224,0.2121987156590706,15.171962980493264,3.459018812795737,12506,0,52.48010537656668,33.008797286977725,62.89773438930013,0.006428550359294217,0.004043412530071276,0.15625,,
4.350165000000037,1450,,,,-0.09375,0.01171875,-0.91796875,0.025203857876889224,0.2121987156590706,15.172063465555027,3.4666170900163613,12451,0,52.59573450050592,32.862483838566185,62.48127181920062,0.006457172157207488,0.004034523287378551,0.154296875,,
4.358099999999627,1450,,,,0.0625,-0.08203125,-0.90234375,0.025203857876889224,0.2121987156590706,15.172060692387745,3.4625782980309867,12460,0,52.53444808987079,32.88501142992328,62.59704370295624,0.006452748727524637,0.00403922994101055,0.154296875,,
4.367939999999479,1450,,,,-0.125,0.0390625,-0.955078125,0.025203857876889224,0.2121987156590706,15.171912055057069,3.4632716310680114,12481,0,52.54445260933792,32.94078559319057,62.6912717848668,0.006441823163529402,0.004038460867348722,0.154296875,,
4.375790000000038,1450,,,,0.0625,0.091796875,-0.90234375,0.025203857876889224,0.2121987156590706,15.171769456755271,3.4644174109921146,12488,0,52.56134226154134,32.961059942300416,62.709699798548954,0.006437860797878846,0.0040371631797982924,0.154296875,,
4.384115000000223,1450,,,,-0.0625,0.181640625,-1.021484375,0.025203857876889224,0.2121987156590706,15.17138733259766,3.4798983976980042,12494,0,52.7948864695624,32.97568115197022,62.459990648870026,0.006435006290882705,0.004019304327539535,0.154296875,,
4.393089999999851,1450,,,,-0.125,0.0546875,-1.05078125,0.025203857876889224,0.2121987156590706,15.17164043891615,3.4783353574737266,12518,0,52.772053369560254,33.039004941353724,62.60701039996132,0.006422672717769087,0.00402104337636917,0.154296875,,
4.40147000000067,1450,,,,0.03125,0.037109375,-0.912109375,0.025203857876889224,0.2121987156590706,15.171442997826084,3.471342076150376,12499,0,52.665268434270686,32.98839814174264,62.63786195814055,0.006432525603313851,0.004029196507825778,0.154296875,,
4.418320000000298,1450,,,,-0.09375,-0.02734375,-1.03515625,0.025203857876889224,0.2121987156590706,15.171434569588774,3.47568252818869,12514,0,52.7310900610776,33.027543141998606,62.63390933838712,0.006424901626704219,0.00402416705995048,0.15234375,,
4.430319999999367,1450,,,,0,-0.078125,-0.8984375,0.025203857876889224,0.2121987156590706,15.171579651106573,3.4707533696728574,12544,0,52.65681119733829,33.10854055768925,62.876083463563084,0.006409183615005005,0.004029843639103556,0.15234375,,
4.447205000000075,1450,,,,-0.1875,-0.01953125,-0.98046875,0.025203857876889224,0.2112769541278637,15.171420885217403,3.4705928652255493,12496,0,52.65382507956941,32.98056056666773,62.63659006126936,0.006406105611843171,0.004012566110982179,0.154296875,,
4.455519999999553,1450,,,,0,0.125,-0.974609375,0.025203857876889224,0.2112769541278637,15.171033525025065,3.4690261331538874,12494,0,52.62871176526569,32.97536625879813,62.65660920197836,0.006407114707072983,0.0040144808231332,0.15234375,,0.048665000000037255,118893,
4.472390000000596,1450,,,,-0.125,0.025390625,-0.998046875,0.025116362064925728,0.2112769541278637,15.171128769346016,3.4665739436081164,12510,0,52.59183968693837,32.903739496833474,62.56434399841958,0.006421062084696974,0.0040172953710219065,0.15234375,,
4.490740000001155,1540,,,,-0.0625,0.041015625,-0.888671875,0.025116362064925728,0.2112769541278637,15.17092517646551,3.4692567965553374,12506,0,52.63183527848545,32.894132329077166,62.49854703912149,0.006422937441067655,0.0040142425778990146,0.15234375,,
4.5075200000004845,1540,,,,-0.03125,0.07421875,-0.94140625,0.025116362064925728,0.2112769541278637,15.157663851604484,3.7929978856054936,12783,0,57.49298693985463,33.62170961341772,58.479671005075,0.006283944408452909,0.0036748300162050673,0.150390625,,
4.522355000000447,1540,,,,-0.125,0.033203125,-0.712890625,0.025116362064925728,0.2112769541278637,15.146940915717169,4.120891887196932,13667,0,62.41890593543015,35.94597929759298,57.588287969637996,0.005877624097502645,0.00338482309104266,0.154296875,,
4.540955000000075,1540,,,,-0.25,0.2265625,-1.34375,0.025116362064925728,0.2112769541278637,15.140675727913191,4.354504310147953,14285,0,65.93013771575049,37.57110953330606,56.98624458406135,0.005623388735447666,0.0032045580586947623,0.162109375,,
4.548974999999627,1540,,,,-0.0625,-0.0390625,-0.830078125,0.025116362064925728,0.2112769541278637,15.137927929022226,4.444301555918304,14478,0,67.27751664833262,38.07879910351638,56.59959077050759,0.005548414317203438,0.0031403797977893988,0.1640625,,
4.557015000000596,1540,,,,0,0.080078125,-0.92578125,0.025116362064925728,0.2112769541278637,15.136457534057156,4.512657853881952,14635,0,68.30565397101367,38.493316629399544,56.3545100464665,0.005488665893925581,0.0030931107726092726,0.166015625,,
4.564739999999293,1540,,,,-0.25,0.1640625,-1.48046875,0.025116362064925728,0.2112769541278637,15.13474754282481,4.56896907209082,14655,0,69.15019343706908,38.544319708641986,55.74000272858193,0.005481403115294665,0.003055334246029821,0.169921875,,
4.585875000000931,1540,,,,-0.09375,0.0703125,-0.8671875,0.025116362064925728,0.2112769541278637,15.131613451206967,4.66755987180752,14730,0,70.62771174055653,38.74367959218686,54.85620111056081,0.005453197950007575,0.0029914172344131344,0.171875,,
4.604989999999292,1540,,,,0,-0.107421875,-0.734375,0.025116362064925728,0.2125677143790225,15.128143636740687,4.772956436255838,14789,0,72.20597053958427,38.8975879023568,53.87032071126669,0.0054648045249649805,0.0029439077238424495,0.193359375,,
4.612124999999069,1540,,,,0.0625,0.015625,-1.5234375,0.025116362064925728,0.2125677143790225,15.127049138690825,4.803634241761196,14777,0,72.66481121941945,38.866810924916166,53.48780279295507,0.005469131871654351,0.0029253184699971316,0.19921875,,
4.621040000000037,1540,,,,0.0625,-0.08984375,-0.60546875,0.025166748208696584,0.2125677143790225,15.126091081393508,4.8320026578778785,14816,0,73.0893123085963,39.04652717864408,53.423032650495564,0.005443959546171453,0.0029083282858309452,0.203125,,
4.629035000000149,1540,,,,-0.15625,0.2421875,-1.115234375,0.025166748208696584,0.2125677143790225,15.12520550025687,4.85470541837726,14822,0,73.42841709616656,39.06329213451874,53.199147795000066,0.005441623139366293,0.002894897136358397,0.20703125,,
4.637764999999665,1540,,,,0.0625,-0.515625,-1.57421875,0.025166748208696584,0.2125677143790225,15.124919835523041,4.87715048504048,14788,0,73.76651011201957,38.971941444031955,52.831483263679345,0.005454378368198397,0.002881628994732483,0.212890625,,
4.645655000000261,1540,,,,0,-0.03125,-0.509765625,0.025166748208696584,0.2125677143790225,15.124283918382474,4.904322367359696,14807,0,74.17436391122172,39.02318600064775,52.610071651378185,0.005447215775141837,0.002865784122307296,0.216796875,,
4.652790000000037,1540,,,,-0.25,0.40234375,-1.015625,0.025166748208696584,0.2125677143790225,15.123867573106514,4.932481035429255,14791,0,74.59818998669135,38.98053193799425,52.25399161152375,0.0054531763372842315,0.0028495023058461005,0.220703125,,
4.660919999999925,1540,,,,-0.21875,0.09375,-1.365234375,0.025166748208696584,0.2125677143790225,15.122881355174071,4.969250571475002,14821,0,75.1493868165474,39.05982592036538,51.9762403593753,0.0054421060353008885,0.0028286021135200596,0.224609375,,
4.669050000000745,1540,,,,0.15625,-0.263671875,-0.5234375,0.025166748208696584,0.2125677143790225,15.1221626792861,4.9814252877636225,14791,0,75.32992357627107,38.98167349128544,51.74792650866922,0.0054530166445148414,0.0028218230457090405,0.228515625,,
4.677049999999814,1540,,,,0,0.25,-1.44140625,0.025166748208696584,0.2125677143790225,15.121469406391304,4.99968436376645,14783,0,75.60257414830734,38.961081371405186,51.534067206463604,0.005455898730137221,0.00281164651830551,0.232421875,,
4.684800000000745,1540,,,,-0.1875,0.021484375,-1.013671875,0.025166748208696584,0.2125677143790225,15.121397427486889,5.012614622239859,14768,0,75.79773785372096,38.92046028431364,51.34778607697329,0.005461593023983198,0.002804407102349789,0.232421875,,
4.693080000001006,1540,,,,0.5,-0.33203125,-0.359375,0.025166748208696584,0.2125677143790225,15.120734817816057,5.031463650866376,14768,0,76.07942761023111,38.92066468464715,51.157935735327655,0.005461564341239862,0.00279402357583506,0.23828125,,
4.700570000000298,1540,,,,-0.34375,0.318359375,-1.224609375,0.025166748208696584,0.2125677143790225,15.120028950627027,5.05912771456652,14805,0,76.49415750916533,39.017950931222465,51.00775301244077,0.005447946632403091,0.0027788751625057533,0.2421875,,
4.708455000000074,1540,,,,0.0625,0.015625,-0.962890625,0.025166748208696584,0.2125677143790225,15.119248639633687,5.073189137656036,14781,0,76.70280796811042,38.95398086200443,50.78559950269324,0.005456893228244107,0.0027713159401856397,0.248046875,,
4.717370000000112,1540,,,,0,-0.2578125,-0.54296875,0.025166748208696584,0.2125677143790225,15.118815797972026,5.078848214514786,14767,0,76.78617062110817,38.91710428388449,50.68243925838692,0.005462064002203947,0.0027683072701712333,0.25,,
4.726294999999926,1540,,,,-0.1875,0.45703125,-1.421875,0.025166748208696584,0.24697171366355883,15.118073183116515,5.090214796119998,14774,0,76.95423980552464,38.93670571989832,50.59721961817497,0.006342902130452853,0.0032093321211111286,0.25390625,,
