Time (s),ESC signal (µs),Servo 1 (µs),Servo 2 (µs),Servo 3 (µs),AccX (g),AccY (g),AccZ (g),Torque (N·m),Thrust (N),Voltage (V),Current (A),Motor Electrical Speed (RPM),Motor Optical Speed (RPM),Electrical Power (W),Mechanical Power (W),Motor Efficiency (%),Propeller Mech. Efficiency (N/W),Overall Efficiency (N/W),Vibration (g),App message,90% settling time (s),Max acceleration (RPM/s),
0,1000,,,,-0.0625,0.046875,-0.955078125,-0.001019468282092668,0.00985879775406627,15.097496864076918,0.050084934256178784,0,0,0.7561571378701578,0,0,0,0,0.05859375,,
0,1200,,,,-0.0625,0.044921875,-0.955078125,-0.001019468282092668,0.00985879775406627,15.097446163260111,0.052039955121300135,0,0,0.7856704207823011,0,0,0,0,0.05859375,,
0.007875,1200,,,,-0.0625,0.05078125,-0.953125,-0.001019468282092668,0.00985879775406627,15.097705053111525,0.05194777890138286,0,0,0.7842922440173282,0,0,0,0,0.05859375,,
0.016724999999627472,1200,,,,-0.0625,0.05078125,-0.95703125,-0.001019468282092668,0.00985879775406627,15.097684699965,0.05232608414484048,0,0,0.7900027200026394,0,0,0,0,0.05859375,,
0.02596499999985099,1200,,,,-0.0625,0.048828125,-0.955078125,-0.001019468282092668,0.009363990014547666,15.097592786456044,0.05185385672881418,0,0,0.7828684132988701,0,0,0,0,0.05859375,,
0.03433999999985099,1200,,,,-0.0625,0.052734375,-0.95703125,-0.001019468282092668,0.009363990014547666,15.0973845688274,0.05198429242064674,0,0,0.7848268542128832,0,0,0,0,0.05859375,,
0.04307500000018626,1200,,,,-0.03125,0.060546875,-0.974609375,-0.001019468282092668,0.009363990014547666,15.0976043228599,0.05212532122564194,0,0,0.7869674750667126,0,0,0,0,0.05859375,,
0.051134999999776484,1200,,,,0,0.08203125,-1.125,-0.001019468282092668,0.009363990014547666,15.096667700049782,0.08296066232358777,0,0,1.2524295512752444,0,0,0,0,0.05859375,,
0.059084999999962744,1200,,,,-0.0625,0.02734375,-0.98046875,-0.001019468282092668,0.009363990014547666,15.095855288099116,0.10072085106898772,2,0,1.5204673922316219,0.00020366398576607568,0.013394827590952396,0,0.00615862600039317,0.060546875,,
0.06708499999903142,1200,,,,-0.125,0.0546875,-0.9609375,-0.001019468282092668,0.009363990014547666,15.095276731399391,0.11635552322802781,2,0,1.7564188223538495,0.00026514433735824527,0.01509573536697326,0,0.005331296781480966,0.060546875,,
0.07525999999884515,1200,,,,0,-0.03125,-0.91015625,-0.001019468282092668,0.009363990014547666,15.094711267759509,0.12838859042492115,3,0,1.9379887025388178,0.00028987321765151905,0.014957425565576169,0,0.004831808360018087,0.0625,,
0.08304999999981373,1200,,,,0,-0.037109375,-1.037109375,-0.0007849022900113696,0.009363990014547666,15.094484302084846,0.13779404851255478,3,0,2.079930102193476,0.0002303890285470682,0.011076767834847045,0,0.004502069566988086,0.064453125,,
0.09121499999985098,1200,,,,-0.25,0.16015625,-1.109375,-0.0007849022900113696,0.009363990014547666,15.094263851028856,0.14660947428621332,3,0,2.2129620879367344,0.00023330916459244445,0.010542845079192991,0,0.004231428123234694,0.06640625,,
0.09830499999970198,1200,,,,0.03125,-0.0078125,-0.9765625,-0.0007849022900113696,0.009363990014547666,15.094155711921161,0.1521126884566174,3,0,2.296012605323136,0.00023444192506910506,0.010210829179490077,0,0.004078370472722121,0.06640625,,
0.10639499999955296,1200,,,,-0.0625,0.017578125,-0.93359375,-0.0007849022900113696,0.009363990014547666,15.094149006069221,0.1541809298993804,3,0,2.327229929795561,0.00023487314515425334,0.010092391050285527,0,0.004023663452699863,0.068359375,,
0.11326499999966472,1200,,,,-0.0625,-0.01171875,-0.9609375,-0.0007849022900113696,0.009363990014547666,15.093784527639178,0.15810292098308415,3,0,2.386371422509035,0.00023507368888920136,0.009850674822532214,0,0.00392394491746903,0.068359375,,
0.12228500000014901,1200,,,,-0.03125,0.017578125,-1.009765625,-0.0007849022900113696,0.009363990014547666,15.093365658121797,0.17396870353536137,3,0,2.6257732555285953,0.0002351476489514938,0.00895536766003644,0,0.003566183787892454,0.068359375,,
0.130339999999851,1200,,,,-0.0625,0.015625,-0.9609375,-0.0007849022900113696,0.009363990014547666,15.093042815936341,0.17800924178904323,3,0,2.686701107954394,0.00023518629011199947,0.008753719921270515,0,0.0034853114054347635,0.0703125,,
0.13929000000003725,1200,,,,0,0.0234375,-0.98828125,-0.0007849022900113696,0.009363990014547666,15.09318717108627,0.17452434777776205,3,0,2.634128646921517,0.00023519784777716504,0.008928867162658845,0,0.0035548719404768937,0.0703125,,
0.14732999999914317,1200,,,,-0.0625,0.041015625,-0.947265625,-0.0007849022900113696,0.009363990014547666,15.09334214973344,0.17054176749979674,3,0,2.5740452476947224,0.00023520271293071,0.009137473909650739,0,0.0036378498097241765,0.0703125,,
0.15558499999996275,1200,,,,-0.03125,0.03125,-0.96484375,-0.0007849022900113696,0.009363990014547666,15.09354191916448,0.16777569838533024,3,0,2.5323295365960785,0.00023520438331446733,0.009288063812999067,0,0.003697777038581878,0.0703125,,
0.16356499999947846,1200,,,,-0.125,0.0546875,-0.94140625,-0.0007849022900113696,0.009363990014547666,15.09373481048945,0.16494144461804242,118,0,2.4895824243237645,0.00973473313338463,0.39101871214522405,0.9619154306792936,0.0037612693289683593,0.0703125,,
0.17015499999932945,1200,,,,0,0.015625,-0.95703125,-0.0007849022900113696,0.009158936996389113,15.093747768803615,0.1622052547390377,296,0,2.4482852018055725,0.02431259067102529,0.9930456898197616,0.3767157980126052,0.0037409599950342953,0.0703125,,
0.17828499999921768,1200,,,,-0.0625,0.08203125,-0.9765625,-0.0007849022900113696,0.009158936996389113,15.093846115101384,0.15930438784496548,362,0,2.404515915592336,0.029746825817610834,1.2371232656317397,0.3078962795071332,0.0038090565077972755,0.0703125,,
0.1862849999992177,1200,,,,0,0.005859375,-1.005859375,-0.0007849022900113696,0.009158936996389113,15.094019201128438,0.15647286615171413,393,0,2.361804446149573,0.03227147749536347,1.3663907504270876,0.2838090384211569,0.0038779404498627476,0.0703125,,
0.19426999999955297,1200,,,,-0.0625,0.0390625,-0.958984375,-0.0007849022900113696,0.009158936996389113,15.094311106598264,0.15414494425117484,404,0,2.3267117440364786,0.03324769285706044,1.428956248760791,0.2754758664237399,0.003936429607089961,0.0703125,,
0.20178000000026078,1200,,,,0,0.0078125,-0.97265625,-0.0007849022900113696,0.009158936996389113,15.094458855551002,0.15182046405098454,409,0,2.2916477480482462,0.033635029104989854,1.4677224775769393,0.2723035252266322,0.003996660046985671,0.0703125,,
0.21012499999906867,1200,,,,-0.0625,0.068359375,-0.978515625,-0.0007849022900113696,0.009158936996389113,15.094632972200188,0.14874397327572736,411,0,2.2452356834238576,0.03378870637317079,1.5049068845033196,0.27106503857340847,0.004079276426972803,0.0703125,,
0.21941500000003725,1200,,,,-0.03125,0.029296875,-0.998046875,-0.0007849022900113696,0.009158936996389113,15.09448177629744,0.14482865682370177,412,0,2.1861135211110025,0.03385400563663813,1.5485932139257443,0.2705421950564383,0.004189598073449753,0.0703125,,
0.22722499999962747,1200,,,,-0.0625,0.0859375,-0.9765625,-0.0007849022900113696,0.009158936996389113,15.094621350871119,0.14104516182812712,412,0,2.12902331116792,0.033874822870845235,1.5910968514601418,0.2703759376487208,0.004301943031034633,0.0703125,,
0.2351699999999255,1200,,,,-0.0625,0.05078125,-0.9765625,0.0006932733300277544,0.009158936996389113,15.094687224683511,0.13732977259831713,412,0,2.0729499640085094,0.029927466296327573,1.4437138771288125,0.3060378351345103,0.004418310695101522,0.0703125,,
0.24265499999932943,1200,,,,-0.0625,0.0859375,-1.0078125,0.0006932733300277544,0.009158936996389113,15.094622727978933,0.13462202549003308,485,0,2.0320686856484125,0.03520325049540909,1.732384871832031,0.2601730484400452,0.004507198531759565,0.0703125,,
0.250535000000149,1200,,,,-0.03125,0.056640625,-0.986328125,0.0006932733300277544,0.009158936996389113,15.094681679000644,0.13435194822628016,512,0,2.0279998914292743,0.037207040380189876,1.8346667836341677,0.24616139587564725,0.004516241364260708,0.0703125,,
0.25826999999955297,1200,,,,-0.0625,0.04296875,-0.98828125,0.0006932733300277544,0.009158936996389113,15.094534650737813,0.1315207571524513,526,0,1.9852446261289491,0.03821149854252122,1.9247753168348956,0.23969059957690947,0.00461350549742992,0.0703125,,
0.2658650000002235,1200,,,,0,0.06640625,-1,0.0006932733300277544,0.009158936996389113,15.094657309654204,0.1296675482797697,531,0,1.9572872054661652,0.03853175969508232,1.9686308471988019,0.23769838358973358,0.00467940370264043,0.0703125,,
0.27679499999899415,1200,,,,-0.0625,0.048828125,-0.962890625,0.0006932733300277544,0.009158936996389113,15.094935435036591,0.12688548974774894,533,0,1.9153282753852676,0.03868313020240261,2.0196605824461873,0.23676824880682099,0.004781914992899479,0.0703125,,
0.2851349999997765,1200,,,,-0.0625,0.078125,-0.978515625,0.0006932733300277544,0.009158936996389113,15.094939579461498,0.12451289678742916,534,0,1.8795146538699687,0.038745393735870985,2.061457390400933,0.2363877641514235,0.004873033034103047,0.0703125,,
0.2932449999991804,1200,,,,-0.03125,0.025390625,-0.966796875,0.0006932733300277544,0.009158936996389113,15.095293276155337,0.1220941064627937,534,0,1.8430463443460037,0.03876308093936811,2.103207065751947,0.23627990279501285,0.004969455610536543,0.0703125,,
0.30266500000003727,1200,,,,-0.0625,0.08203125,-0.98828125,0.0006932733300277544,0.009158936996389113,15.095404964025365,0.11958358666701319,534,0,1.8051626677891883,0.03877025218770209,2.1477428532900382,0.23623619862071274,0.005073746072760417,0.0703125,,
0.3112199999997392,1200,,,,-0.0625,0.078125,-0.97265625,0.0006932733300277544,0.009158936996389113,15.095512308684302,0.1174109629615265,534,0,1.7723786365602001,0.03877285363210082,2.18761684621467,0.23622034847613707,0.005167596137450973,0.0703125,,
0.31926499999966473,1200,,,,-0.03125,0.03125,-0.994140625,0.0006932733300277544,0.009158936996389113,15.09573295261811,0.11570501993287441,536,0,1.7466520821840275,0.03893233185834815,2.2289689088892195,0.23525272079034712,0.005243710003732802,0.0703125,,
0.32679999999981374,1200,,,,-0.0625,0.09375,-0.99609375,0.0006932733300277544,0.0512382580669401,15.095616528641008,0.11378985322424479,541,0,1.717727989123544,0.039309756415884085,2.2884738832218456,0,0.02982908725442844,0.0703125,,
0.3342749999994412,1200,,,,-0.03125,0.03125,-0.96484375,0.0006932733300277544,0.0512382580669401,15.095632870610364,0.11219050766707547,543,0,1.6935867153095687,0.0394492743144539,2.329333004200084,0,0.030254286718099533,0.0703125,,
0.342195000000298,1200,,,,-0.0625,0.06640625,-0.97265625,0.0006932733300277544,0.0512382580669401,15.095552829981969,0.1104264775299868,544,0,1.6669487253827326,0.03951578485018586,2.3705459111295104,0,0.030737752929488434,0.0703125,,
0.3503099999995902,1200,,,,-0.0625,0.109375,-0.9921875,0.0006932733300277544,0.0512382580669401,15.095771130265003,0.10874896049689531,545,0,1.6416494183153614,0.039542022602057685,2.4086764299916834,0,0.031211449591667453,0.0703125,,
0.3592399999992922,1200,,,,-0.03125,0.037109375,-0.978515625,0.0006932733300277544,0.0512382580669401,15.09571068133449,0.10815518010281443,545,0,1.6326793075197112,0.03955297671458263,2.4225808787072602,0,0.031382928558565996,0.0703125,,
0.3762400000002235,1200,,,,-0.1875,0.03125,-0.984375,0.0006932733300277544,0.0512382580669401,15.091567368703561,0.19858093526663637,545,0,2.9968975627166037,0.039558247085838424,1.3199732809679348,0,0.017097100249397267,0.0703125,,
0.38376500000059605,1200,,,,-0.03125,0.109375,-0.984375,0.004887241957618685,0.0512382580669401,15.090315044223768,0.23566157091914655,545,0,3.5562073489866037,0.27887022442683185,7.8417875298047575,0.18373513404757078,0.014408118829612461,0.072265625,,
0.3919599999999627,1200,,,,-0.03125,-0.01171875,-0.978515625,0.004887241957618685,0.0512382580669401,15.089342077446014,0.2597909690252695,589,0,3.920074800253473,0.3012954824417635,7.685962584751742,0.17005982848363413,0.013070734788945106,0.072265625,,
0.40042499999981374,1200,,,,-0.125,0.07421875,-0.88671875,0.004887241957618685,0.0512382580669401,15.088876709961541,0.2804727507817315,606,0,4.232018757049316,0.31009012300256417,7.327238861738124,0.1652366659434567,0.012107285200849364,0.07421875,,
0.40858499999996273,1200,,,,-0.03125,-0.001953125,-1,0.004887241957618685,0.0512382580669401,15.088380601065456,0.2924897618803628,613,0,4.413196849165921,0.31347315994766695,7.103085827837304,0.1634534136048334,0.011610236256881212,0.07421875,,
0.4171499999994412,1200,,,,0,0.05078125,-0.951171875,0.004887241957618685,0.0512382580669401,15.088065553881933,0.30054432666625164,615,0,4.53463250258771,0.3149070320202293,6.944488485903236,0.16270915812273323,0.011299318751343298,0.07421875,,
0.432445000000298,1200,,,,-0.125,0.08984375,-0.9765625,0.004887241957618685,0.0512382580669401,15.087865502140241,0.30938914619539376,616,0,4.668021825618105,0.31548472456070387,6.7584243678837055,0.162411217019419,0.010976439267216902,0.07421875,,
0.45002499999944123,1200,,,,-0.01953125,0.033203125,-1.00390625,0.004887241957618685,0.0512382580669401,15.087692875981427,0.3126800107887361,855,0,4.717619971239009,0.4374819332833982,9.273361058129073,0.11712085498568066,0.010861039757189933,0.07421875,,
0.4580499999998137,1200,,,,0,0.078125,-0.97265625,0.004887241957618685,0.0512382580669401,15.087806169221796,0.3087439540325969,891,0,4.658268934362947,0.45587176513590594,9.786291250233491,0.1123962087269537,0.010999420340240042,0.07421875,,
0.46624499999918045,1200,,,,-0.03125,0.052734375,-0.978515625,0.004887241957618685,0.0512382580669401,15.088076454330135,0.30596966721099284,905,0,4.616493731585408,0.4631027843683625,10.031483010577436,0.11064122220043493,0.01109895540773186,0.07421875,,
0.47451999999955297,1200,,,,-0.0625,0.109375,-0.984375,0.004887241957618685,0.0700381967425298,15.088269040592664,0.3030000680701884,910,0,4.5717465463608935,0.46596799795645744,10.192341006466501,0.15030688169506987,0.015319789938547696,0.07421875,,
0.4824799999995157,1200,,,,-0.03125,0.0078125,-0.966796875,0.004887241957618685,0.0700381967425298,15.08838589103185,0.2980872810493759,992,0,4.497655925681449,0.5076965417899507,11.28802536652531,0.137952873375109,0.015572155340432846,0.07421875,,
0.48938499999977647,1200,,,,0,0.03515625,-0.9921875,0.004887241957618685,0.0700381967425298,15.08836734900647,0.2936770056134728,1024,0,4.431106542652313,0.5241391036657835,11.82862787478929,0.1336252079890409,0.01580602859993686,0.07421875,,
0.4964099999992177,1200,,,,-0.0625,0.1171875,-1.0546875,0.004887241957618685,0.0700381967425298,15.088466662099036,0.2895384370443464,1036,0,4.368691054739881,0.5303388117173956,12.139535734439177,0.13206311737910562,0.016031849326250878,0.07421875,,
0.5034599999999627,1200,,,,-0.0625,0.078125,-0.99609375,0.004887241957618685,0.0700381967425298,15.088619565374902,0.2859429298368953,1042,0,4.314484085717601,0.5330445402377397,12.354768951455796,0.13139276637425557,0.01623327270446538,0.07421875,,
0.5110800000000745,1200,,,,-0.03125,0.009765625,-0.96484375,0.004887241957618685,0.0700381967425298,15.08876981294964,0.2818285326108948,1044,0,4.252445855287163,0.5342398436617232,12.563119245774537,0.13109878937984545,0.016470097239556787,0.07421875,,
0.5183499999996275,1200,,,,-0.0625,0.078125,-1.009765625,0.004887241957618685,0.0700381967425298,15.08882170934671,0.2764550998076712,1063,0,4.171381711637601,0.5441796599525053,13.045549354409747,0.1287041796980111,0.016790167283692245,0.07421875,,
0.5371599999992177,1200,,,,-0.03125,0.033203125,-1,0.027812244703139612,0.0700381967425298,15.089271331500585,0.26677071714622896,1077,0,4.025375734318445,3.1365151745428963,77.91856913635304,0.022329940346211427,0.017399170006769146,0.07421875,,
0.5452400000002235,1200,,,,-0.0625,0.068359375,-0.98046875,0.027812244703139612,0.0700381967425298,15.089695265270656,0.26288933146906474,1078,0,3.9669199003589144,3.139754563041572,79.14842351007634,0.022306901809127956,0.017655561115865477,0.07421875,,
0.553339999999851,1200,,,,-0.0625,0.04296875,-0.96875,0.027812244703139612,0.0700381967425298,15.090006194555931,0.25689483310394406,1078,0,3.876544622887928,3.1410517868990944,81.02710254781202,0.022297689275499924,0.018067171555051807,0.07421875,,
0.560910000000149,1200,,,,-0.03125,0.017578125,-0.98828125,0.027812244703139612,0.0700381967425298,15.090199716219441,0.25224221634997285,1086,0,3.8063854215829234,3.1623421787245105,83.07992566368696,0.022147570624624437,0.01840018521125055,0.07421875,,
0.5680599999995902,1200,,,,-0.0625,0.08984375,-0.96875,0.027812244703139612,0.0700381967425298,15.090395995397529,0.2490861382754109,1089,0,3.7588084635402956,3.170366343125801,84.34498256236603,0.022091515352599955,0.018633084771912844,0.07421875,,
0.5754199999999255,1200,,,,-0.03125,0.048828125,-0.984375,0.027812244703139612,0.0700381967425298,15.09029307090751,0.24501875500600281,1090,0,3.697404820909469,3.173778095841803,85.83799312137893,0.022067767382443006,0.01894252864778333,0.07421875,,
0.5864749999996275,1200,,,,-0.0625,0.0625,-0.966796875,0.027812244703139612,0.0700381967425298,15.09037611671834,0.24060982942271478,1090,0,3.630892823368209,3.175377557271881,87.45445574254744,0.022056651682927107,0.019289524684333332,0.07421875,,
0.5945250000003726,1200,,,,-0.03125,0.005859375,-0.947265625,0.027812244703139612,0.0700381967425298,15.090694876199466,0.2364593788346908,1092,0,3.5683363366099767,3.1815295884725456,89.16002552312912,0.022014001377291977,0.019627689246655526,0.07421875,,
0.6026499999994412,1200,,,,0,0.0703125,-0.9765625,0.027812244703139612,0.0700381967425298,15.09082021506851,0.23297214171298572,1094,0,3.5157407057101304,3.187583231816301,90.66605016232144,0.021972193868839526,0.019921320314884562,0.072265625,,
0.6095649999994784,1200,,,,-0.0625,0.080078125,-1.01171875,0.027812244703139612,0.0700381967425298,15.090972495084554,0.22982916387328678,1095,0,3.4683455905800513,3.1900458559523037,91.97600909829737,0.021955231963780582,0.020193546148559123,0.07421875,,
0.6174749999996275,1200,,,,-0.0625,0.0234375,-0.935546875,0.027812244703139612,0.0700381967425298,15.091119656111356,0.22552833682441362,1096,0,3.403475116861011,3.191043521104059,93.7583913951786,0.02194836776099422,0.020578436550206157,0.07421875,,
0.6246349999997765,1200,,,,0,0.015625,-1.0078125,0.027812244703139612,0.19586977888178927,15.091158127860432,0.2221368192584449,1096,0,3.352301865449144,3.1914171095672,95.20076764147883,0.06137392016061226,0.05842844312457121,0.07421875,,
0.6324000000003726,1200,,,,-0.0625,0.078125,-0.97265625,0.027812244703139612,0.19586977888178927,15.091195046735844,0.21973773051280304,1097,0,3.316104950295789,3.1939983923112094,96.31777160811247,0.06132431980970909,0.05906621829454407,0.07421875,,
0.6410099999997765,1200,,,,0,0.01953125,-0.98046875,0.027812244703139612,0.19586977888178927,15.091234668514971,0.21694800444754503,1098,0,3.274013245983932,3.197766845152165,97.67116394763232,0.06125205131159863,0.05982559145783937,0.07421875,,
0.6493300000000745,1200,,,,-0.03125,0.017578125,-0.9921875,0.027812244703139612,0.19586977888178927,15.091493663065444,0.21354610011699351,1098,0,3.2227296166879467,3.19932733238039,99.27383655810358,0.06122217533023,0.060777602274648145,0.07421875,,
0.6573250000001862,1200,,,,-0.0625,0.056640625,-0.94921875,0.027812244703139612,0.19586977888178927,15.091518557573812,0.2103215237676171,1099,0,3.174071178996195,3.199863166608671,100.81258378145863,0.06121192334901591,0.0617093215104689,0.07421875,,
0.6655300000002607,1200,,,,0,-0.04296875,-0.95703125,0.027812244703139612,0.19586977888178927,15.091476398553265,0.2084081871898294,1099,0,3.1451872382405814,3.2000755273510855,101.74515171761946,0.061207861254425976,0.06227603129642574,0.07421875,,
0.6736550000002608,1200,,,,-0.03125,0.021484375,-1,0.027812244703139612,0.19586977888178927,15.091567177539208,0.20640154642729622,1099,0,3.1149228034555185,3.200819367203378,102.75758242395511,0.061193637132021216,0.06288110211415271,0.07421875,,
0.6823999999994412,1200,,,,-0.0625,0.109375,-0.98828125,0.018005453161977304,0.19586977888178927,15.091811654794276,0.2028130433184269,1099,0,3.0608162508973313,2.072618435340723,67.71456583625688,0.09450353984214646,0.06399266170400351,0.07421875,,
0.690910000000149,1200,,,,-0.0625,-0.00390625,-0.953125,0.018005453161977304,0.19586977888178927,15.091886824630024,0.19913447447833268,1099,0,3.0053149517091726,2.072763921550552,68.96994008470682,0.09449690668837332,0.06517445992487239,0.07421875,,
0.6993499999996274,1200,,,,-0.03125,0.021484375,-1,0.018005453161977304,0.19586977888178927,15.092219781862214,0.1952791289996395,1099,0,2.9471955336731823,2.0728238555659395,70.33207779676954,0.09449417438719668,0.06645971624341823,0.07421875,,
0.7066199999991805,1200,,,,-0.0625,0.08203125,-0.970703125,0.018005453161977304,0.19586977888178927,15.092337966996588,0.19393108986819665,1099,0,2.926873550598812,2.072844230997812,70.82110638410487,0.09449324553804161,0.06692116194828987,0.07421875,,
0.7136900000004098,1200,,,,-0.0625,0.0234375,-0.92578125,0.018005453161977304,0.19586977888178927,15.092496315388575,0.19278266266256536,1099,0,2.909571625905566,2.072731731865401,71.23838139644664,0.09449837423269046,0.06731911224932549,0.07421875,,
0.7217050000000745,1200,,,,0,0.041015625,-1.021484375,0.018005453161977304,0.19586977888178927,15.092296406257379,0.19223192513903803,1099,0,2.901221192943841,2.0726819674772505,71.4417078062952,0.09450064310647267,0.06751287332319605,0.07421875,,
0.7301550000002608,1200,,,,-0.125,0.09375,-0.98046875,0.018005453161977304,0.19586977888178927,15.092500341853818,0.1913409173428751,1099,0,2.887812860407965,2.072658199583648,71.77259399318697,0.09450172677826728,0.06782634067711663,0.07421875,,
0.7395049999998883,1200,,,,0,-0.001953125,-0.9296875,0.018005453161977304,0.19586977888178927,15.092423868047065,0.1905210376882533,1099,0,2.8754242565712884,2.0726508786962534,72.08156757944731,0.09450206057133752,0.06811856665469887,0.07421875,,
0.7484350000005215,1200,,,,-0.03125,0.060546875,-1.0078125,0.018005453161977304,0.19586977888178927,15.092846302896675,0.18777970095495813,1099,0,2.834130165317083,2.072646719659072,73.1316699925525,0.0945022502021028,0.06911107375333811,0.07421875,,
0.7575699999993667,1200,,,,-0.0625,0.078125,-0.98046875,0.018005453161977304,0.19586977888178927,15.092873351702481,0.18568553986112338,1099,0,2.802528336366438,2.0726455855533032,73.95627579061521,0.09450230191164152,0.06989038303025344,0.076171875,,
0.7652549999998882,1200,,,,-0.03125,0.01953125,-0.94921875,0.018005453161977304,0.19586977888178927,15.093024015440523,0.18448937365113904,1099,0,2.784502547110222,2.072645210607575,74.43502656367049,0.09450231900729987,0.07034282625636828,0.076171875,,
0.7733699999991804,1200,,,,-0.0625,0.0234375,-0.97265625,0.018005453161977304,0.25104338860051534,15.09303932953594,0.18343038657097843,1099,0,2.7685220387477587,2.0726450584454406,74.8646761498394,0.12112222861197808,0.09067776419582549,0.076171875,,
0.7817050000000745,1200,,,,-0.03125,0.064453125,-0.990234375,0.018005453161977304,0.25104338860051534,15.092988373974302,0.18296160629937258,1099,0,2.761437396760094,2.0726449989363256,75.05674404815744,0.12112223208960045,0.09091040372490662,0.076171875,,
0.7896849999995902,1200,,,,-0.0625,0.03125,-0.90625,0.018005453161977304,0.25104338860051534,15.093005282548319,0.18198692830387794,1100,0,2.746729670245172,2.073588810310883,75.49300656608828,0.12106710228768915,0.09139719547941799,0.076171875,,
0.7975199999995529,1200,,,,-0.03125,0.0390625,-1.01171875,0.018005453161977304,0.25104338860051534,15.093022912301588,0.17910798472207964,1100,0,2.703280917186511,2.0744749659992046,76.7391562160788,0.1210153859242144,0.09286618604987354,0.076171875,,
0.8054599999999628,1200,,,,-0.03125,0.0703125,-0.9375,0.018005453161977304,0.25104338860051534,15.093154241859043,0.1774427806986721,1100,0,2.6781712581894266,2.074767115075278,77.46954600946322,0.12099834568247762,0.09373686907917636,0.076171875,,
0.8132649999996647,1200,,,,-0.125,0.04296875,-0.91796875,0.018005453161977304,0.25104338860051534,15.093195612537283,0.17631213524864575,1100,0,2.66111354617194,2.074899973054149,77.97111761874763,0.12099059803398234,0.0943377215007025,0.076171875,,
0.8203799999998882,1200,,,,-0.03125,0.029296875,-0.978515625,0.018005453161977304,0.25104338860051534,15.093143384712198,0.1751630037308836,1100,0,2.6437603310071034,2.074949234239999,78.48477072237394,0.12098772560691881,0.09495693904480512,0.076171875,,
0.8286900000004098,1200,,,,-0.03125,0.060546875,-0.97265625,0.018005453161977304,0.25104338860051534,15.093283087682215,0.17414582567773657,1101,0,2.6284322454922364,2.07522967142182,78.95313546624003,0.12097137587114191,0.09551069426691706,0.076171875,,
0.837519999999553,1200,,,,-0.0625,0.015625,-0.98828125,0.012386912291755908,0.25104338860051534,15.093431654101469,0.17282614106920663,1101,0,2.608539548270169,1.427929722136411,54.74058168231838,0.17580934461180225,0.09623905789237223,0.076171875,,
0.8454899999992922,1200,,,,-0.0625,0.06640625,-1.005859375,0.012386912291755908,0.25104338860051534,15.093361446103215,0.17255809365773186,1101,0,2.6044816780266777,1.4280212309117977,54.82938286568244,0.17579807860435173,0.09638900158849337,0.076171875,,
0.8545249999994412,1200,,,,-0.0625,0.13671875,-0.96484375,0.012386912291755908,0.25104338860051534,15.09336009513862,0.17101051093648903,1101,0,2.58112322161807,1.4280574974854001,55.32697879453313,0.17579361408246233,0.09726129558554733,0.078125,,
0.862769999999553,1200,,,,-0.03125,0.02734375,-0.953125,0.012386912291755908,0.25104338860051534,15.09304075068587,0.16975841763464225,1101,0,2.562170715131606,1.4280730286930094,55.73684143133516,0.17579170221446824,0.0979807423127231,0.076171875,,
0.8700049999998882,1200,,,,-0.03125,0.025390625,-0.99609375,0.012386912291755908,0.25104338860051534,15.093169338286913,0.17078586240475094,1101,0,2.5776999418602746,1.4282436881059262,55.407678175109524,0.1757706970394093,0.09739046214174266,0.076171875,,
0.8786299999998882,1200,,,,-0.0625,0.0703125,-0.9609375,0.012386912291755908,0.25104338860051534,15.09324357192149,0.16997177064725597,1101,0,2.56542533472981,1.4283232857554007,55.675886038048795,0.17576090168392472,0.09785643932098892,0.076171875,,
0.8867799999993294,1200,,,,0,0,-0.974609375,0.012386912291755908,0.25104338860051534,15.093379446447454,0.1698434136957873,1101,0,2.563511089390468,1.4283543493226705,55.718672536044835,0.17575707927067313,0.09792951145774309,0.076171875,,
0.8969349999995903,1200,,,,-0.0625,0.02734375,-1.00390625,0.012386912291755908,0.25104338860051534,15.093377235440038,0.16929825260675951,1101,0,2.5552823918946412,1.4283665100164697,55.89857757198382,0.17575558292641616,0.09824487085921511,0.076171875,,
0.904589999999851,1200,,,,-0.03125,0.07421875,-0.98046875,0.012386912291755908,0.25104338860051534,15.092962794737183,0.1681067105147871,1101,0,2.5372283273453355,1.4284464107217014,56.29948220766807,0.17574575196956768,0.09894394836083921,0.076171875,,
0.9132849999992176,1200,,,,-0.0625,0.02734375,-0.96875,0.012386912291755908,0.25104338860051534,15.09312670670049,0.16736425550722664,1101,0,2.526049914543167,1.4286808213994846,56.55790145611037,0.1757169165010574,0.09938180047638377,0.076171875,,
0.9203250000001862,1200,,,,-0.03125,0.017578125,-1.00390625,0.012386912291755908,0.2759896892648586,15.09325216431632,0.16764858443176492,1101,0,2.530362359819303,1.4287569072047044,56.46451788457421,0.19316770254837787,0.10907121195264993,0.076171875,,
0.9295049999998882,1200,,,,-0.03125,0.0625,-0.970703125,0.012386912291755908,0.2759896892648586,15.093385317262578,0.16637334937407602,1101,0,2.5111370686264762,1.4287917904153933,56.89819995357337,0.19316298645908372,0.10990626227178332,0.076171875,,
0.9369599999999627,1200,,,,-0.03125,0.052734375,-0.98046875,0.012386912291755908,0.2759896892648586,15.093309461042534,0.16523945484823385,1101,0,2.4940102271983586,1.428806590221381,57.2895241021697,0.19316098564613737,0.11066100942773241,0.076171875,,
0.9454400000004097,1200,,,,-0.0625,-0.01171875,-0.9609375,0.012386912291755908,0.2759896892648586,15.09344200811093,0.16491671698640467,1102,0,2.4891609040023415,1.4293470495106402,57.42284667947266,0.19308794834630827,0.11087659653543996,0.076171875,,
0.9535099999997765,1200,,,,-0.0625,0.0703125,-0.966796875,0.012386912291755908,0.2759896892648586,15.093273415159985,0.16535565035166416,1102,0,2.4957580414992626,1.4300932559614619,57.30095755205381,0.19298719724351737,0.11058351197340625,0.076171875,,
0.961785000000149,1200,,,,-0.0625,0.05078125,-0.9921875,0.012386912291755908,0.2759896892648586,15.093341953592624,0.1646014892836922,1103,0,2.484386563829378,1.430388058536944,57.57510040354492,0.19294742263658965,0.11108967230906863,0.076171875,,
0.9688849999997765,1200,,,,0,0.009765625,-1.021484375,0.012386912291755908,0.2759896892648586,15.093406292712755,0.16368357381125775,1103,0,2.4705426829765504,1.430503485085927,57.9023991345267,0.19293185381389025,0.11171217205296033,0.076171875,,
0.9758149999994784,1200,,,,-0.125,0.01171875,-0.94921875,0.012386912291755908,0.2759896892648586,15.09334591656034,0.16384183052434803,1103,0,2.4729214237064396,1.430546434521801,57.84843872546842,0.1929260614019255,0.11160471441555248,0.076171875,,
0.9827299999995157,1200,,,,0,0.03515625,-0.9765625,0.009127332717154005,0.2759896892648586,15.093201772965546,0.16539721877753477,1103,0,2.496373595696658,1.0543607067350906,42.23569375003153,0.2617602187770085,0.11055624436206983,0.076171875,,
0.9898499999996274,1200,,,,-0.125,0.12109375,-0.8984375,0.009127332717154005,0.2759896892648586,15.09306422425737,0.16660066144205257,1103,0,2.514514482948658,1.0544734716418482,41.93547019881606,0.2617322262599305,0.10975863974393098,0.078125,,
0.9969549999991432,1200,,,,-0.03125,0.0390625,-1.00390625,0.009127332717154005,0.2759896892648586,15.09301838437236,0.16887914999644982,1103,0,2.5488961156335947,1.054522860484598,41.371747322957056,0.2617199679654452,0.10827812384038814,0.078125,,
1.004574999999255,1200,,,,-0.125,0.09765625,-0.96484375,0.009127332717154005,0.2759896892648586,15.09314919742612,0.16795675747537814,1103,0,2.534996399291797,1.0545446190105912,41.59945234262265,0.2617145678708231,0.10887182693512386,0.078125,,
1.0125999999996276,1200,,,,0.03125,-0.01953125,-0.923828125,0.009127332717154005,0.2759896892648586,15.093191090384527,0.1660050041588768,1103,0,2.505545249730006,1.0545546152588026,42.088827386870776,0.261712087047409,0.11015154856796096,0.078125,,
1.0207849999992178,1200,,,,-0.0625,0.09375,-1.0546875,0.009127332717154005,0.2759896892648586,15.0930014440924,0.16415157085144258,1103,0,2.4775398959108585,1.0545585444486223,42.564745221223475,0.2617111119318276,0.11139666800941343,0.078125,,
1.0296699999999255,1200,,,,-0.03125,-0.00390625,-0.955078125,0.009127332717154005,0.2759896892648586,15.093310507293616,0.16266965182634355,1109,0,2.455223565128345,1.0598774102307633,43.168264808315286,0.2603977465703023,0.11240918879435383,0.078125,,
1.0387099999990315,1200,,,,-0.03125,0.0859375,-1.021484375,0.009127332717154005,0.2759896892648586,15.093679262828667,0.16077669526157032,1111,0,2.426711871215688,1.0618054394443537,43.75490358121628,0.25992491563170456,0.1137298962182101,0.078125,,
1.0482749999994412,1200,,,,-0.03125,0.021484375,-0.931640625,0.009127332717154005,0.2759896892648586,15.093597104432781,0.15918611436769473,1112,0,2.4026910748861425,1.0624551057305351,44.21938037876477,0.259765977664619,0.11486690575813502,0.078125,,
1.0564549999991433,1200,,,,-0.0625,0.04296875,-1.01171875,0.009127332717154005,0.2759896892648586,15.093580882018616,0.15861966919639936,1112,0,2.3941388064948903,1.0627422457202456,44.389332934130934,0.259695792066508,0.1152772297563306,0.078125,,
1.064664999999106,1200,,,,-0.0625,0.08203125,-0.9453125,0.009127332717154005,0.2759896892648586,15.093762989511438,0.1586229179742418,1111,0,2.3942167286079195,1.061565624954086,44.338743952027976,0.25998363433894683,0.1152734779467223,0.078125,,
1.0736399999996646,1200,,,,-0.03125,0.07421875,-0.990234375,0.009127332717154005,0.29231873036343337,15.09388704614235,0.15910769915961023,1110,0,2.401553639286755,1.0610643920566523,44.182414862562936,0.27549574988265735,0.12172067514188442,0.078125,,
1.0807599999997766,1200,,,,-0.0625,0.05078125,-0.94921875,0.009127332717154005,0.29231873036343337,15.093920496923372,0.15816059412641872,1110,0,2.3872634334903298,1.0609090187645054,44.44038323886985,0.27553609705746185,0.12244929749376043,0.078125,,
1.0888899999996646,1200,,,,-0.03125,0.017578125,-0.974609375,0.009127332717154005,0.29231873036343337,15.093924450405357,0.15669013628883977,1110,0,2.365069079267466,1.0608353616167558,44.854307678206546,0.2755552283984273,0.12359838996921535,0.078125,,
1.0967299999995157,1200,,,,-0.0625,0.080078125,-1.005859375,0.009127332717154005,0.29231873036343337,15.094089984565562,0.15573375624092184,1110,0,2.350659330334873,1.0608065971727354,45.12804486312415,0.27556270025329976,0.12435605899634546,0.078125,,
1.1060999999996275,1200,,,,-0.0625,0.05078125,-0.96875,0.009127332717154005,0.29231873036343337,15.093974736447006,0.15613592515721403,1107,0,2.356711709774769,1.0584021831230261,44.91012535530609,0.2761887069250829,0.12403669449725367,0.078125,,
1.1139649999998509,1200,,,,-0.0625,0.02734375,-1.01953125,0.009127332717154005,0.29231873036343337,15.093940118427783,0.1560391544176069,1106,0,2.3552456529094647,1.057550949923685,44.90193830173421,0.2764110139417185,0.12411390293930842,0.078125,,
1.12175,1200,,,,-0.03125,0.0703125,-0.97265625,0.009127332717154005,0.29231873036343337,15.093855875778122,0.1562484460404613,1106,0,2.3583915253490173,1.0572757215696396,44.83037316771115,0.27648296882241347,0.12394834666825444,0.078125,,
1.129429999999702,1200,,,,-0.0625,0.041015625,-1.009765625,0.009127332717154005,0.29231873036343337,15.093863027346746,0.15808199294582226,1106,0,2.3860679486142358,1.0571475967633044,44.305008052149866,0.2765164781705346,0.12251064791897659,0.078125,,
1.1367649999996647,1200,,,,-0.0625,-0.01171875,-0.9609375,0.007709890055616125,0.29231873036343337,15.093698230731768,0.16125333034443234,1106,0,2.433909106919364,0.8928081664399716,36.68206688170096,0.327414937890902,0.1201025664978203,0.078125,,
1.1498300000000745,1200,,,,-0.03125,0.076171875,-0.970703125,0.007709890055616125,0.29231873036343337,15.0937229900045,0.16335249794551196,1105,0,2.465597353714837,0.8925357660642671,36.199575113897325,0.3275148643649816,0.11855898933498046,0.078125,,
1.1652350000003353,1200,,,,-0.03125,0.021484375,-1.009765625,0.007709890055616125,0.29231873036343337,15.093768980553284,0.16062571538370288,1105,0,2.424447440337715,0.8924599748493114,36.81086089971064,0.327542678216791,0.12057127966556976,0.078125,,
1.1718600000003352,1200,,,,-0.0625,0.0703125,-0.9765625,0.007709890055616125,0.29231873036343337,15.093860696696956,0.16018927919005924,1105,0,2.417874665199051,0.8924521772180299,36.91060541984541,0.32754554005869,0.12089904186136477,0.078125,,
1.1788449999997392,1200,,,,-0.0625,0.1171875,-0.95703125,0.007709890055616125,0.29231873036343337,15.093781021909598,0.16049679565437117,1109,0,2.4225034883252503,0.895151755352045,36.951515639339306,0.32655773573104413,0.12066803279012907,0.078125,,
1.1859000000003725,1200,,,,-0.03125,0.021484375,-0.986328125,0.007709890055616125,0.29231873036343337,15.094045415169186,0.1602353329035699,1110,0,2.418599391961237,0.8963299485219925,37.05987653437556,0.32612848744533607,0.12086281479066806,0.078125,,
1.192859999999404,1200,,,,-0.03125,0.03515625,-0.9765625,0.007709890055616125,0.29231873036343337,15.0939565981215,0.1582811599367272,1111,0,2.3890889583852877,0.8968560710649677,37.53966832909919,0.32593717073947087,0.1223557328568471,0.078125,,
1.2026200000001117,1200,,,,-0.0625,0.06640625,-1.0390625,0.007709890055616125,0.29231873036343337,15.094245960837872,0.15778137905682252,1111,0,2.3815909435238725,0.8970970837273965,37.66797510575116,0.325849604982398,0.12274094808695817,0.078125,,
1.2195499999998138,1200,,,,-0.0625,0.037109375,-0.96484375,0.007709890055616125,0.29231873036343337,15.094192295455645,0.15589376862814947,1109,0,2.3530905213365587,0.89549018012641,38.05591718663548,0.32643432262112443,0.12422757548544963,0.076171875,,
1.2291100000003352,1200,,,,-0.0625,0.01953125,-0.94140625,0.007709890055616125,0.30057964542307714,15.09407707049194,0.1555841418978504,1108,0,2.348399028752508,0.8947958252342092,38.10237588581926,0.33591981203578103,0.1279934294568108,0.076171875,,
1.2380149999996648,1200,,,,-0.03125,0.056640625,-0.962890625,0.007709890055616125,0.30057964542307714,15.093820141792799,0.1552820127848357,1108,0,2.34379877222988,0.8945330642938072,38.165949862784174,0.3360184854210738,0.1282446466754938,0.076171875,,
1.270054999999702,1200,,,,-0.041015625,0.0625,-1.00390625,0.007709890055616125,0.30057964542307714,15.093859923434561,0.15543503550902404,1105,0,2.346114653167286,0.8925467962771941,38.04361372843582,0.3367662588413207,0.12811805468129642,0.076171875,,
1.2777549999998883,1200,,,,-0.041015625,0.029296875,-0.99609375,0.007709890055616125,0.30057964542307714,15.093958317714561,0.155285349151346,1105,0,2.343870587442169,0.891950383976184,38.05459178313919,0.33699144125387015,0.1282407173132776,0.076171875,,
1.2853999999994412,1200,,,,-0.03125,0.052734375,-0.958984375,0.007052440446817079,0.30057964542307714,15.093960379123502,0.15587138294553476,1104,0,2.3527164784190884,0.8156570146517633,34.66873387140321,0.3685123036076709,0.12775854982112086,0.076171875,,
1.2937899999991058,1200,,,,-0.03125,0.01953125,-0.95703125,0.007052440446817079,0.30057964542307714,15.09406031908064,0.15452025665763447,1104,0,2.3323380745101567,0.8151567436247481,34.950196651741805,0.3687384638278193,0.12887481823843466,0.076171875,,
1.3032949999989942,1200,,,,-0.0625,-0.01171875,-0.94921875,0.007052440446817079,0.30057964542307714,15.0938494837833,0.15370026136870069,1103,0,2.319928610717321,0.8147076668888884,35.11779039773905,0.36894171693620603,0.12956417884347657,0.076171875,,
1.310910000000149,1200,,,,-0.03125,0.064453125,-0.990234375,0.007052440446817079,0.30057964542307714,15.093770860088346,0.15391223926346154,1103,0,2.323116072005781,0.8145888606183642,35.06449249068503,0.36899552639954286,0.1293864086453314,0.076171875,,
1.3186449999995529,1200,,,,-0.03125,0.0546875,-0.984375,0.007052440446817079,0.30057964542307714,15.093977916208154,0.1532964540424117,1103,0,2.3138532919491803,0.8145321201789079,35.20240989404948,0.3690212306876939,0.1299043662227479,0.076171875,,
1.3260999999996275,1200,,,,-0.0625,-0.00390625,-1.0078125,0.007052440446817079,0.30057964542307714,15.094007559672377,0.1535280286791703,1103,0,2.317353225504994,0.814511275337315,35.148343652263804,0.3690306746196945,0.12970816969759769,0.076171875,,
1.3340599999995901,1200,,,,-0.0625,0.103515625,-0.98828125,0.007052440446817079,0.30057964542307714,15.094007228356283,0.15164900001982892,1102,0,2.2889911024722998,0.8140280418223869,35.562743819456934,0.36924974322771636,0.13131534023807528,0.076171875,,
1.3434399999994784,1200,,,,-0.03125,0.0625,-1.013671875,0.007052440446817079,0.30057964542307714,15.093897615598703,0.15013798848400892,1102,0,2.2661674263895675,0.8135771354166149,35.90101622424239,0.3694543914009541,0.13263788099803253,0.076171875,,
1.3565499999998136,1200,,,,-0.09375,0.009765625,-0.978515625,0.007052440446817079,0.30057964542307714,15.09379365085009,0.15060659973789509,1101,0,2.2732249388999617,0.8134143529971114,35.782396149090786,0.36952832749454145,0.1322260900272064,0.076171875,,
1.3734999999990687,1200,,,,-0.0625,0.078125,-0.97265625,0.007052440446817079,0.30378505920198906,15.093714947629458,0.15076691088947455,1101,0,2.2756327765003808,0.8132796487958186,35.73861552682213,0.37353087545199,0.1334947634517595,0.076171875,,
1.3820299999993295,1200,,,,-0.03125,0.033203125,-0.966796875,0.007052440446817079,0.30378505920198906,15.093694607459978,0.15142222192347934,1101,0,2.285520774496028,0.8132542096808898,35.5828841617166,0.37354255973810496,0.1329172163263209,0.076171875,,
1.3899950000001118,1200,,,,-0.0625,0.0390625,-0.91015625,0.007052440446817079,0.30378505920198906,15.093611145295766,0.15178000824349494,1101,0,2.2909084240570983,0.8132452601766095,35.49881137266883,0.373546670454639,0.13260462793357713,0.076171875,,
1.3987349999994039,1200,,,,0,0.03125,-1.009765625,0.007052440446817079,0.30378505920198906,15.093815936363079,0.15168245197922248,1101,0,2.2894670109506157,0.8132415397433594,35.520998374450976,0.3735483793632292,0.1326881137614006,0.076171875,,
1.4071549999993294,1200,,,,-0.03125,0.0390625,-0.94921875,0.007052440446817079,0.30378505920198906,15.093726382976126,0.1524563591644696,1101,0,2.3011345705732387,0.8132402781030892,35.340839623321195,0.37354895887667805,0.13201533847119284,0.076171875,,
1.415859999999404,1200,,,,-0.03125,0.06640625,-0.986328125,0.007052440446817079,0.30378505920198906,15.093704931145684,0.15113458905995575,1101,0,2.2811808921609305,0.8128654290291564,35.63353663983834,0.3737212192242127,0.13317008758311044,0.076171875,,
1.4239349999995903,1200,,,,-0.0625,0.01953125,-0.94921875,0.007052440446817079,0.30378505920198906,15.093686705055331,0.15086589431074024,1100,0,2.2771225432043027,0.8127377622915288,35.691437191951344,0.3737799242223735,0.13340742688995177,0.076171875,,
1.4317000000001863,1200,,,,-0.03125,0.056640625,-0.955078125,0.007052440446817079,0.30378505920198906,15.09370197865065,0.15230140182407945,1100,0,2.2987919700633754,0.812687750974792,35.352818417596396,0.37380292595478276,0.13214986965245665,0.07421875,,
1.4399349999995903,1200,,,,-0.0625,-0.02734375,-0.95703125,0.006913343635720655,0.30378505920198906,15.093618509103734,0.1528277324106892,1100,0,2.306723490618331,0.7966393705379572,34.5355381248757,0.38133322358503086,0.13169548081402582,0.07421875,,
1.447785000000149,1200,,,,-0.0625,0.060546875,-0.984375,0.006913343635720655,0.30378505920198906,15.093637384083753,0.1516170000178014,1100,0,2.2884520195313143,0.7966481988922617,34.811662735031646,0.38132899769861006,0.13274696458971671,0.076171875,,
1.4562900000000372,1200,,,,-0.03125,0.0703125,-0.96875,0.006913343635720655,0.30378505920198906,15.093655338029459,0.15110889733166472,1100,0,2.2807856148338264,0.7966848010308984,34.93027998113463,0.3813114782770999,0.13319316696239436,0.076171875,,
1.463824999999255,1200,,,,-0.03125,0.009765625,-0.962890625,0.006913343635720655,0.30378505920198906,15.093575293000862,0.15042593540656077,1100,0,2.2704651820790094,0.7966990038550943,35.08968162751461,0.38130468060336914,0.13379859845453368,0.076171875,,
1.471609999999404,1200,,,,-0.0625,0.04296875,-1.03125,0.006913343635720655,0.30378505920198906,15.09369576067878,0.1512674019280244,1100,0,2.2831841432099154,0.7967047524476668,34.894458899297724,0.38130192931407647,0.1330532450067297,0.076171875,,
1.4791899999994784,1200,,,,-0.03125,0.078125,-0.951171875,0.006913343635720655,0.30378505920198906,15.093520259783517,0.15141371129831752,1100,0,2.285365919090168,0.7967069443139103,34.86124202950786,0.38130088029243386,0.13292622273938942,0.076171875,,
1.4872900000000373,1200,,,,-0.0625,-0.03515625,-0.8984375,0.006913343635720655,0.30378505920198906,15.093511112560144,0.15091775308994196,1101,0,2.277878783345647,0.7968816211707292,34.983495478205604,0.3812172989454655,0.13336313653872447,0.076171875,,
1.4950849999999627,1200,,,,-0.03125,0.046875,-1.001953125,0.006913343635720655,0.30378505920198906,15.09362262880991,0.15165458265366658,1101,0,2.289017040504105,0.797112018331742,34.82333264571049,0.38110711194365643,0.1327141973285997,0.076171875,,
1.5054049999993295,1200,,,,-0.0625,0.06640625,-0.94921875,0.006913343635720655,0.30378505920198906,15.09364080340243,0.15209681336647013,1101,0,2.2956946682956376,0.7972136680815558,34.72646772636453,0.38105851839322896,0.13232816340838752,0.076171875,,
1.5213499999996274,1200,,,,-0.0625,0.0390625,-0.966796875,0.006913343635720655,0.30517565839904043,15.093402170587769,0.15342000418896096,1101,0,2.3156298242372477,0.7972727389893589,34.43006004865112,0.3827744803941096,0.1317894834506043,0.076171875,,
1.5291849999995901,1200,,,,-0.03125,0.09375,-1.015625,0.006913343635720655,0.30517565839904043,15.093761514583466,0.15382501698990517,1101,0,2.3217981214223786,0.7973482538859927,34.341842493934045,0.3827382287623036,0.13143935968562329,0.076171875,,
1.5360149999996646,1200,,,,-0.0625,0.03125,-0.90234375,0.006913343635720655,0.30517565839904043,15.09380025783835,0.15347644094177942,1101,0,2.3165427438591424,0.7974028165440551,34.422106764827355,0.38271203972124423,0.1317375469146952,0.076171875,,
1.5435649999994785,1200,,,,-0.03125,0.02734375,-1.009765625,0.006913343635720655,0.30517565839904043,15.093809115206922,0.15351486010460538,1101,0,2.3171239947666082,0.7974272425698224,34.414526126822274,0.3827003168534456,0.13170450053096067,0.076171875,,
1.550589999999851,1200,,,,-0.0625,0.08203125,-0.94140625,0.006913343635720655,0.30517565839904043,15.09381740295383,0.15411373333910858,1101,0,2.326164550308023,0.7974375946660657,34.281220327275285,0.38269534875244443,0.13119263568806003,0.076171875,,
1.558109999999404,1200,,,,0,0.0234375,-0.9765625,0.006913343635720655,0.30517565839904043,15.094138508985377,0.15356778294323548,1101,0,2.3179733862629983,0.7974420654015784,34.402554840683585,0.3826932032302047,0.13165623911283988,0.076171875,,
1.5658449999997393,1200,,,,-0.03125,0.044921875,-0.99609375,0.006913343635720655,0.30517565839904043,15.09422989037406,0.1523280545121208,1101,0,2.299274673559383,0.7973200787812124,34.67702610523362,0.3827517536815748,0.1327269255423992,0.076171875,,
1.573984999999404,1200,,,,-0.0625,0.005859375,-0.955078125,0.006913343635720655,0.30517565839904043,15.09411937978101,0.15242818312270473,1101,0,2.300769192897226,0.7971469338265921,34.64697529363173,0.3828348895906649,0.13264070961188,0.076171875,,
1.5820849999999627,1200,,,,0,0.05859375,-0.97265625,0.006769004645114871,0.30517565839904043,15.094081435051901,0.15168234876650358,1101,0,2.289505724541549,0.7804385538476248,34.08764369889924,0.39103098750631926,0.1332932497734413,0.07421875,,
1.5912999999998136,1200,,,,-0.03125,0.048828125,-0.98046875,0.006769004645114871,0.30517565839904043,15.094188064733915,0.15219233725042003,1101,0,2.297219760469249,0.7804105185226808,33.97195740486177,0.3910450348321019,0.13284565266698853,0.07421875,,
1.5994199999999255,1200,,,,-0.0625,0.01953125,-0.9765625,0.006769004645114871,0.30517565839904043,15.09428597357007,0.15230868762606628,1101,0,2.2989908872869975,0.7804007029376261,33.9453586898974,0.3910499532487373,0.13274330928695996,0.07421875,,
1.608129999998957,1200,,,,0,0.05859375,-0.96484375,0.006769004645114871,0.30517565839904043,15.094304785372875,0.15262224271079425,1101,0,2.303726648503882,0.7805432209414402,33.881763769514556,0.3909785521306014,0.1324704294223587,0.07421875,,
1.616054999999702,1200,,,,-0.03125,0.05859375,-1.01171875,0.006769004645114871,0.30517565839904043,15.094251465565538,0.15223988095667507,1101,0,2.2979470462478155,0.7806025974115817,33.9695642110719,0.3909488123803066,0.13280360785395123,0.07421875,,
1.6240449999999256,1200,,,,-0.09375,0.048828125,-0.99609375,0.006769004645114871,0.30517565839904043,15.094328086530568,0.15176179640127094,1101,0,2.2907423458820375,0.7806214589491823,34.07722655288884,0.39093936619401476,0.13322129350236214,0.07421875,,
1.6321299999998882,1200,,,,0,0.03515625,-0.91015625,0.006769004645114871,0.30517565839904043,15.094542699676037,0.151675010447831,1101,0,2.289464921678594,0.7806301623379677,34.09662034767599,0.3909350075393539,0.13329562532685202,0.076171875,,
1.6410800000000745,1200,,,,-0.03125,0.064453125,-1.0078125,0.006769004645114871,0.30517565839904043,15.094294499917682,0.15253287999327825,1101,0,2.3023762115391437,0.780633749533525,33.90556876070526,0.39093321110110985,0.1325481286983198,0.07421875,,
1.6491200000001118,1200,,,,-0.09375,0.076171875,-0.974609375,0.006769004645114871,0.30517565839904043,15.09411869043042,0.15241046848314369,1101,0,2.3005017009486757,0.7805384238451567,33.92905223774797,0.39098095503826374,0.1326561324745784,0.076171875,,
1.6607050000000745,1200,,,,0,0.001953125,-0.970703125,0.006769004645114871,0.30517565839904043,15.094210988181533,0.15250541069566245,1101,0,2.301948845879606,0.7805001939691819,33.90606161237012,0.391000105774593,0.1325727367683658,0.076171875,,
1.6751849999995903,1200,,,,-0.0625,0.1015625,-0.9765625,0.006769004645114871,0.30079060706826427,15.093989288016896,0.15302787272183416,1101,0,2.309801071631378,0.780478540674079,33.78985966626289,0.3853925398236821,0.1302235983706685,0.076171875,,
1.6832599999997764,1200,,,,-0.03125,0.01953125,-0.958984375,0.006769004645114871,0.30079060706826427,15.09408847242819,0.15245081206315272,1101,0,2.30110604497475,0.7806715300888177,33.92592583004509,0.3852972671285234,0.13071566507121354,0.076171875,,
1.6911299999998883,1200,,,,0,0.0703125,-1.01953125,0.006769004645114871,0.30079060706826427,15.09418088143851,0.15254247283702338,1102,0,2.3025036771039513,0.7808429826032101,33.91277896178392,0.38521266601573956,0.1306363199587127,0.076171875,,
1.6998199999993666,1200,,,,-0.09375,0.083984375,-0.96875,0.006769004645114871,0.30079060706826427,15.094207590609239,0.151214551537842,1102,0,2.2824638316330668,0.7809158864143794,34.213724467022395,0.3851767037924683,0.13178329614671414,0.076171875,,
1.7078549999995156,1200,,,,-0.03125,0.005859375,-0.9296875,0.006769004645114871,0.30079060706826427,15.094296117218649,0.1513690798473778,1102,0,2.2848097142072343,0.7809407616703733,34.179684934565245,0.3851644347836267,0.13164799028904264,0.076171875,,
1.7149449999993667,1200,,,,0,0.078125,-1.02734375,0.006769004645114871,0.30079060706826427,15.094369246191148,0.15131060490869733,1102,0,2.2839381413564204,0.780949788847848,34.19312347855645,0.38515998257970857,0.1316982284334663,0.076171875,,
1.722289999999106,1200,,,,-0.09375,0.05859375,-0.955078125,0.006769004645114871,0.30079060706826427,15.09435154052479,0.15083045271744885,1102,0,2.2766878763336758,0.7808898442259318,34.29938079537975,0.38518954919490245,0.1321176302623662,0.076171875,,
1.729375,1200,,,,0.0625,0.0078125,-0.96875,0.006769004645114871,0.30079060706826427,15.094336535881922,0.15125939783388834,1102,0,2.28316025511956,0.7808373259008103,34.199847520555274,0.38521545665258533,0.1317430988007949,0.076171875,,
1.736339999999851,1200,,,,-0.0625,0.0234375,-0.96484375,0.0066059362689919335,0.30079060706826427,15.094321810103487,0.15282157612836247,1102,0,2.306738049608732,0.7620037901992273,33.0338241192353,0.3947363660614103,0.1303965168993871,0.076171875,,
1.7445099999997764,1200,,,,-0.0625,0.0546875,-0.96484375,0.0066059362689919335,0.30079060706826427,15.094395904129732,0.15346352540093336,1102,0,2.3164392092451576,0.7619939211312245,32.89505367073848,0.39474147854319236,0.12985042122744972,0.076171875,,
1.7522199999997392,1200,,,,-0.03125,0.041015625,-0.955078125,0.0066059362689919335,0.30079060706826427,15.094180848847168,0.15382544948403332,1102,0,2.3218691536672034,0.7619894426574279,32.817932115335935,0.39474379857450664,0.12954675184568,0.076171875,,
1.7597599999997764,1200,,,,-0.0625,-0.03515625,-0.8984375,0.0066059362689919335,0.30079060706826427,15.094204569916087,0.1532172700508667,1101,0,2.3126928177918593,0.7617988065240867,32.93990454173011,0.394842581128084,0.13006076931369415,0.076171875,,
1.7672849999992177,1200,,,,-0.0625,0.080078125,-1.009765625,0.0066059362689919335,0.30079060706826427,15.09419555309727,0.15240290962324957,1101,0,2.3003993207143387,0.7616374762842384,33.108924586524765,0.3949262167819209,0.1307558232867415,0.076171875,,
1.7748899999996648,1200,,,,-0.0625,0.08203125,-1.0234375,0.0066059362689919335,0.30079060706826427,15.094154622407522,0.15249520203188346,1101,0,2.3017861586445227,0.761565688847366,33.08585751926831,0.394963443696515,0.13067704223462445,0.076171875,,
1.7830949999997392,1200,,,,-0.03125,-0.009765625,-0.9140625,0.0066059362689919335,0.30079060706826427,15.094246204839298,0.1529100195324451,1101,0,2.308061482009512,0.7615359370428085,32.99461227435665,0.394978874189828,0.13032174810455271,0.076171875,,
1.7913599999994039,1200,,,,-0.03125,0.0234375,-1.001953125,0.0066059362689919335,0.30079060706826427,15.09413584369729,0.15404752340964312,1101,0,2.3252142447302915,0.7615243692534888,32.75071838990132,0.3949848740403737,0.12936038377966924,0.076171875,,
1.799644999999553,1200,,,,-0.0625,0.14453125,-0.984375,0.0066059362689919335,0.30079060706826427,15.094096480823051,0.15193100918763772,1101,0,2.2932613111070173,0.7615198141233265,33.206848710831,0.3949872366939514,0.13116281411605238,0.076171875,,
1.80875,1200,,,,-0.03125,0.005859375,-0.955078125,0.0066059362689919335,0.30079060706826427,15.093996340012637,0.15204643463380618,1101,0,2.2949883278746412,0.7615180442546037,33.181782887751574,0.3949881546965666,0.13106411192375106,0.076171875,,
1.8182800000002608,1200,,,,-0.03125,0.005859375,-1.009765625,0.0066059362689919335,0.30079060706826427,15.093860037438478,0.1548693085175572,1101,0,2.3375756668588874,0.7615172028237968,32.57722150432392,0.3949885911347725,0.1286763082507832,0.076171875,,
1.8259799999995157,1200,,,,-0.03125,0.07421875,-0.962890625,0.0066059362689919335,0.3042290290885772,15.093770584524178,0.15421762424730326,1101,0,2.3277254404791483,0.7615169922045698,32.71506935318867,0.3995039272962812,0.13069798688369083,0.076171875,,
1.834195000000298,1200,,,,-0.03125,0.046875,-1.017578125,0.0066059362689919335,0.3042290290885772,15.093682799091575,0.15422401062354135,1101,0,2.3278082963554625,0.7615169063694064,32.71390120748675,0.39950397232677837,0.13069333482696746,0.076171875,,
1.842875,1200,,,,0,-0.0625,-1.02734375,0.0066059362689919335,0.3042290290885772,15.093730929214571,0.1531708675864671,1101,0,2.3119198615444883,0.7618006143942738,32.95099570991832,0.399355189980356,0.13159151151776327,0.078125,,
1.8505249999994413,1200,,,,-0.0625,0.07421875,-0.953125,0.0066059362689919335,0.3042290290885772,15.093781984011631,0.15347142518762855,1101,0,2.3164642325576166,0.7619193830575672,32.89148057409586,0.3992929381422378,0.13133335918279074,0.078125,,
1.8576149999992921,1200,,,,-0.03125,0.02734375,-0.9609375,0.0066059362689919335,0.3042290290885772,15.094048766390985,0.1543468940640022,1101,0,2.3297195459430324,0.7619571142381385,32.705958773664776,0.39927316564629495,0.13058611695058353,0.078125,,
1.8661499999994413,1200,,,,-0.0625,0.04296875,-1.05859375,0.0066059362689919335,0.3042290290885772,15.094343137833036,0.15499088833384503,1101,0,2.33948565174862,0.7619749912917001,32.57019297050064,0.39926379811081214,0.13004098950604157,0.078125,,
1.8740249999994412,1200,,,,-0.03125,0.05078125,-0.96875,0.0066059362689919335,0.3042290290885772,15.094163872764518,0.15432437230415494,1102,0,2.3293973651204367,0.7621556047816052,32.71900347247965,0.3991691816997838,0.13060417842142086,0.078125,,
1.88325,1200,,,,-0.0625,-0.0078125,-0.9453125,0.006726159708773173,0.3042290290885772,15.094340129737251,0.15432559498414408,1102,0,2.3294430214147437,0.7764818731589403,33.33337051049047,0.39180441888603323,0.13060161862375552,0.078125,,
1.8913199999993666,1200,,,,-0.03125,0.05078125,-0.96875,0.006726159708773173,0.3042290290885772,15.094323336910971,0.15432662319496426,1103,0,2.329455949998415,0.7766343821069056,33.33973248592377,0.3917274796194888,0.13060089377898912,0.078125,,
1.8996749999988825,1200,,,,-0.0625,0.07421875,-0.982421875,0.006726159708773173,0.3042290290885772,15.09430685589362,0.1536622584848163,1103,0,2.31942528173946,0.7766951223159837,33.486533428380106,0.39169684519379194,0.1311656950037294,0.078125,,
1.9079499999992549,1200,,,,-0.0625,0.052734375,-0.958984375,0.006726159708773173,0.3042290290885772,15.094325760970907,0.15460587082004254,1103,0,2.3336713787163084,0.7767185337093755,33.28311521464637,0.39168503889777195,0.13036498277487793,0.078125,,
1.9161399999996647,1200,,,,0,0.00390625,-0.94921875,0.006726159708773173,0.3042290290885772,15.094277398353304,0.15459322096004874,1102,0,2.333472961075902,0.7763896586525176,33.27185151074325,0.3918509548627804,0.13037606784537384,0.078125,,
1.9242350000003352,1200,,,,-0.0625,0.07421875,-0.953125,0.006726159708773173,0.3042290290885772,15.09416426061936,0.15458095263891683,1102,0,2.3332702906948324,0.7759172818819321,33.25449627402015,0.3920895128804083,0.1303873924516391,0.078125,,
1.9324349999995902,1200,,,,-0.03125,0.03515625,-0.96875,0.006726159708773173,0.3042290290885772,15.093928018185917,0.15499415856017554,1101,0,2.339470672546584,0.7757344765280468,33.15854674440678,0.3921819105555478,0.13004182213466892,0.078125,,
1.9492649999996647,1200,,,,-0.03125,0.05078125,-0.947265625,0.006726159708773173,0.3042290290885772,15.0939290201884,0.15640510877744224,1101,0,2.3607676102815587,0.7756319534474782,32.85507434401694,0.3922337491852416,0.12886868989713607,0.078125,,
1.9559749999996274,1200,,,,0,-0.05859375,-0.9609375,0.006726159708773173,0.3042290290885772,15.093932106868005,0.15631659896549968,1103,0,2.3594321319617655,0.7767918228126603,32.92282970507788,0.3916480840220538,0.1289416317457811,0.078125,,
1.9689699999997392,1200,,,,-0.03125,0.04296875,-0.994140625,0.006726159708773173,0.3042290290885772,15.09383860914725,0.15622120903711154,1104,0,2.3579777165320173,0.7773338237764571,32.96612255181599,0.39137500489888144,0.12902116375214112,0.078125,,
1.9789950000001117,1200,,,,-0.01953125,0.0078125,-0.947265625,0.006726159708773173,0.30505538765620127,15.094022480790706,0.15467757492745837,1104,0,2.3347067932292456,0.7776069328951345,33.306406404017395,0.39230024161492405,0.13066111279620873,0.078125,,
1.986324999999255,1200,,,,-0.03125,0.08984375,-1.02734375,0.006726159708773173,0.30505538765620127,15.0939133560352,0.15372349166428498,1104,0,2.3202890639679166,0.7776617646477487,33.51572770497279,0.39227258111935054,0.13147301014923,0.078125,,
1.9943300000000745,1200,,,,-0.125,0.03515625,-0.94140625,0.006726159708773173,0.30505538765620127,15.093946088806671,0.15356222040444079,1103,0,2.317859876062077,0.7771365306949891,33.52819291282196,0.39253770168723356,0.13161079787725324,0.078125,,
2.0022549999998884,1200,,,,-0.03125,0.076171875,-0.951171875,0.006726159708773173,0.30505538765620127,15.093948826694474,0.15360142618816697,1103,0,2.3184520665914805,0.7768896404482561,33.50898004936614,0.39266244750050716,0.13157718119429773,0.080078125,,
2.0104099999992178,1200,,,,-0.125,0.05859375,-0.94921875,0.006726159708773173,0.30505538765620127,15.093983707754886,0.15384793444538372,1103,0,2.3221782159903634,0.7767949747238373,33.45113520464877,0.39271030012089514,0.1313660534560226,0.080078125,,
2.018290000000037,1200,,,,-0.0625,0.0703125,-1.013671875,0.006726159708773173,0.30505538765620127,15.093886349783304,0.15387240896072965,1103,0,2.3225326532206316,0.7767571419064105,33.44440134476859,0.3927294275112782,0.1313460059358839,0.080078125,,
2.026410000000149,1200,,,,-0.03125,0.076171875,-1.005859375,0.006726159708773173,0.30505538765620127,15.093859534505388,0.15494935553271083,1103,0,2.3387838073728724,0.7767423191471822,33.21137749879017,0.3927369220607605,0.1304333417627285,0.080078125,,
2.0345649999994784,1200,,,,-0.125,0.05078125,-0.9375,0.006611333883726561,0.30505538765620127,15.093866560354234,0.15556688636971244,1103,0,2.3481058240742296,0.7633804447397515,32.51047874048538,0.3996112158207032,0.1299155193639849,0.080078125,,
2.0435099999997766,1200,,,,-0.0625,0.0859375,-0.994140625,0.006611333883726561,0.30505538765620127,15.094058325397569,0.15549932898233076,1103,0,2.347115941219485,0.7633385944632766,32.522406799668815,0.3996331246302222,0.12997031049846836,0.080078125,,
2.0530049999998883,1200,,,,-0.0625,0.095703125,-0.966796875,0.006611333883726561,0.30505538765620127,15.094163934194121,0.15508265743260313,1103,0,2.34084305463818,0.7633238029493487,32.6089270033242,0.3996408686294348,0.1303185991268232,0.080078125,,
2.062114999999292,1200,,,,-0.0625,0.046875,-0.9921875,0.006611333883726561,0.30505538765620127,15.094276835718707,0.15603786355021024,1103,0,2.3552787092809746,0.7633181388865183,32.40882430935513,0.39964383409150656,0.12951986805388707,0.08203125,,
2.0715699999993666,1200,,,,0,0,-1.0234375,0.006611333883726561,0.30505538765620127,15.094103392340363,0.15616515637475537,1103,0,2.3571730166015583,0.7634106645464742,32.38670471661506,0.3995953971083547,0.12941578132266815,0.08203125,,
2.0785049999998884,1200,,,,-0.0625,0.09375,-0.982421875,0.006611333883726561,0.30505538765620127,15.093987966426534,0.157969798239667,1103,0,2.384394233688361,0.7636519905627362,32.02708594800876,0.3994691186903154,0.12793831797870042,0.08203125,,
2.086375,1200,,,,-0.03125,-0.01171875,-0.955078125,0.006611333883726561,0.30505538765620127,15.094073287122363,0.15505636249700244,1103,0,2.3404320991643663,0.7637273130462661,32.631893628486345,0.39942972111267316,0.13034148171404716,0.08203125,,
2.0952649999996646,1200,,,,-0.0625,0.0546875,-1.00390625,0.006611333883726561,0.30505538765620127,15.094328378267441,0.15429349940763024,1103,0,2.3289567466907837,0.7637658085739033,32.794332039834515,0.39940958894952105,0.13098370679904411,0.08203125,,
2.102480000000447,1200,,,,-0.0625,0.091796875,-0.978515625,0.006611333883726561,0.30505538765620127,15.094214721526694,0.15366022336237858,1103,0,2.3193804055894947,0.7637786139597467,32.93028655925134,0.39940289251445127,0.13152451703094745,0.08203125,,
2.111745000000112,1200,,,,-0.0625,0.046875,-0.984375,0.006611333883726561,0.30505538765620127,15.09420411607999,0.15369424264458767,1104,0,2.3198922699437317,0.7641670852642569,32.93976600399602,0.3991998524127874,0.1314954972730696,0.08203125,,
2.1231399999996645,1200,,,,-0.03125,0.015625,-0.990234375,0.006611333883726561,0.3053818357704298,15.0942297037919,0.15396924388428698,1104,0,2.324047134508584,0.7643274373841692,32.887776931675056,0.39954320731382775,0.1314008787670317,0.08203125,,
2.139894999999553,1200,,,,-0.0625,0.046875,-0.98046875,0.006611333883726561,0.3053818357704298,15.094141861941562,0.15337454670051334,1104,0,2.3150571659085295,0.76440619218242,33.018890567327894,0.3995020434077706,0.13191114252705058,0.080078125,,
2.147160000000149,1200,,,,-0.125,0.05859375,-0.9609375,0.006611333883726561,0.3053818357704298,15.094231468673321,0.1527933453812162,1104,0,2.306298122057025,0.7642551047903041,33.137741278159325,0.3995810219078881,0.1324121252364611,0.080078125,,
2.155410000000149,1200,,,,-0.03125,0.0625,-1,0.006611333883726561,0.3053818357704298,15.094252987773306,0.1518016024612116,1103,0,2.291331791498919,0.763875573148531,33.337623821333494,0.3997795537717111,0.1332770037510187,0.080078125,,
2.1644199999999256,1200,,,,-0.0625,0.01953125,-0.96875,0.006611333883726561,0.3053818357704298,15.09427585734792,0.1528980969451734,1103,0,2.3078860533539727,0.7637176731966537,33.09165424726098,0.3998622088869684,0.13232101963033605,0.080078125,,
2.172024999999441,1200,,,,-0.03125,0.005859375,-0.95703125,0.006611333883726561,0.3053818357704298,15.093969772401964,0.15519010963717825,1103,0,2.3424348238393153,0.7636645884824813,32.60131640421969,0.39989000455981644,0.13036940565539432,0.080078125,,
2.180214999999851,1200,,,,-0.0625,0.09765625,-1.005859375,0.006611333883726561,0.3053818357704298,15.093873568974036,0.15705876163545832,1103,0,2.3706250910252376,0.7636435085258219,32.21274892503414,0.39990104330220155,0.12881911902753027,0.080078125,,
2.188269999999553,1200,,,,0,0.015625,-0.99609375,0.006544012773934834,0.3053818357704298,15.093780901194357,0.15670993132684122,1104,0,2.3653453684885553,0.7565711737961164,31.985653506471312,0.4036392693078275,0.12910665809685434,0.080078125,,
2.197394999999553,1200,,,,-0.0625,0.056640625,-0.966796875,0.006544012773934834,0.3053818357704298,15.093683594423052,0.15444522777534303,1106,0,2.3311474007096264,0.7576108269018728,32.499481871942024,0.4030853637866285,0.1310006547322869,0.080078125,,
2.205424999999814,1200,,,,-0.0625,0.048828125,-0.96875,0.006544012773934834,0.3053818357704298,15.093732303086075,0.1540109914714208,1106,0,2.3246006770024983,0.7579664229661958,32.60630655685648,0.4028962583531875,0.1313695891047448,0.080078125,,
2.2132949999999254,1200,,,,0,0.0703125,-0.97265625,0.006544012773934834,0.3053818357704298,15.093842263211517,0.15486830814939945,1106,0,2.33755781477747,0.7581042064632498,32.431463370475804,0.4028230329905624,0.13064140439217392,0.080078125,,
2.220570000000298,1200,,,,-0.0625,0.04296875,-0.986328125,0.006544012773934834,0.3053818357704298,15.094141332519934,0.1554756907508093,1106,0,2.346772049963878,0.7581591944719639,32.30646941119116,0.40279381691482286,0.13012846125175656,0.078125,,
2.2277549999998882,1200,,,,-0.03125,0.015625,-1.029296875,0.006544012773934834,0.3053818357704298,15.094049055844556,0.15430428237760685,1107,0,2.3290764077344885,0.7588868962444546,32.58316874982346,0.40240757520216747,0.13111713929019495,0.080078125,,
2.235445000000298,1200,,,,-0.0625,0.10546875,-0.95703125,0.006544012773934834,0.3053818357704298,15.093958870190422,0.15316073183544252,1108,0,2.311801786852434,0.7592081186769475,32.84053689181654,0.4022373157739816,0.132096894079407,0.080078125,,
2.243719999999739,1200,,,,-0.03125,0.033203125,-0.986328125,0.006544012773934834,0.3053818357704298,15.09386314101877,0.153218701970116,1108,0,2.312662118181474,0.7593545020005082,32.83464955951347,0.402159775132571,0.13204775283410708,0.078125,,
2.251839999999851,1200,,,,-0.03125,0,-0.966796875,0.006544012773934834,0.3053818357704298,15.093834130290203,0.15375694059181963,1108,0,2.32078175767381,0.7594158919725963,32.722417326038524,0.40212726517639114,0.1315857618928043,0.078125,,
2.2602649999996647,1200,,,,-0.0625,0.1171875,-0.97265625,0.006544012773934834,0.3053818357704298,15.093842285145254,0.15378575994692698,1108,0,2.3212180063401235,0.7594366701468769,32.717162630677876,0.40211626298130726,0.13156103172399863,0.078125,,
2.2685949999997392,1200,,,,-0.03125,0.009765625,-0.958984375,0.006544012773934834,0.3031627955740193,15.093619951695155,0.15317132743697442,1107,0,2.3119098038303485,0.7583503737407213,32.80190137540375,0.3997661319511264,0.13113089233487493,0.078125,,
2.2801299999998883,1200,,,,0,-0.021484375,-0.95703125,0.006544012773934834,0.3031627955740193,15.093836142384355,0.1529080724754829,1106,0,2.30796939079277,0.7579236099892529,32.83941342605552,0.3999912281111259,0.13135477306736948,0.078125,,
2.296014999999665,1200,,,,-0.0625,0.02734375,-0.97265625,0.006544012773934834,0.3031627955740193,15.093823838053334,0.15399669699218377,1106,0,2.3243990160420993,0.7576781257866634,32.59673234059485,0.40012082341595767,0.13042631384788386,0.078125,,
2.3034500000001863,1200,,,,-0.03125,0.037109375,-1.041015625,0.006544012773934834,0.3031627955740193,15.093746290328387,0.15401156209416683,1104,0,2.3246114440265107,0.7564409488219686,32.54053277444597,0.4007752304342396,0.13041439521131512,0.078125,,
2.3113300000000745,1200,,,,-0.125,0.08203125,-0.94921875,0.006544012773934834,0.3031627955740193,15.093990707410741,0.15424377189038005,1103,0,2.3281540595893784,0.7558460933926651,32.46546723484335,0.4010906429551723,0.130215951270634,0.080078125,,
2.3183150000004096,1200,,,,0,0.001953125,-0.978515625,0.006544012773934834,0.3031627955740193,15.093991138370683,0.15535834369405654,1103,0,2.344977462990036,0.7556327545707315,32.223454873090276,0.4012038834211779,0.129281752323309,0.080078125,,
2.326644999999553,1200,,,,-0.0625,0.109375,-0.96875,0.006544012773934834,0.3031627955740193,15.093697330331034,0.1549891992778465,1103,0,2.3393600633701763,0.7555312123343623,32.29649100044538,0.40125780460788407,0.12959219075376996,0.080078125,,
2.3439199999999256,1200,,,,-0.03125,0.033203125,-0.9296875,0.006531682584198691,0.3031627955740193,15.093854062000808,0.15347579465799807,1102,0,2.316541246617426,0.753728019978385,32.53678392642332,0.4022177596405574,0.13086872336794886,0.080078125,,
2.352854999999516,1200,,,,-0.03125,0.06640625,-1.017578125,0.006531682584198691,0.3031627955740193,15.093983796651063,0.15352843445024875,1102,0,2.3173557019172595,0.7535744160141779,32.518720168453626,0.4022997452295614,0.13082272838960293,0.080078125,,
2.3619900000002234,1200,,,,-0.0625,0.048828125,-0.966796875,0.006531682584198691,0.3031627955740193,15.093875522354317,0.15357305195731977,1102,0,2.3180125298318366,0.7535261429376547,32.507423201561394,0.4023255177214235,0.13078565869357603,0.080078125,,
2.3698799999998883,1200,,,,-0.03125,0.013671875,-0.978515625,0.006531682584198691,0.3031627955740193,15.093845639860584,0.15385533552641095,1102,0,2.3222686853046053,0.7535086391691694,32.447091240449375,0.4023348636165491,0.13054596028979926,0.080078125,,
2.378959999999963,1200,,,,0,0,-0.9453125,0.006531682584198691,0.3031627955740193,15.09374748244978,0.15249646009010362,1102,0,2.301743060567505,0.7535025019342138,32.73616915992502,0.40233814061109463,0.13171009430534492,0.080078125,,
2.387254999998957,1200,,,,-0.03125,0.017578125,-0.9609375,0.006531682584198691,0.3031627955740193,15.093795007607605,0.15281610113973768,1101,0,2.306574904465031,0.753403986968191,32.66332194587583,0.4023907502719639,0.1314341862417568,0.078125,,
2.39569000000041,1200,,,,-0.03125,0.029296875,-0.9609375,0.006531682584198691,0.3031627955740193,15.093706112092082,0.15256948177581428,1101,0,2.3028389195983294,0.753367504310566,32.71472867246709,0.4024102364906947,0.1316474170181639,0.078125,,
2.403554999999702,1200,,,,-0.0625,0.046875,-0.94140625,0.006531682584198691,0.3031627955740193,15.093881057912906,0.15244583321041058,1101,0,2.3009992742523666,0.7533534353629188,32.740272619499024,0.4024177515404497,0.13175266892360146,0.078125,,
2.4125099999997763,1200,,,,-0.03125,0.0234375,-0.9453125,0.006531682584198691,0.3031627955740193,15.093997311514437,0.15255007124698045,1101,0,2.3025903652732587,0.7533474284030517,32.71738819742905,0.40242096029539093,0.13166162776766488,0.078125,,
2.421269999999553,1200,,,,-0.03125,0.02734375,-0.9375,0.006531682584198691,0.30221936401400207,15.094095681658223,0.1526383285560435,1101,0,2.303937535913305,0.75331411367277,32.696811520723294,0.4011863823187073,0.1311751552735561,0.078125,,
2.432539999999106,1200,,,,0,0.01171875,-1.05078125,0.006531682584198691,0.30221936401400207,15.093907974983864,0.15296951991035163,1101,0,2.3089078565043093,0.75328367184229,32.62510756850915,0.40120259513241613,0.13089277822960102,0.078125,,
2.4417799999993295,1200,,,,-0.041015625,0.0390625,-0.9609375,0.006531682584198691,0.30221936401400207,15.093963042757133,0.15244059788388262,1101,0,2.3009327506751256,0.7532713511131011,32.73765175849145,0.401209157320819,0.13134645674686785,0.078125,,
2.4494599999990316,1200,,,,-0.0625,0.10546875,-0.95703125,0.006531682584198691,0.30221936401400207,15.093865411258008,0.1525354275212965,1101,0,2.3023492134551504,0.7532684474520905,32.71738461958408,0.401210703881532,0.1312656491238614,0.078125,,
2.4562099999999627,1200,,,,-0.0625,0.0546875,-0.970703125,0.006531682584198691,0.30221936401400207,15.093786151006855,0.1520592167874331,1101,0,2.2951493004791064,0.7533251233816055,32.822488856143295,0.4011805190531384,0.1316774311592342,0.078125,,
2.465379999998957,1200,,,,0,0.021484375,-0.982421875,0.006531682584198691,0.30221936401400207,15.093993716761958,0.152171931609508,1102,0,2.296882179581444,0.7534776105649621,32.80436485872631,0.4010993289998307,0.13157808733100748,0.078125,,
2.4872599999997766,1200,,,,-0.0625,0.12890625,-1.017578125,0.006996697496122851,0.30221936401400207,15.094175600528361,0.15232047944272945,1102,0,2.2991520642652286,0.8072165282819391,35.10931446545761,0.3743968977657565,0.13144818418549728,0.080078125,,
2.494394999999553,1200,,,,-0.03125,-0.017578125,-0.9375,0.006996697496122851,0.30221936401400207,15.09433946801125,0.151849764159206,1102,0,2.2920718883565034,0.8072220220628005,35.218006300910886,0.3743943497003479,0.13185422566772284,0.080078125,,
2.5014849999994038,1200,,,,0,0.078125,-1.05859375,0.006996697496122851,0.30221936401400207,15.094068647416796,0.15306982780708459,1102,0,2.310446488768403,0.8071313333349042,34.93399813666104,0.37443641639495334,0.13080561072639335,0.080078125,,
2.509834999999963,1200,,,,-0.0625,0.046875,-0.955078125,0.006996697496122851,0.30221936401400207,15.093869116745738,0.1531324331446885,1102,0,2.3113609034147453,0.8070883575646466,34.91831831075255,0.37445635435249697,0.1307538617476444,0.080078125,,
2.5184799999995158,1200,,,,-0.03125,0.03125,-0.9609375,0.006996697496122851,0.30221936401400207,15.093986467921159,0.1534382163087817,1102,0,2.3159943606267106,0.8070703606540558,34.84768246308085,0.3744647043773002,0.130492271117716,0.080078125,,
2.5266399999996647,1200,,,,-0.0625,0.0234375,-0.94921875,0.006996697496122851,0.30221936401400207,15.094020094468418,0.15262689527677023,1102,0,2.303753424263897,0.807064272959006,35.03258050357025,0.374467528968852,0.13118563854574333,0.080078125,,
2.5356399999996646,1200,,,,-0.03125,0.06640625,-1.0234375,0.006996697496122851,0.30221936401400207,15.094128663623804,0.15224551611638124,1102,0,2.29801340872047,0.8071858716031528,35.12537692513259,0.3744111172483282,0.13151331618307538,0.080078125,,
2.543289999999106,1200,,,,-0.0625,0.037109375,-0.9765625,0.006996697496122851,0.30221936401400207,15.09421985734825,0.15329995707142563,1102,0,2.313943256158147,0.8074609439201523,34.89545138028943,0.3742835691182207,0.13060794088606067,0.078125,,
2.5516899999994784,1200,,,,0,0.0078125,-1.015625,0.006996697496122851,0.30221936401400207,15.094044696212949,0.15570584077272953,1102,0,2.350230920084996,0.8075706693236624,34.36133285551603,0.374232714849723,0.12859134880374745,0.078125,,
2.5608149999994785,1200,,,,-0.0625,0.0625,-0.994140625,0.006996697496122851,0.30221936401400207,15.093712464186016,0.1581360444279083,1102,0,2.386859984818593,0.8076161856169699,33.83592631129348,0.37421162353640147,0.12661796918807175,0.078125,,
2.5689399999994786,1200,,,,-0.03125,0.033203125,-0.94140625,0.006996697496122851,0.30321636092793375,15.093693833879248,0.15559950098059047,1102,0,2.3485712285054263,0.8076316283780368,34.38821095036551,0.3754389380922115,0.12910673402096187,0.080078125,,
2.5796799999997018,1200,,,,-0.0625,0.0390625,-0.9765625,0.006996697496122851,0.30321636092793375,15.093967783377142,0.15409599609407124,1106,0,2.325920000591321,0.8106969438843585,34.85489370564139,0.37401937088242665,0.13036405415957844,0.080078125,,
2.5912799999993292,1200,,,,-0.0625,0.04296875,-0.9765625,0.006996697496122851,0.30321636092793375,15.093929435324183,0.15463654465051946,1108,0,2.334073093077298,0.811843554450102,34.78226782434427,0.37349112309368,0.12990868273459508,0.078125,,
2.609339999999851,1200,,,,-0.03125,0.04296875,-0.978515625,0.006996697496122851,0.30321636092793375,15.094115371493151,0.15321683031146396,1109,0,2.312672513575726,0.8123496050710739,35.12601115386908,0.373258457978083,0.13111080758214114,0.078125,,
2.6158849999997766,1200,,,,-0.0625,0.015625,-1.03515625,0.006996697496122851,0.30321636092793375,15.094141898286797,0.15202185961137143,1109,0,2.294639520615475,0.8122322790758557,35.396944564869884,0.37331237472232476,0.13214117433426065,0.078125,,
2.6239599999999625,1200,,,,-0.0625,0.08203125,-0.962890625,0.006996697496122851,0.30321636092793375,15.09439359171039,0.15324053370506852,1108,0,2.313072929948066,0.8121879817744397,35.11294310087643,0.37333273544072554,0.13108811097224748,0.078125,,
2.6318549999995158,1200,,,,-0.0625,0.037109375,-0.96875,0.0071813277085687076,0.30321636092793375,15.094262382768378,0.15306313571089486,1108,0,2.3103751315495313,0.8335974918327799,36.080612210957256,0.36374432972593335,0.13124118104775973,0.078125,,
2.6398099999995903,1200,,,,-0.0625,0.05078125,-0.97265625,0.0071813277085687076,0.30321636092793375,15.094339621179554,0.15369871666548934,1108,0,2.319980628688346,0.8335902119810606,35.93091259785,0.3637475063524653,0.13069779858436317,0.078125,,
2.6476199999991805,1200,,,,-0.0625,0.0625,-0.9609375,0.0071813277085687076,0.30321636092793375,15.094420538234433,0.15457546528951674,1108,0,2.333227077973225,0.8335869427098095,35.726781614154376,0.3637489329454267,0.12995578689722942,0.078125,,
2.6569550000000746,1200,,,,-0.03125,0.025390625,-0.9453125,0.0071813277085687076,0.30321636092793375,15.094361085093253,0.15432525756001375,1106,0,2.329441162160865,0.8320986002336066,35.72095375277584,0.3643995565463127,0.13016699706922857,0.078125,,
2.6656699999999254,1200,,,,-0.03125,0.033203125,-0.986328125,0.0071813277085687076,0.30321636092793375,15.094451643090187,0.15360763992578055,1106,0,2.3186230928689042,0.8315612970903479,35.864444706337814,0.36463500885490313,0.13077432113071674,0.078125,,
2.6737749999994413,1200,,,,-0.09375,0.083984375,-0.94921875,0.0071813277085687076,0.30321636092793375,15.094527565637613,0.15300528986302003,1106,0,2.309542565525729,0.8313806564167928,35.99763298701286,0.3647142359972391,0.13128849212567406,0.078125,,
2.6820449999999254,1200,,,,-0.03125,-0.001953125,-0.927734375,0.0071813277085687076,0.30321636092793375,15.09459967902339,0.1522215344914037,1105,0,2.29772312567439,0.8313094062518118,36.17970315756906,0.3647454950558883,0.13196383739182616,0.078125,,
2.6900499999998138,1200,,,,-0.0625,0.03515625,-1.01953125,0.0071813277085687076,0.30321636092793375,15.094472028443786,0.15104644209898246,1104,0,2.2799662952590447,0.8305895013137086,36.42990262798332,0.3650616344756936,0.13299159797161955,0.078125,,
2.699024999999441,1200,,,,-0.03125,0.06640625,-0.978515625,0.0071813277085687076,0.30321636092793375,15.094483060091795,0.15050031381806525,1104,0,2.271724437465285,0.8299164686688599,36.53244447177991,0.3653576864359325,0.13347409392058682,0.078125,,
2.7078499999996275,1200,,,,-0.0625,0.04296875,-0.974609375,0.0071813277085687076,0.30321636092793375,15.094564854329183,0.1489531532577506,1103,0,2.248383032105951,0.8296842664335272,36.90137554793777,0.3654599384309608,0.134859744357671,0.078125,,
2.7171699999999257,1200,,,,-0.03125,0.048828125,-1.017578125,0.0071813277085687076,0.30478515666176204,15.09453710809284,0.15049856365191558,1103,0,2.271706153758512,0.829603591241344,36.51896570640416,0.36738649624902053,0.13416574857513963,0.078125,,
2.725164999999106,1200,,,,-0.03125,0.05078125,-0.97265625,0.0071813277085687076,0.30478515666176204,15.094544964829494,0.15098883786306683,1103,0,2.279107802311412,0.8295685762780451,36.39883007888956,0.36740200313422633,0.13373003082726354,0.078125,,
2.732280000000261,1200,,,,-0.0625,0.046875,-0.95703125,0.0071813277085687076,0.30478515666176204,15.094373383185896,0.15113741995776653,1103,0,2.2813246490139,0.8291681935545264,36.345909553597885,0.36757941154880924,0.13360008045917754,0.078125,,
2.743194999999367,1200,,,,-0.0625,0.03125,-1.005859375,0.0071813277085687076,0.30478515666176204,15.094258166403472,0.15066090493482073,1102,0,2.274114594670155,0.8289876471271818,36.45320464808947,0.36765946720434356,0.13402365798807472,0.078125,,0.3268650000002235,3873,
2.7613650000002234,1200,,,,-0.03125,0.05859375,-1.04296875,0.0071813277085687076,0.30478515666176204,15.093909150096799,0.152875751919113,1102,0,2.307492710719828,0.8288814944679128,35.9213049998906,0.36770655237925653,0.13208499218473524,0.080078125,,
2.779719999999739,1500,,,,-0.03125,0.078125,-0.978515625,0.0071813277085687076,0.30478515666176204,15.093833490377502,0.15247485387484708,1102,0,2.301430055856583,0.8285399687704683,36.00109274066507,0.3678581216957526,0.1324329435457565,0.080078125,,
2.7884999999990687,1500,,,,-0.03125,0.015625,-0.947265625,0.006439641692310399,0.30478515666176204,15.093636751517966,0.15205170133318704,1102,0,2.2950131473734254,0.7429091417398872,32.370583261805045,0.41025899337832566,0.13280322904057415,0.080078125,,
2.797160000000149,1500,,,,-0.0625,0.052734375,-1.017578125,0.006439641692310399,0.30478515666176204,15.093556039359814,0.15088070009150836,1102,0,2.277326302089023,0.7428920610788871,32.62123923117306,0.4102684261009988,0.13383464476837525,0.080078125,,
2.8057799999993294,1500,,,,0.0625,0.23046875,-1.08984375,0.006439641692310399,0.30478515666176204,15.07983282848613,0.5413650685440659,1109,0,8.163694732826448,0.7478948209681402,9.161229632470626,0.407524090442586,0.03733421773308258,0.08203125,,
2.8137999999998136,1500,,,,-0.125,-0.41015625,-0.9296875,0.006439641692310399,0.30478515666176204,15.067442653691755,0.896432729323362,1126,0,13.50694874197214,0.759036955045653,5.619603431876404,0.4015419205029752,0.022565063545007615,0.0859375,,
2.8218099999995903,1500,,,,-0.09375,0.072265625,-1.001953125,0.006439641692310399,0.30478515666176204,15.058106612011313,1.1476588450676484,1132,0,17.281569243246423,0.7634837552435999,4.417907566709931,0.3992031979311939,0.01763642828795024,0.087890625,,
2.8298849999997766,1500,,,,-0.0625,-0.05078125,-1.015625,0.006439641692310399,0.30478515666176204,15.051060965871915,1.3405997889973822,1236,0,20.177449155034626,0.8337426346477166,4.132051718934369,0.365562637672408,0.015105237253724552,0.087890625,,
2.840694999999367,1500,,,,0.28125,-0.1015625,-1.0703125,0.006439641692310399,0.30478515666176204,15.045986376531035,1.477070254750146,1476,0,22.223978930149922,0.9955263129205428,4.479514294220162,0.3061547974233085,0.013714247913017884,0.091796875,,
2.8490999999996274,1500,,,,0.01953125,0.044921875,-1.0234375,0.006439641692310399,0.30478515666176204,15.040934228547734,1.6021831340503172,1589,0,24.098331141339298,1.0714718624775739,4.4462492286012525,0.28445465283335075,0.012647562807323227,0.095703125,,
2.8565849999999626,1500,,,,-0.3125,-0.02734375,-0.8984375,0.006439641692310399,0.30478515666176204,15.038529999154363,1.6695113012640463,1900,0,25.106995787986598,1.2814990521608354,5.104151301025102,0.2378348670237719,0.012139451459485173,0.099609375,,
2.8652549999989567,1500,,,,-0.125,0.578125,-0.98046875,0.006439641692310399,0.30478515666176204,15.036789194214286,1.7129257462247336,2025,0,25.756903351323515,1.3654248231648125,5.301199466956303,0.22321635837506168,0.011833144400338043,0.10546875,,
2.873875,1500,,,,-0.34375,0.220703125,-0.916015625,0.006439641692310399,0.31074890815603146,15.035601508140543,1.747623818975014,2155,0,26.276575328243055,1.4535490068851655,5.531729263527109,0.2137863303432338,0.0118260809970174,0.109375,,
2.881339999999851,1500,,,,0.125,-0.0625,-1.20703125,0.006439641692310399,0.31074890815603146,15.034901394402558,1.7669982147479402,2240,0,26.566643922820635,1.5104534490367016,5.685526005560787,0.20573219807218351,0.011696957623205823,0.11328125,,
2.888054999999702,1500,,,,-0.0625,0.2109375,-1.00390625,0.006439641692310399,0.31074890815603146,15.034607834815496,1.7741378732583457,2361,0,26.673467169332827,1.5919051476825035,5.968122320118765,0.1952056682575717,0.011650113057417127,0.115234375,,
2.897329999999143,1500,,,,-0.1875,-0.25390625,-0.94140625,0.006439641692310399,0.31074890815603146,15.03449628989069,1.7750297971061793,2414,0,26.686678899038277,1.6278874198545064,6.100000026279671,0.19089090828148597,0.011644345455336148,0.1171875,,
2.9130400000000374,1500,,,,-0.03125,0.064453125,-0.998046875,0.006439641692310399,0.31074890815603146,15.035122535831162,1.7632802821976545,2506,0,26.511135107856685,1.6900940974615026,6.375034831913464,0.18386485617739975,0.011721448624956828,0.1171875,,
2.921625,1500,,,,-0.125,-0.03515625,-0.98828125,0.006439641692310399,0.31074890815603146,15.035462248188807,1.7480392353042693,2549,0,26.282577930770174,1.718698218703861,6.539306087975888,0.18080481190605968,0.011823380072326315,0.1171875,,
2.928554999999702,1500,,,,0,0.083984375,-1.001953125,0.006439641692310399,0.31074890815603146,15.035909925638812,1.7348215841623789,2579,0,26.08462107651956,1.7389825527881615,6.666696624370484,0.17869581707866972,0.011913108005074932,0.115234375,,
2.935860000000335,1500,,,,-0.0625,0.14453125,-0.87890625,0.006151011304326195,0.31074890815603146,15.036436983977921,1.7185815890775964,2600,0,25.84134376598992,1.6747088843759639,6.48073451420149,0.18555398556437694,0.012025261184947029,0.115234375,,
2.943664999999106,1500,,,,-0.0625,-0.037109375,-0.98046875,0.006151011304326195,0.31074890815603146,15.037594712985552,1.6980244884090192,2626,0,25.534204069419463,1.6917303080522208,6.625349681756042,0.18368702545372803,0.012169907756325711,0.1171875,,
2.951614999999292,1500,,,,0,0.017578125,-0.990234375,0.006151011304326195,0.31074890815603146,15.038200937337141,1.6766625312547379,2637,0,25.213988049113063,1.6984177880875637,6.736014091778345,0.18296376211764598,0.012324464799092442,0.1171875,,
2.9603849999997767,1500,,,,0,0.08203125,-0.9765625,0.006151011304326195,0.31074890815603146,15.03892272011713,1.657509693127,2656,0,24.92716018278201,1.7105612349641823,6.86223870838573,0.1816648839014163,0.012466277982626985,0.1171875,,
2.9672449999991803,1500,,,,-0.09375,0.00390625,-0.98046875,0.006151011304326195,0.31074890815603146,15.039911743219866,1.6320052360487973,2665,0,24.545214714646615,1.7164021944143955,6.992818006966484,0.18104667377336534,0.012660264404637758,0.1171875,,
2.9742450000001117,1500,,,,0.125,-0.0546875,-1.04296875,0.006151011304326195,0.31074890815603146,15.04068670453978,1.6105523268562831,2679,0,24.223812969512903,1.7255652893570503,7.123425579320547,0.1800852799211192,0.012828240894492013,0.119140625,,
2.9810399999991057,1500,,,,-0.125,0.029296875,-0.994140625,0.006151011304326195,0.31074890815603146,15.041262310433972,1.5914916126953564,2685,0,23.938042811406444,1.7296037947053584,7.2253350381728145,0.17966479323605333,0.012981383256945301,0.119140625,,
2.98880999999959,1500,,,,0,0.01953125,-0.984375,0.006151011304326195,0.31074890815603146,15.042253563819388,1.5708599920224409,2696,0,23.629274313260858,1.7363285562985347,7.348209400252716,0.17896895551754263,0.013151013612874168,0.119140625,,
2.997214999999851,1500,,,,-0.09375,0.099609375,-1,0.006151011304326195,0.31074890815603146,15.043070781166085,1.5480772449485252,2700,0,23.287835570473252,1.7394624504045073,7.469403694218707,0.17864651696492076,0.01334382953777084,0.119140625,,
3.0048349999990314,1500,,,,0.0625,0.0703125,-0.8984375,0.006151011304326195,0.31074890815603146,15.043891452644875,1.5275392373776109,2707,0,22.98013447676471,1.7435832379818144,7.587350020709222,0.17822430348419796,0.013522501727317162,0.119140625,,
3.013034999999218,1500,,,,-0.125,-0.0546875,-0.994140625,0.006151011304326195,0.31074890815603146,15.044579612251152,1.505508350439754,2709,0,22.649740235099785,1.7452296714541704,7.705296631833454,0.17805616833061716,0.01371975594115075,0.119140625,,
3.0210299999993295,1500,,,,0,0.078125,-1.05859375,0.006151011304326195,0.8958132549106175,15.045540745479187,1.4847137662703405,2715,0,22.33832146579427,1.7485825686832168,7.827725871707718,0.5123082380863584,0.04010208449557585,0.12109375,,
3.0288449999997393,1500,,,,-0.03125,-0.02734375,-0.943359375,0.006151011304326195,0.8958132549106175,15.046243844088895,1.4648192561900464,2717,0,22.04002771615236,1.7498832344514905,7.939569119366682,0.5119274459426515,0.04064483341162532,0.119140625,,
3.037035000000149,1500,,,,-0.0625,0.02734375,-1.03125,0.006151011304326195,0.8958132549106175,15.046992899441838,1.4440427212652447,2721,0,21.728500573368805,1.7525751799525602,8.065789786252331,0.511141128299481,0.041227568919714457,0.12109375,,
3.0604299999997018,1500,,,,0.01953125,0.033203125,-0.951171875,0.006151011304326195,0.8958132549106175,15.049153167705523,1.3898953758676278,2726,0,20.91674839851757,1.7560216179373123,8.395289671609602,0.5101379423579493,0.04282755798573866,0.12109375,,
3.0760449999999255,1500,,,,0,-0.0859375,-0.9453125,0.006151011304326195,0.8958132549106175,15.050273406429652,1.3567004360895758,2730,0,20.418712493770453,1.7581857966843113,8.610659448879142,0.5095100054840587,0.043872171430197726,0.12109375,,
3.084785000000149,1500,,,,-0.03125,0.068359375,-0.998046875,0.015457974165365866,0.8958132549106175,15.050787543412186,1.3416687927974194,2730,0,20.193171954020265,4.41938484845343,21.885540610045535,0.2027008929136616,0.044362186235544325,0.12109375,,
3.0927949999999256,1500,,,,-0.0625,-0.001953125,-0.97265625,0.015457974165365866,0.8958132549106175,15.051386845996085,1.3254538900299868,2730,0,19.949919245371685,4.4197200843293425,22.15407506150534,0.20268551804600313,0.04490310180671248,0.119140625,,
3.101504999998957,1500,,,,-0.09375,-0.048828125,-0.962890625,0.015457974165365866,0.8958132549106175,15.052058091780799,1.310589470805435,2731,0,19.727068849039664,4.420564259199066,22.408621843555153,0.20264681212278635,0.04541035780661488,0.12109375,,
3.108739999999292,1500,,,,0,0.04296875,-1.015625,0.015457974165365866,0.8958132549106175,15.052591943816454,1.2995496986875539,2731,0,19.561591325053374,4.420847792782108,22.599632715566127,0.20263381525444205,0.045794498005042705,0.12109375,,
3.1225,1500,,,,0,0.078125,-0.92578125,0.015457974165365866,0.8958132549106175,15.053292613517687,1.2779446681595146,2732,0,19.237275033689933,4.422832055756761,22.990948811674862,0.2025429054545778,0.04656653571474099,0.119140625,,
3.1379249999998136,1500,,,,-0.0625,-0.04296875,-0.99609375,0.015457974165365866,0.8958132549106175,15.054068337662825,1.2553866095174082,2734,0,18.8986758098619,4.42511353854586,23.414939665966976,0.20243847917289629,0.047400847759034796,0.119140625,,
3.1734299999997018,1500,,,,0.03125,0.03125,-0.9921875,0.015457974165365866,0.8958132549106175,15.055959930417297,1.2106483227290035,2734,0,18.227472636834783,4.425777667827275,24.280808184473653,0.20240810138806511,0.04914632284787104,0.119140625,,
3.18194000000041,1500,,,,-0.037109375,0.005859375,-0.978515625,0.015457974165365866,1.5830605100166173,15.056406867060367,1.1992684220903285,2734,0,18.056673305809472,4.426014743011349,24.51179499153558,0.3576717661223927,0.08767177005452552,0.119140625,,
3.1898549999995156,1500,,,,0,0.09765625,-0.951171875,0.015457974165365866,1.5830605100166173,15.056918089936573,1.1918670608782105,2734,0,17.94584470973666,4.4260877311575495,24.663579802159664,0.3576658679566212,0.08821320676856828,0.119140625,,
3.198320000000298,1500,,,,-0.0625,0.0390625,-1.03515625,0.015457974165365866,1.5830605100166173,15.057067323016172,1.1852342312159958,2734,0,17.846151612962565,4.426455185745316,24.803415782538554,0.35763617693783684,0.08870598795466694,0.119140625,,
3.2114749999996275,1500,,,,-0.09375,-0.01171875,-0.947265625,0.015457974165365866,1.5830605100166173,15.05737416038416,1.1764319909133507,2735,0,17.71397666142798,4.426611255040426,24.98937048211953,0.3576235677379716,0.0893678782734154,0.119140625,,
3.22030999999959,1500,,,,-0.0625,0.0703125,-1.02734375,0.015457974165365866,1.5830605100166173,15.057661188600354,1.1661307452297576,2735,0,17.55920166327973,4.426676335397426,25.210009089733333,0.3576183100078607,0.0901556084595324,0.119140625,,
3.232714999999851,1500,,,,0.03125,0.03515625,-0.94921875,0.015457974165365866,1.5830605100166173,15.058061481718914,1.156894917335634,2734,0,17.420594793128096,4.425008132406144,25.40101635422734,0.35775313008426307,0.09087293108046388,0.119140625,,
3.23969000000041,1500,,,,-0.0625,0.15625,-1,0.030648934602942036,1.5830605100166173,15.058362126429817,1.1508867011098232,2734,0,17.330468711803913,8.775424565077172,50.63581782470871,0.18039702789043296,0.0913455104037886,0.119140625,,
3.2476450000004844,1500,,,,-0.09375,-0.029296875,-0.943359375,0.030648934602942036,1.5830605100166173,15.058519413194023,1.145242068757455,2735,0,17.24564992519062,8.778807070833777,50.904472193945125,0.18032752027050347,0.0917947724141292,0.119140625,,
3.2554149999991058,1500,,,,-0.125,0.03515625,-0.9453125,0.030648934602942036,1.5830605100166173,15.058852821875044,1.1378475790893623,2736,0,17.13467922723353,8.781741791406917,51.251276285635896,0.18026725763739362,0.09238927026427966,0.119140625,,
3.2630999999996275,1500,,,,-0.0625,0.125,-1.005859375,0.030648934602942036,1.5830605100166173,15.059103770076142,1.131800847480587,2736,0,17.043906409270278,8.782898218144368,51.53101646561083,0.18024352220616796,0.09288131910625733,0.119140625,,
3.2712000000001864,1500,,,,0.0625,-0.1640625,-0.9921875,0.030648934602942036,1.5830605100166173,15.059288762234253,1.125330347706446,2735,0,16.946674659016846,8.779177074833731,51.804718338429765,0.1803199202525026,0.09341422679489014,0.119140625,,
3.2793199999993665,1500,,,,0,0.095703125,-0.943359375,0.030648934602942036,1.5830605100166173,15.059321983271284,1.1201203055511029,2735,0,16.86825234129427,8.777854396254947,52.037722810005334,0.1803470915047334,0.09384851957313985,0.119140625,,
3.2871549999993293,1500,,,,-0.03125,0.037109375,-0.96875,0.030648934602942036,1.5830605100166173,15.059743988588748,1.1158963841271492,2736,0,16.805113862746754,8.780001896999137,52.24601254539829,0.18030298040797485,0.09420111776367757,0.119140625,,
3.295469999999739,1500,,,,-0.125,-0.03515625,-1,0.030648934602942036,1.5830605100166173,15.060026326480726,1.109753278010271,2736,0,16.712913582732966,8.780871203011698,52.539439993776426,0.18028513041777142,0.0947207979135466,0.119140625,,
3.3033499999996274,1500,,,,-0.03125,0.095703125,-1.01171875,0.030648934602942036,1.5830605100166173,15.060122663029258,1.1066533169427535,2736,0,16.66633469860606,8.78120024591606,52.688250924484926,0.18027837490129708,0.09498552253057904,0.119140625,,
3.311754999998957,1500,,,,-0.0625,0.15234375,-0.94921875,0.030648934602942036,1.5830605100166173,15.060116434518493,1.103245142395318,2736,0,16.615000300290422,8.78133358118717,52.851841242721356,0.18027563756467607,0.09527899376498634,0.119140625,,
3.3203549999995157,1500,,,,-0.03125,-0.064453125,-0.912109375,0.030648934602942036,1.8541633836583107,15.060385247656024,1.0982976914593594,2736,0,16.540786349989204,8.781384801370987,53.089282550201844,0.21114703723823047,0.11209644719578407,0.12109375,,
3.3279899999992923,1500,,,,-0.09375,0.134765625,-1.060546875,0.030648934602942036,1.8541633836583107,15.060366282679214,1.093811505233444,2736,0,16.473201913024358,8.781403753382014,53.3072064541326,0.21114658154104465,0.11255634414292807,0.12109375,,
3.334519999999553,1500,,,,-0.0625,-0.015625,-0.92578125,0.030648934602942036,1.8541633836583107,15.060464747934448,1.0910330465244933,2736,0,16.431464736013655,8.780151842499704,53.43499184984897,0.21117668770639753,0.11284224586469452,0.12109375,,
3.3414899999992924,1500,,,,-0.0625,0.064453125,-0.9375,0.030648934602942036,1.8541633836583107,15.060784888684328,1.0883038262154932,2735,0,16.390709820163636,8.779605180077349,53.564520856057094,0.21118983663021343,0.11312282408766357,0.12109375,,
3.348535000000149,1500,,,,0,0.0703125,-1.015625,0.030648934602942036,1.8541633836583107,15.060837177406382,1.0859337427752314,2735,0,16.355071285389265,8.779362212094869,53.67975509796693,0.21119568128809252,0.11336932449293083,0.12109375,,
3.356174999999814,1500,,,,-0.03125,0.029296875,-0.966796875,0.030648934602942036,1.8541633836583107,15.060888194730536,1.0836229743946928,2735,0,16.320324462599817,8.779254830505389,53.79338413659737,0.21119826448317977,0.11361069370326377,0.12109375,,
3.3676549999993295,1500,,,,-0.125,0.08203125,-0.9921875,0.030648934602942036,1.8541633836583107,15.061041649035952,1.0813545365111705,2734,0,16.286325711768708,8.775127159902656,53.8803368863097,0.21129760855555274,0.11384786332244778,0.12109375,,
3.3756049999995157,1500,,,,-0.09375,0.0390625,-1.037109375,0.030648934602942036,1.8541633836583107,15.061401871216257,1.0759700951565838,2733,0,16.205618004564105,8.773198097059334,54.136769696709344,0.21134406896383692,0.11441485188260696,0.12109375,,
3.3852599999997763,1500,,,,-0.0625,-0.01953125,-0.951171875,0.030648934602942036,1.8541633836583107,15.061545046030865,1.073617050532092,2736,0,16.1703315687759,8.78135754855323,54.30536480469943,0.21114769253004545,0.11466452470514626,0.12109375,,
3.3935849999990313,1500,,,,0.03125,0.134765625,-1.048828125,0.03639074442896988,1.8541633836583107,15.06205718735207,1.071000477338748,2737,0,16.13147043735759,10.429733610837065,64.65457474157888,0.17777667703149516,0.11494075452442334,0.12109375,,
3.4012450000001118,1500,,,,-0.03125,0.001953125,-0.92578125,0.03639074442896988,1.8541633836583107,15.062152300789203,1.0700030916947256,2737,0,16.11654952942127,10.43102269202485,64.72243126844668,0.17775470712722458,0.11504716814684662,0.12109375,,
3.4091200000001116,1500,,,,-0.125,0.1640625,-0.95703125,0.03639074442896988,1.8541633836583107,15.062112396569269,1.068210621044896,2737,0,16.089508437387288,10.429120068659435,64.81938282480543,0.17778713558301626,0.11524052402681118,0.123046875,,
3.415799999999814,1500,,,,-0.09375,0.01953125,-1.03125,0.03639074442896988,1.8541633836583107,15.06219416297218,1.0666982453577547,2736,0,16.066816084880237,10.426156545431223,64.89248703881543,0.1778376696704033,0.11540328674099787,0.123046875,,
3.4232999999998137,1500,,,,0,-0.15234375,-0.984375,0.03639074442896988,1.8541633836583107,15.062272389484523,1.0676460490221615,2736,0,16.081175605928742,10.42561989915766,64.83120484869268,0.17784682365104432,0.11530023855810177,0.123046875,,
3.440304999999702,1500,,,,0.03125,0.05078125,-0.939453125,0.03639074442896988,1.8541633836583107,15.061611454001541,1.0723249179982244,2737,0,16.15094126733332,10.430086907166064,64.57881763375501,0.1777706552362852,0.11480218725137198,0.123046875,,
3.4473849999997763,1500,,,,0,-0.109375,-0.98046875,0.03639074442896988,1.8541633836583107,15.061669299521077,1.0680441278801631,2740,0,16.086527451426416,10.439773192280684,64.89761835675091,0.17760571513462625,0.11526187918784792,0.123046875,,
3.4545999999996275,1500,,,,-0.03125,0.1328125,-0.97265625,0.03639074442896988,1.8541633836583107,15.061683409517151,1.0657282636903813,2740,0,16.051661708278935,10.442816649629638,65.05754257357395,0.1775539536762881,0.11551223900401493,0.123046875,,
3.4627099999990314,1500,,,,-0.0625,0.078125,-1.03515625,0.03639074442896988,1.9772845312720704,15.061699110276937,1.0652481652296726,2741,0,16.0444473424639,10.444272668473428,65.09587052482127,0.1893175900357911,0.12323793329041051,0.123046875,,
3.4710249999994414,1500,,,,-0.09375,-0.0703125,-0.9921875,0.03639074442896988,1.9772845312720704,15.061713889234646,1.0671923829576315,2741,0,16.07374633687838,10.44726897700214,64.995855714313,0.18926329317496476,0.12301329695215728,0.123046875,,
3.4792049999991432,1500,,,,-0.03125,0.056640625,-1.033203125,0.03639074442896988,1.9772845312720704,15.061629344266969,1.0689442333961194,2742,0,16.10004183310395,10.450890498913813,64.91219468402443,0.18919770822185675,0.12281238469868415,0.123046875,,
3.487839999999851,1500,,,,0,-0.0234375,-0.94921875,0.03639074442896988,1.9772845312720704,15.061753245670362,1.0634496385511643,2744,0,16.017416045054972,10.456547486089102,65.28236175345731,0.18909535235244296,0.12344591198169655,0.123046875,,
3.496424999999814,1500,,,,-0.09375,0.123046875,-0.99609375,0.03639074442896988,1.9772845312720704,15.061870671769192,1.0591495226256207,2746,0,15.952773131853176,10.462854552869434,65.58643106368805,0.18898136462480028,0.12394613243286162,0.123046875,,
3.504265000000596,1500,,,,-0.0625,0.07421875,-0.990234375,0.03639074442896988,1.9772845312720704,15.062170761447346,1.0559714867518248,2745,0,15.90522285267542,10.459734966893405,65.76289476594144,0.18903772777517458,0.1243166819847149,0.123046875,,
3.5131899999994785,1500,,,,-0.03125,-0.064453125,-0.921875,0.03639074442896988,1.9772845312720704,15.062270498942162,1.0511807528195263,2744,0,15.833168842249364,10.455578431768318,66.0359182418908,0.18911287827599016,0.12488242568321935,0.125,,
3.523584999999963,1500,,,,0.0625,0,-1.0390625,0.03639074442896988,1.9772845312720704,15.062290009742304,1.048810048351624,2740,0,15.79748111340401,10.442825853884965,66.10437308910171,0.18934381928206492,0.12516454471937072,0.125,,
3.54131500000041,1500,,,,-0.0625,0.060546875,-0.96484375,0.03862158919628403,1.9772845312720704,15.062491890281633,1.0425932672625489,2742,0,15.704052633004373,11.089004048658733,70.61237190044538,0.17831038049907033,0.12590918901510278,0.125,,
3.549364999999292,1500,,,,-0.0625,0.08203125,-1.009765625,0.03862158919628403,1.9772845312720704,15.06266607875065,1.040190545939208,2741,0,15.66804285175563,11.08746731826159,70.76485189098919,0.178335094437247,0.12619856544817354,0.125,,
3.5572099999999627,1500,,,,-0.0625,-0.140625,-0.89453125,0.03862158919628403,1.9772845312720704,15.062537098699659,1.0394348334117895,2739,0,15.65652573994578,11.077786686773686,70.75507600329249,0.17849093751126724,0.12629139849508642,0.125,,
3.5655299999993293,1500,,,,-0.03125,0.056640625,-0.96484375,0.03862158919628403,1.9772845312720704,15.062609595879572,1.0391288734250992,2738,0,15.651992540208427,11.074452241395553,70.75426475540655,0.1785446799690114,0.12632797557196765,0.123046875,,
3.574339999999851,1500,,,,-0.03125,0.025390625,-0.978515625,0.03862158919628403,1.9772845312720704,15.062688170192125,1.037815119952985,2738,0,15.63228553016235,11.074284509609887,70.84238890239152,0.17854738421757632,0.12648723230246264,0.123046875,,
3.58180999999959,1500,,,,-0.09375,0.09375,-0.978515625,0.03862158919628403,1.9772845312720704,15.062687224507597,1.037804781653982,2738,0,15.63212882615233,11.073120648406292,70.83565374590003,0.17856615077671464,0.12648850027157538,0.123046875,,
3.5896249999990686,1500,,,,-0.0625,0.0859375,-1.03125,0.03862158919628403,1.9772845312720704,15.062881883823321,1.0371581821116622,2738,0,15.622591191988885,11.072059233619738,70.87210500200109,0.1785832688889658,0.1265657218429938,0.123046875,,
3.597120000000112,1500,,,,-0.0625,0.0625,-0.9296875,0.03862158919628403,1.9772845312720704,15.062930068013666,1.0364289517135021,2738,0,15.611656820125194,11.073262164457676,70.92944901391238,0.17856386870516308,0.1266543682104981,0.123046875,,
3.605424999999814,1500,,,,-0.03125,-0.01171875,-0.966796875,0.03862158919628403,1.9772845312720704,15.063084612039754,1.035941461843036,2738,0,15.604473892861805,11.075571236358611,70.97689619273278,0.17852664111635974,0.12671266874153125,0.123046875,,
3.613669999998994,1500,,,,0,0.052734375,-1.025390625,0.03862158919628403,2.0486844447581314,15.063326743033334,1.0351681998815507,2738,0,15.59307682881344,11.075594658747328,71.02892379957656,0.18497286221468148,0.13138423335236185,0.125,,
3.621354999999516,1500,,,,0,-0.08984375,-0.94921875,0.03862158919628403,2.0486844447581314,15.063230425037425,1.0367545961795088,2738,0,15.616873376468567,11.074753087820394,70.9153030881827,0.18498691830982664,0.13118403379290247,0.125,,
3.62844000000041,1500,,,,-0.0625,0.087890625,-0.97265625,0.03862158919628403,2.0486844447581314,15.06326381208976,1.035474686844132,2738,0,15.597628378674191,11.073637585849474,70.99564957573851,0.18500555295181934,0.131345894069331,0.125,,
3.636339999999851,1500,,,,-0.0625,0.072265625,-0.97265625,0.03862158919628403,2.0486844447581314,15.06310483790181,1.0344149886820753,2738,0,15.581501420415114,11.072266006833244,71.06032793685849,0.18502847054918903,0.13148183794880736,0.125,,
3.644054999999702,1500,,,,-0.0625,-0.09765625,-0.9453125,0.03862158919628403,2.0486844447581314,15.06308318485981,1.0345724571766644,2738,0,15.583850983216909,11.07171704054679,71.04609157563506,0.18503764477139806,0.13146201455368575,0.125,,
3.6514749999996274,1500,,,,-0.03125,0.087890625,-0.986328125,0.03862158919628403,2.0486844447581314,15.063036042502349,1.0347984184112113,2737,0,15.587205873252502,11.071517105298225,71.02951738320749,0.18504098627800003,0.13143371951439062,0.123046875,,
3.6595699999993667,1500,,,,-0.0625,0.1171875,-0.96484375,0.03862158919628403,2.0486844447581314,15.063083381673684,1.0355749952181326,2738,0,15.598952500947057,11.072281553468367,70.9809299874215,0.1850282107499683,0.13133474472941373,0.123046875,,
3.6685800000000746,1500,,,,-0.03125,-0.02734375,-0.958984375,0.03862158919628403,2.0486844447581314,15.063024137619607,1.034023535725735,2738,0,15.575521477503516,11.073506163206984,71.09557249303651,0.1850077486356692,0.13153231804900697,0.123046875,,
3.680129999998957,1500,,,,-0.0625,0.10546875,-1,0.03862158919628403,2.0486844447581314,15.063072236160451,1.033771800885461,2737,0,15.571779312443379,11.07049079483138,71.09329366095609,0.18505814084725372,0.13156392751604384,0.123046875,,
3.6891549999993294,1500,,,,-0.0625,0.021484375,-0.966796875,0.03862158919628403,2.0486844447581314,15.06283382667049,1.0301945115104842,2736,0,15.517648736030404,11.066958528238127,71.31852715896174,0.18511720627946407,0.13202286503633082,0.123046875,,
3.702855000000447,1500,,,,0,0.10546875,-0.96875,0.03957129665738854,2.0486844447581314,15.061978039137587,1.0319790611226147,2738,0,15.543645955478649,11.34676216808168,72.99936064281174,0.18055233857999234,0.13180205278903914,0.123046875,,
3.721984999999404,1500,,,,-0.09375,0.130859375,-1.03515625,0.03957129665738854,2.0486844447581314,15.062059971185771,1.030891417077644,2737,0,15.527348347804157,11.342561783168021,73.04892972773462,0.1806192008403525,0.13194039309666494,0.12109375,,
3.730929999999702,1500,,,,-0.125,0.0546875,-0.90625,0.03957129665738854,2.0486844447581314,15.06216615202504,1.0322090254466354,2739,0,15.547303844897064,11.348805795055087,72.99533030468169,0.18051982576446823,0.13177104308220944,0.123046875,,
3.7394749999996275,1500,,,,-0.0625,0.08203125,-0.998046875,0.03957129665738854,2.0486844447581314,15.062267718617885,1.032266821928563,2738,0,15.54827922893487,11.346084776834324,72.97325067149302,0.18056311803178118,0.13176277674159548,0.123046875,,
3.746719999999739,1500,,,,0,0.083984375,-0.958984375,0.03957129665738854,2.0486844447581314,15.062255955518326,1.0308793760020356,2737,0,15.527369020607678,11.343022778747015,73.05180139463894,0.1806118602350577,0.13194021743407722,0.123046875,,
3.755325000000186,1500,,,,-0.03125,-0.076171875,-0.986328125,0.03957129665738854,2.0486844447581314,15.062349545608122,1.0303080357958676,2739,0,15.518859774806282,11.34891280824905,73.12981090706914,0.18051812357471178,0.13201256242317613,0.123046875,,
3.7635049999998884,1500,,,,-0.0625,-0.04296875,-0.94140625,0.03957129665738854,2.0486844447581314,15.062431431032964,1.0300234746446497,2739,0,15.514657959189357,11.35098353706194,73.1629634821484,0.18048519214823988,0.13204831522210211,0.123046875,,
3.7715949999997394,1500,,,,-0.0625,0.01171875,-1.021484375,0.03957129665738854,2.087860071552874,15.06260648992657,1.0295432616997062,2185,0,15.507605015338163,9.053882958081557,58.383502475892314,0.2306038283485028,0.13463459183335058,0.123046875,,
3.779375,1500,,,,0,-0.1171875,-0.94140625,0.03957129665738854,2.087860071552874,15.062609477051074,1.0297238515469422,2517,0,15.510328245056506,10.431440978197896,67.2548047558093,0.20015068636409675,0.13461095333158551,0.123046875,,
3.7866949999993667,1500,,,,-0.0625,0.169921875,-1.041015625,0.03957129665738854,2.087860071552874,15.062755385580903,1.0281961771603232,2643,0,15.487467504955355,10.95127563608632,70.7105640904968,0.1906499426124404,0.13480964985946503,0.123046875,,
3.7944550000000743,1500,,,,0,-0.01171875,-0.916015625,0.03957129665738854,2.087860071552874,15.062816775675568,1.0302100106810284,2702,0,15.5178646313551,11.196494954074803,72.15229169773384,0.186474435090334,0.13454557834807915,0.123046875,,
3.802424999999814,1500,,,,-0.0625,0.09765625,-0.953125,0.03957129665738854,2.087860071552874,15.062940017778246,1.0288708465240957,2723,0,15.49781984723318,11.283735347377764,72.80853344925316,0.18503270479824516,0.13471959876508816,0.123046875,,
3.8101599999992177,1500,,,,-0.03125,0.05859375,-1.025390625,0.03957129665738854,2.087860071552874,15.062991992121376,1.027173112059966,2731,0,15.472300361481661,11.318213251534882,73.1514576831226,0.1844690522392954,0.1349418006872855,0.123046875,,
3.8185449999999257,1500,,,,-0.0625,-0.048828125,-0.94140625,0.03957129665738854,2.087860071552874,15.062714843168651,1.0272583636708625,2737,0,15.47329980223424,11.340603531086124,73.29143541475631,0.18410484643341668,0.13493308461918388,0.123046875,,
3.8263849999997763,1500,,,,-0.125,0.234375,-0.9609375,0.03957129665738854,2.087860071552874,15.062582090890524,1.0273392828418526,2739,0,15.474382283002004,11.349439313117294,73.34340786956132,0.18396151686011455,0.13492364563374562,0.123046875,,
3.8363600000003353,1500,,,,-0.03125,0.099609375,-0.96484375,0.03957129665738854,2.087860071552874,15.062457328931883,1.025109451585485,2739,0,15.440667371991132,11.349421794387322,73.50344075784446,0.1839618008192622,0.13521825328225023,0.123046875,,
3.8535099999997766,1500,,,,-0.03125,0.119140625,-1.015625,0.03959193039155884,2.087860071552874,15.06258625137309,1.027114461623872,2738,0,15.47100016824221,11.353510725882346,73.38575788518213,0.18389554755017104,0.13495314128679847,0.123046875,,
3.8604949999991804,1500,,,,-0.09375,-0.046875,-0.953125,0.03959193039155884,2.087860071552874,15.062647035692002,1.027938153154366,2739,0,15.483469575485325,11.354533607889286,73.33326392081202,0.18387898117648796,0.13484445856105418,0.123046875,,
3.869459999999963,1500,,,,-0.0625,0.041015625,-0.94921875,0.03959193039155884,2.087860071552874,15.062801986832355,1.0294959163386082,2740,0,15.507093134060982,11.358867630318523,73.24949642153773,0.18380882139871602,0.13463903605292318,0.123046875,,
3.877339999999851,1500,,,,-0.0625,0.11328125,-1.0625,0.03959193039155884,2.087860071552874,15.062733707989963,1.0300746439427095,2740,0,15.51574006106161,11.358493806594481,73.206265133945,0.18381487080097805,0.13456400167418242,0.123046875,,
3.8855499999998138,1500,,,,-0.0625,-0.03125,-0.91796875,0.03959193039155884,2.087860071552874,15.062795106691906,1.0273883420398338,2739,0,15.475340091149919,11.354842359150268,73.37378236775493,0.18387398129489466,0.1349152948662424,0.123046875,,
3.893280000000261,1500,,,,-0.03125,0.068359375,-0.97265625,0.03959193039155884,2.087860071552874,15.062854431267557,1.027676644878468,2739,0,15.479743704217807,11.35513751496891,73.35481602240576,0.18386920183049763,0.13487691472462746,0.123046875,,
3.9006849999995903,1500,,,,-0.0625,0.12109375,-0.98046875,0.03959193039155884,2.087860071552874,15.063076303618292,1.0279172077620204,2740,0,15.48359533432157,11.358518358950041,73.35840361167463,0.18381447347027674,0.13484336334500024,0.123046875,,
3.9084549999991434,1500,,,,-0.03125,-0.033203125,-0.982421875,0.03959193039155884,2.087860071552874,15.062925912642728,1.0288147137360157,2740,0,15.496959810842341,11.360101142259413,73.30535331395386,0.1837888629165514,0.1347270753126763,0.12109375,,
3.917674999999814,1500,,,,-0.0625,0.11328125,-0.96875,0.03959193039155884,2.102818824760903,15.062764557301625,1.0330084989872153,2740,0,15.559963805935977,11.36076594090372,73.0128044164839,0.18509481101004266,0.13514291234782294,0.12109375,,
3.925634999998845,1500,,,,-0.0625,0.064453125,-0.958984375,0.03959193039155884,2.102818824760903,15.062694253649415,1.0306733428186903,2741,0,15.52471743826472,11.363634742755973,73.1970471471985,0.1850480829737507,0.13544973253928327,0.12109375,,
3.9337999999998137,1500,,,,-0.0625,0.0234375,-0.98828125,0.03959193039155884,2.102818824760903,15.062562267463509,1.03016157022375,2742,0,15.516872797043218,11.367402745119461,73.2583355796121,0.1849867442819107,0.135518209903841,0.12109375,,
3.941644999999553,1500,,,,-0.09375,0.068359375,-0.970703125,0.03959193039155884,2.102818824760903,15.062764507496304,1.0292449808499091,2742,0,15.503274767064724,11.367716950246601,73.32461767623616,0.18498163122501804,0.13563707386700957,0.12109375,,
3.949034999999218,1500,,,,-0.0625,-0.125,-0.92578125,0.03959193039155884,2.102818824760903,15.062695916024078,1.0292290358105718,2742,0,15.502963994357298,11.367258090327475,73.32312772231737,0.1849890983429166,0.13563979285034,0.12109375,,
3.9568300000000747,1500,,,,-0.0625,0.10546875,-1.01171875,0.03959193039155884,2.102818824760903,15.062859187694949,1.0284629419080946,2741,0,15.49159247372412,11.365892689501509,73.36813635382956,0.1850113213459461,0.1357393585151155,0.12109375,,
3.9639349999995903,1500,,,,0,0.0390625,-0.9453125,0.03959193039155884,2.102818824760903,15.062850927014418,1.026608535031371,2741,0,15.4636513235782,11.364848850058664,73.4939543853405,0.1850283142789047,0.1359846248961027,0.12109375,,
3.971734999999404,1500,,,,0,0.009765625,-0.91796875,0.03959193039155884,2.102818824760903,15.062901169502357,1.0268987711342692,2741,0,15.468074700678917,11.362741444221111,73.4593132248216,0.18506263079939744,0.13594573762102452,0.119140625,,
3.979929999999702,1500,,,,-0.0625,0.13671875,-0.953125,0.03959193039155884,2.102818824760903,15.062888497179271,1.0253580190035885,2740,0,15.444853509939676,11.359863871503052,73.5511273330777,0.18510950910564689,0.13615013074792942,0.119140625,,
3.990534999999218,1500,,,,-0.0625,0.025390625,-0.982421875,0.039600090300298395,2.102818824760903,15.062551317253202,1.030843787269267,2740,0,15.52713744581498,11.361217398759022,73.17007039067079,0.18508745594381398,0.13542862179839046,0.119140625,,
4.006739999999292,1500,,,,-0.0625,0.1015625,-1.03125,0.039600090300298395,2.102818824760903,15.062275255058662,1.035277128736466,2744,0,15.593629078295452,11.378723201916184,72.9703338766347,0.18480270478912675,0.13485115069767734,0.119140625,,
4.015099999999627,1500,,,,-0.0625,0.03125,-0.9375,0.039600090300298395,2.102818824760903,15.062363345925434,1.0356170618275073,2746,0,15.59884047248564,11.387312006451578,73.00101585459086,0.18466331857505386,0.13480609847058866,0.119140625,,
4.023815000000409,1500,,,,0,0.03515625,-0.94140625,0.039600090300298395,2.102818824760903,15.062449617418018,1.0320609345153509,2746,0,15.54536582824283,11.386974690934187,73.24996282973493,0.18466878884301693,0.13526981918563158,0.119140625,,
4.031654999999329,1500,,,,-0.0625,0.076171875,-0.9921875,0.039600090300298395,2.102818824760903,15.062525798403405,1.0314800923595477,2746,0,15.536695501705214,11.386853993469149,73.29006346439239,0.18467074628048805,0.13534530714913676,0.119140625,,
4.03955999999959,1500,,,,-0.0625,-0.140625,-0.88671875,0.039600090300298395,2.102818824760903,15.06266311707762,1.0296568536717194,2745,0,15.509374313047196,11.385042497570051,73.4074906425621,0.18470012959632914,0.1355837303502254,0.12109375,,
4.047884999999776,1500,,,,-0.03125,0.044921875,-1.015625,0.039600090300298395,2.102818824760903,15.062728255333921,1.0285640890577405,2745,0,15.492981366671824,11.38168994961886,73.46352312862722,0.1847545341745424,0.13572718994450242,0.119140625,,
4.055764999999664,1500,,,,-0.0625,0.037109375,-0.939453125,0.039600090300298395,2.102818824760903,15.062921849667989,1.0281549568985902,2744,0,15.487017765112222,11.377705821018525,73.46608619930177,0.18481922962679137,0.13577945455050403,0.119140625,,
4.064910000000149,1500,,,,0,0.0234375,-0.93359375,0.039600090300298395,2.0931876402902554,15.062761185801628,1.027718987105929,2743,0,15.48028566889055,11.373241547146453,73.46919682498053,0.18404494722223116,0.13521634452113254,0.119140625,,
4.0718199999993665,1500,,,,-0.0625,0.064453125,-0.98828125,0.039600090300298395,2.0931876402902554,15.062820985018362,1.0277765867623467,2742,0,15.481214738994423,11.36912468949479,73.43819513631568,0.18411159147760833,0.1352082298179024,0.119140625,,
4.079125,1500,,,,-0.125,0.09765625,-0.91796875,0.039600090300298395,2.0931876402902554,15.062785626833334,1.0280125088245717,2741,0,15.484732042127634,11.367580125809036,73.41153915277637,0.18413660753864994,0.13517751773783018,0.119140625,,
4.086054999999702,1500,,,,-0.0625,0.03515625,-0.951171875,0.039600090300298395,2.0931876402902554,15.062838247261977,1.0285212208300991,2741,0,15.4924487832402,11.366904512261296,73.37061216918829,0.18414755204746971,0.13511018623180315,0.119140625,,
4.094495000000112,1500,,,,0,0.09375,-1.01953125,0.039600090300298395,2.0931876402902554,15.06296185391066,1.0278957907058168,2741,0,15.483155085197053,11.366587941451451,73.41260795300488,0.18415268074044103,0.13519128554692866,0.119140625,,
4.101899999999441,1500,,,,-0.03125,0.05078125,-0.923828125,0.039600090300298395,2.0931876402902554,15.0630929676433,1.0293897985802969,2741,0,15.505794235958623,11.364834620518291,73.29411475203726,0.1841810910746712,0.13499390024382374,0.119140625,,
4.109339999999851,1500,,,,0,0.083984375,-0.94140625,0.039600090300298395,2.0931876402902554,15.063039672497716,1.0321201976330796,2740,0,15.546867483733262,11.364014849073918,73.09520622700441,0.18419437743526307,0.13463726004485244,0.1171875,,
4.116734999999404,1500,,,,-0.0625,0.05859375,-1.03125,0.039600090300298395,2.0931876402902554,15.063023541635358,1.0340522632861036,2741,0,15.575953585159901,11.366999201177693,72.97787027310919,0.1841460180689894,0.1343858421794833,0.1171875,,
4.124849999999627,1500,,,,-0.125,0.10546875,-0.890625,0.039600090300298395,2.0931876402902554,15.062973938330142,1.032751924580143,2741,0,15.556315324710992,11.368379272048408,73.07886883721041,0.18412366355834073,0.13455549059006638,0.1171875,,
4.1329550000000745,1500,,,,-0.09375,-0.048828125,-0.98046875,0.039600090300298395,2.0931876402902554,15.063024755788586,1.0312713028426026,2742,0,15.534065164652471,11.370706437947248,73.19852413018788,0.184085980208292,0.1347482206430595,0.119140625,,
4.145234999999404,1500,,,,-0.03125,0.03515625,-1.021484375,0.03960371916895931,2.0931876402902554,15.062858036654758,1.0306625475531925,2742,0,15.524723637490673,11.37271014375511,73.25547564847557,0.18405354694102088,0.1348293012595351,0.119140625,,
4.1535249999994415,1500,,,,-0.03125,0.04296875,-0.955078125,0.03960371916895931,2.0931876402902554,15.062868761139233,1.0293972962809885,2742,0,15.50567637695209,11.373100211725893,73.34797873526541,0.1840472343796054,0.1349949263355971,0.1171875,,
4.161354999999515,1500,,,,-0.03125,0.115234375,-0.962890625,0.03960371916895931,2.0931876402902554,15.062828479127685,1.0313866207940758,2742,0,15.535599764688271,11.373185343831123,73.20724990406788,0.18404585672435314,0.1347349102702799,0.1171875,,
4.179129999999888,1500,,,,-0.0625,0.076171875,-1.029296875,0.03960371916895931,2.0931876402902554,15.062602387552955,1.0302175104179403,2741,0,15.517756732120128,11.368380483024618,73.2604633470846,0.18412364394522374,0.13488983468580718,0.1171875,,
4.1866499999994415,1500,,,,-0.0625,0.08984375,-0.9921875,0.03960371916895931,2.0931876402902554,15.062669934900928,1.0297352378301021,2741,0,15.510562007771536,11.36606113045069,73.27949254679325,0.1841612161210729,0.13495240464152544,0.1171875,,
4.194120000000112,1500,,,,-0.0625,-0.01171875,-1.01171875,0.03960371916895931,2.0931876402902554,15.062734780992626,1.0283199623425254,2741,0,15.489310862765786,11.366884867139063,73.3853492117814,0.18414787030539273,0.13513755768967078,0.1171875,,
4.203660000000149,1500,,,,-0.0625,0.22265625,-1.0390625,0.03960371916895931,2.0931876402902554,15.06273150433721,1.02983625724957,2741,0,15.512147036381817,11.36721207945942,73.27942452323998,0.18414256949359206,0.1349386152272115,0.119140625,,
4.211344999999739,1500,,,,-0.0625,-0.015625,-0.953125,0.03960371916895931,2.0715055218236462,15.06290994855266,1.0296673890455095,2739,0,15.509787158153847,11.358061355452527,73.23157461565381,0.1823819626427008,0.1335611830581833,0.1171875,,
4.218824999999255,1500,,,,0,0.05078125,-0.970703125,0.03960371916895931,2.0715055218236462,15.062868846387996,1.0308589549635594,2739,0,15.527693237740685,11.358437567051187,73.14954895839935,0.1823759218286075,0.13340716422634938,0.1171875,,
4.226629999999888,1500,,,,0,0.0078125,-1.05859375,0.03960371916895931,2.0715055218236462,15.062604840702143,1.0324213181409603,2740,0,15.550954344274116,11.362065197584625,73.06345929674826,0.18231769364111833,0.1332076138842487,0.1171875,,
4.233774999999441,1500,,,,-0.0625,-0.052734375,-0.92578125,0.03960371916895931,2.0715055218236462,15.062492870733204,1.0313367128342128,2740,0,15.534501884390748,11.363445784141014,73.1497274177754,0.18229554319823207,0.13334869294425974,0.1171875,,
4.242909999999218,1500,,,,-0.125,0.17578125,-1.05078125,0.03960371916895931,2.0715055218236462,15.06242953253684,1.0304932675904321,2740,0,15.521732226834512,11.36413207759373,73.21432886174279,0.18228453415355517,0.13345839829927972,0.119140625,,
