Time (s),ESC signal (µs),Servo 1 (µs),Servo 2 (µs),Servo 3 (µs),AccX (g),AccY (g),AccZ (g),Torque (N·m),Thrust (N),Voltage (V),Current (A),Motor Electrical Speed (RPM),Motor Optical Speed (RPM),Electrical Power (W),Mechanical Power (W),Motor Efficiency (%),Propeller Mech. Efficiency (N/W),Overall Efficiency (N/W),Vibration (g),App message,90% settling time (s),Max acceleration (RPM/s),
0,1000,,,,-0.0625,0.05078125,-0.955078125,-0.0013255494295400835,0.007270828826574461,15.093182632686553,0.051372104488993584,0,0,0.7753685552778369,0,0,0,0,0.05859375,,
0,1200,,,,-0.0625,0.046875,-0.953125,-0.0013255494295400835,0.007270828826574461,15.093443942966815,0.04910067617471307,0,0,0.741098303404798,0,0,0,0,0.05859375,,
0.007940000000409782,1200,,,,-0.0625,0.05078125,-0.953125,-0.0013255494295400835,0.007270828826574461,15.09333813003687,0.04971194432183905,0,0,0.7503191847510832,0,0,0,0,0.05859375,,
0.016595000000670553,1200,,,,-0.0625,0.05078125,-0.953125,-0.0013255494295400835,0.007270828826574461,15.093479337910903,0.05019712476937377,0,0,0.7576492655290786,0,0,0,0,0.05859375,,
0.024295000000856815,1200,,,,-0.0625,0.05078125,-0.953125,-0.0013255494295400835,0.007270828826574461,15.093601786592009,0.05019627849711633,0,0,0.7576426388043451,0,0,0,0,0.05859375,,
0.03165500000026077,1200,,,,-0.0625,0.05078125,-0.953125,-0.0013255494295400835,0.007270828826574461,15.09347599731925,0.05075340656238886,0,0,0.7660453237316015,0,0,0,0,0.05859375,,
0.0395,1200,,,,-0.0625,0.05078125,-0.95703125,-0.0013255494295400835,0.007270828826574461,15.093599663826563,0.05918130918014439,0,0,0.8932589883462432,0,0,0,0,0.05859375,,
0.0470550000006333,1200,,,,-0.0625,0.046875,-0.921875,-0.0013255494295400835,0.007270828826574461,15.09247157010812,0.08701135551570403,0,0,1.3132164093973335,0,0,0,0,0.05859375,,
0.05558500000089407,1200,,,,0,0.01953125,-0.96484375,-0.0013479633818830876,0.007270828826574461,15.091454779545419,0.11753727438233777,0,0,1.7738084612520726,0,0,0,0,0.05859375,,
0.06342000000085682,1200,,,,-0.0625,0.029296875,-0.943359375,-0.0013479633818830876,0.007270828826574461,15.090505914231827,0.1421803802763847,0,0,2.1455738694485134,0,0,0,0,0.05859375,,
0.07391000000014901,1200,,,,-0.03125,0.037109375,-0.982421875,-0.0013479633818830876,0.007270828826574461,15.090054459952576,0.15634517205620907,0,0,2.3592571608788506,0,0,0,0,0.05859375,,
0.09062000000011176,1200,,,,-0.03125,0.06640625,-0.970703125,-0.0013479633818830876,0.007591299587394204,15.089523924444983,0.17580242275517283,0,0,2.6527748641395714,0,0,0,0,0.05859375,,
0.09773500000033528,1200,,,,-0.125,0.04296875,-0.96875,-0.0013479633818830876,0.007591299587394204,15.089385095389682,0.17887261839510069,2,0,2.6990778219843587,0.00033016839565938214,0.012232637124061979,0,0.0028125530599977626,0.05859375,,
0.10491000000014901,1200,,,,-0.03125,-0.013671875,-1.001953125,-0.0013479633818830876,0.007591299587394204,15.08932635070155,0.1821106688362266,3,0,2.7479273140143574,0.00042230489280068405,0.015368124573271648,0,0.0027625547257668624,0.060546875,,
0.11189500000048429,1200,,,,-0.0625,-0.015625,-0.90625,-0.0013479633818830876,0.007591299587394204,15.089268344845651,0.18289021038589742,3,0,2.759679462158083,0.0004637843063637782,0.01680573098156467,0,0.0027507903332576783,0.060546875,,
0.11866500000003725,1200,,,,0,0.0078125,-1.03125,-0.0013479633818830876,0.007591299587394204,15.089214667240045,0.1824171718745405,3,0,2.7525318654057647,0.0004813253782338549,0.01748664145484471,0,0.0027579334077119325,0.060546875,,
0.1322050000000745,1200,,,,-0.03125,0.052734375,-0.986328125,-0.0013479633818830876,0.007591299587394204,15.089132571171731,0.1796380162944493,3,0,2.7105818426892534,0.0004911122999828387,0.018118335047046238,0,0.002800616261733177,0.060546875,,
0.14108000000100582,1200,,,,-0.0625,0.05078125,-0.9453125,-0.0013479633818830876,0.007591299587394204,15.089246295679624,0.17730784002328806,3,0,2.675441668266355,0.0004938965536016078,0.01846037457888757,0,0.0028374005224764435,0.060546875,,
0.15044500000029803,1200,,,,-0.03125,0.064453125,-0.966796875,-0.0013479633818830876,0.007591299587394204,15.089251673521495,0.17348253021496418,4,0,2.6177215593728915,0.0004948138684250817,0.018902463734287334,0,0.0028999644978332973,0.060546875,,
0.1586100000012666,1200,,,,-0.0625,0.09375,-0.9921875,-0.0013479633818830876,0.007591299587394204,15.08925568576217,0.16999397410580286,4,0,2.565082540321293,0.0004950793598916997,0.019300718480181455,0,0.0029594757548984546,0.0625,,
0.16667500000074506,1200,,,,-0.0625,0.11328125,-0.986328125,-0.0013479633818830876,0.007591299587394204,15.089388928193088,0.16733697531936137,4,0,2.5250127026612916,0.0004951836854604416,0.019611136408879532,0,0.0030064401574666096,0.0625,,
0.17552500000130386,1200,,,,-0.03125,0.021484375,-0.962890625,-0.0013479633818830876,0.007591299587394204,15.08931284891938,0.1628205843587548,4,0,2.456850735633121,0.0004952278375516698,0.02015701769623589,0,0.0030898497321360284,0.0625,,
0.18362000000011175,1200,,,,-0.0625,0.05078125,-0.94140625,-0.0013479633818830876,0.007591299587394204,15.08944599841406,0.1593918820413693,102,0,2.405135196648826,0.01433132834826066,0.5958637322437877,0.5296996484150425,0.0031562880947280944,0.0625,,
0.1929300000006333,1200,,,,-0.0625,0.046875,-0.95703125,-0.0013479633818830876,0.007591299587394204,15.089586304462577,0.15673034593263133,348,0,2.3649960814787154,0.049187488961836424,2.0798127044287495,0.1543339525480583,0.0032098571523415543,0.0625,,
0.2014750000005588,1200,,,,-0.03125,0.029296875,-0.962890625,-0.001103838820967127,0.007591299587394204,15.08949903506228,0.1522979830227888,437,0,2.298100267864303,0.05052269704439848,2.198454860777281,0.1502552324299532,0.0033032934609285073,0.0625,,
0.20859000000078232,1200,,,,-0.0625,0.01953125,-0.94140625,-0.001103838820967127,0.007591299587394204,15.089433700462186,0.14983299593545668,465,0,2.2608950583096936,0.05376545110538489,2.3780604459183254,0.14119289304417082,0.0033576523419311926,0.0625,,
0.21664500000048428,1200,,,,-0.03125,0.02734375,-0.958984375,-0.001103838820967127,0.007591299587394204,15.08955791943303,0.14721627369750878,478,0,2.221428488641664,0.05525118245174317,2.487191585695724,0.13739614702408418,0.0034173054078531478,0.060546875,,
0.22802500000037254,1200,,,,-0.0625,0.068359375,-0.99609375,-0.001103838820967127,0.007591299587394204,15.08967780616181,0.1437344794004868,483,0,2.1689069837897477,0.05584801434546156,2.5749381952691164,0.1359278333592375,0.003500057699168762,0.0625,,
0.24572000000067054,1200,,,,-0.0625,0.078125,-0.984375,-0.001103838820967127,0.034618544817790066,15.090211356835484,0.1359030762744502,486,0,2.0508061450255872,0.05620022368744171,2.7403966885783113,0.6159858902043088,0.01688045693726851,0.0625,,
0.2541300000008196,1200,,,,-0.03125,0.021484375,-0.95703125,-0.001103838820967127,0.034618544817790066,15.090293504438105,0.13316531492679237,486,0,2.0095036868562297,0.056221610142457856,2.797785866738758,0.6157515718612722,0.017227410451756416,0.0625,,
0.26325,1200,,,,-0.03125,0.021484375,-0.9453125,-0.001103838820967127,0.034618544817790066,15.090550161274429,0.1308419795130594,498,0,1.974477455042264,0.05756672541709398,2.915542300576015,0.6013638011709863,0.01753301600349195,0.0625,,
0.2708300000010058,1200,,,,-0.0625,0.05078125,-0.97265625,-0.001103838820967127,0.034618544817790066,15.09061349517455,0.13016235119259628,521,0,1.9642297334706427,0.060247999385371946,3.067258292588738,0.5746007364718463,0.017624488738708664,0.0625,,
0.2789400000004098,1200,,,,-0.0625,0.07421875,-0.978515625,-0.001103838820967127,0.034618544817790066,15.090879466708206,0.12685836193447703,532,0,1.9144042492972373,0.06148858904533623,3.2118915880963077,0.5630076304444946,0.01808319472258707,0.0625,,
0.2868300000000745,1200,,,,-0.0625,0.11328125,-1,-0.001103838820967127,0.034618544817790066,15.090934401054538,0.12374020021315357,536,0,1.8673552441900554,0.06197329888841139,3.3187739227032624,0.5586041963027324,0.018538810398021226,0.0625,,
0.2946800000006333,1200,,,,-0.0625,0.056640625,-0.974609375,-0.001103838820967127,0.034618544817790066,15.091051592388682,0.12057186225361002,538,0,1.8195561938596103,0.06216439146976936,3.416459006847563,0.5568870538148051,0.019025817908023945,0.0625,,
0.30266000000108034,1200,,,,-0.03125,0.0703125,-0.998046875,-0.001103838820967127,0.034618544817790066,15.090902221440814,0.12031299763138856,538,0,1.815631683223725,0.0622401386546424,3.428015672437078,0.5562093138943853,0.01906694245185427,0.0625,,
0.31058000000100583,1200,,,,-0.0625,0.04296875,-0.97265625,-0.001103838820967127,0.034618544817790066,15.090825335351242,0.11729917846814944,539,0,1.7701414142430365,0.0622700914590196,3.5178032081492248,0.5559417692612959,0.019556937394515427,0.0625,,
0.3187200000006706,1200,,,,-0.0625,0.0546875,-0.98828125,-0.001103838820967127,0.034618544817790066,15.090883202003141,0.11495679100199602,539,0,1.7347995062882076,0.06228193269052109,3.5901516264424163,0.555836071912052,0.01995535777610417,0.0625,,
0.32659500000067054,1200,,,,-0.0625,0.03515625,-0.9453125,-0.001103838820967127,0.034618544817790066,15.091066803613204,0.11349986840107834,539,0,1.7128340962419806,0.062286550063425,3.636461359572648,0.5557948671509142,0.020211265582431123,0.0625,,
0.3346600000010803,1200,,,,-0.03125,0.029296875,-0.94140625,-0.001103838820967127,0.034618544817790066,15.09081727599311,0.11166272060935784,539,0,1.6850817132560891,0.06228840676990438,3.6964620931969097,0.5557782998957128,0.02054413417785926,0.0625,,
0.34275500000081954,1200,,,,-0.0625,0.0625,-1,-0.001103838820967127,0.034618544817790066,15.090809861216066,0.10990553351218976,541,0,1.658563508927966,0.06251599650215865,3.769285659888096,0.5537549867991739,0.020872607308336483,0.0625,,
0.35185500000044706,1200,,,,0,0,-0.94921875,0.0005091101926503336,0.034618544817790066,15.090802065505839,0.107343922941264,544,0,1.6199058940415265,0.02898679940326962,1.7894125522903086,0,0.021370713536586844,0.0625,,
0.360464999999851,1200,,,,0,0.00390625,-1.005859375,0.0005091101926503336,0.034618544817790066,15.090650029700422,0.10459429660213061,545,0,1.5783959251254371,0.02904157335840518,1.83994224111401,0,0.021932738336890273,0.0625,,
0.3736100000012666,1200,,,,-0.125,0.1015625,-0.98828125,0.0005091101926503336,0.034618544817790066,15.089007835476394,0.1478356792043746,545,0,2.230693721877783,0.02906403058274088,1.3029144385754121,0,0.015519183327708658,0.0625,,
0.38391000000108033,1200,,,,-0.041015625,0.0078125,-0.9375,0.0005091101926503336,0.054367301686829454,15.088458074937732,0.1752109776546739,545,0,2.6436634906113987,0.02906958754031677,1.099594847965838,0,0.02056513693210476,0.064453125,,
0.3919950000001118,1200,,,,-0.03125,-0.041015625,-0.958984375,0.0005091101926503336,0.054367301686829454,15.087025730320326,0.21988607821383516,545,0,3.3174269197513584,0.029071759352324592,0.8763345826621413,0,0.016388394681171845,0.064453125,,
0.40125499999988823,1200,,,,0.0625,0.06640625,-0.99609375,0.0005091101926503336,0.054367301686829454,15.086285757185365,0.2455166269453948,545,0,3.703933992238502,0.029072326380408832,0.7849040085846329,0,0.014678258792072086,0.064453125,,
0.41039000000059606,1200,,,,-0.0625,-0.02734375,-0.974609375,0.0005091101926503336,0.054367301686829454,15.085647524821002,0.2628018815058133,600,0,3.9645365532564747,0.03200687198655308,0.8073294710894418,0,0.013713406587756667,0.06640625,,
0.4180050000008196,1200,,,,-0.03125,0.080078125,-1.001953125,0.0005091101926503336,0.054367301686829454,15.085194785418055,0.2767508140909226,647,0,4.174839937584587,0.03451571328852561,0.8267553679793329,0,0.013022607453133743,0.06640625,,
0.42549500000104307,1200,,,,-0.125,0.05859375,-0.96875,0.0005091101926503336,0.054367301686829454,15.085142260509842,0.2831030757774591,663,0,4.2706501724908685,0.035324561713358904,0.8271471622962682,0,0.012730450748935864,0.06640625,,
0.43391500000096855,1200,,,,-0.03125,0.06640625,-0.984375,0.0005091101926503336,0.054367301686829454,15.084988472346927,0.2889143953690288,670,0,4.358270323636882,0.03569373483705283,0.8189885478986806,0,0.012474513430699984,0.06640625,,
0.4416250000009313,1200,,,,-0.03125,0.01953125,-1,0.0005091101926503336,0.054367301686829454,15.08493993515551,0.2922187930707177,672,0,4.408102941395414,0.035839869920514515,0.8130452123508979,0,0.012333491846635309,0.06640625,,
0.4497250000005588,1200,,,,-0.0625,0.09765625,-0.97265625,0.0005091101926503336,0.054367301686829454,15.084959240843158,0.2940768204837092,673,0,4.4361368506735035,0.035897358848459314,0.8092031435641869,0,0.012255551060958658,0.06640625,,
0.45783500000089405,1200,,,,-0.03125,-0.015625,-0.96875,0.0005091101926503336,0.054367301686829454,15.084813352237099,0.2939283089376285,851,0,4.43385367926281,0.04537434473367877,1.0233613469451002,0,0.012261861942153396,0.068359375,,
0.4661200000001118,1200,,,,0,0.060546875,-0.955078125,0.0005091101926503336,0.054367301686829454,15.084707721768767,0.2904760019097158,921,0,4.381745588996009,0.04908969426870057,1.1203227862425602,0,0.012407681044596351,0.068359375,,
0.47457500000018626,1200,,,,0,0.015625,-0.99609375,0.0005091101926503336,0.054367301686829454,15.08503460768634,0.28658260394653223,950,0,4.323108498494307,0.050633048965742236,1.171218556818021,0,0.012575974372552763,0.068359375,,
0.4825600000005215,1200,,,,-0.03125,0.046875,-0.95703125,0.0005091101926503336,0.054367301686829454,15.085178948714951,0.28363307875216104,960,0,4.2786557487513095,0.05115481587645467,1.195581483539165,0,0.012706631446733266,0.068359375,,
0.4901550000011921,1200,,,,0,0.046875,-1.005859375,0.0005091101926503336,0.054367301686829454,15.085250996672196,0.2801031861021326,989,0,4.225426867318253,0.05274754669116106,1.248336519539345,0,0.012866700429094088,0.06640625,,
0.49820999999996274,1200,,,,-0.0625,0.0234375,-0.9453125,0.0005091101926503336,0.054367301686829454,15.085485326612588,0.2771105005358348,1028,0,4.1803463896836055,0.05478797566418845,1.3106085131939302,0,0.01300545376359214,0.06640625,,
0.5050849999999627,1200,,,,-0.03125,0.05078125,-0.970703125,0.0077206417768371505,0.054367301686829454,15.085594508754419,0.2740441661883286,1042,0,4.1341191686068335,0.8421693036417374,20.37119079771331,0.06455626137373151,0.013150879176313347,0.06640625,,
0.5132700000004843,1200,,,,0,0.01171875,-1.0390625,0.0077206417768371505,0.054367301686829454,15.085612898900894,0.27009617591204294,1048,0,4.07456635528252,0.8472009521873168,20.79242005935069,0.06417285243419886,0.013343089042185882,0.06640625,,
0.5207550000008195,1200,,,,-0.0625,0.068359375,-0.947265625,0.0077206417768371505,0.054367301686829454,15.085727319219398,0.2651746732785091,1051,0,4.000352813042682,0.849386579196056,21.23279167844222,0.0640077239486031,0.013590626684119268,0.06640625,,
0.5295900000007823,1200,,,,-0.0625,0.05078125,-0.9765625,0.0077206417768371505,0.06770904228250131,15.086049775160147,0.2611583853356825,1052,0,3.9398484003745597,0.8502957510410304,21.58194084219568,0.07962999015296039,0.01718569736745816,0.06640625,,
0.5404900000011549,1200,,,,-0.03125,0.025390625,-0.916015625,0.0077206417768371505,0.06770904228250131,15.086289743112035,0.2562734383333016,1070,0,3.866215344159742,0.8651835827972381,22.378049482012788,0.07825974004683514,0.017513003352175347,0.068359375,,
0.5474599999999628,1200,,,,-0.0625,0.0390625,-0.94140625,0.0077206417768371505,0.06770904228250131,15.086395089894378,0.2520008868548616,1078,0,3.8017849420962126,0.8712256324560034,22.916226081310917,0.07771699977608339,0.017809803372299166,0.068359375,,
0.5549600000008941,1200,,,,-0.0625,0.056640625,-0.978515625,0.0077206417768371505,0.06770904228250131,15.086634077101262,0.24867271648031383,1080,0,3.751634278497243,0.8728463213726713,23.26576250716792,0.07757269593119154,0.018047879205758535,0.068359375,,
0.5630400000000373,1200,,,,0,0.01953125,-0.95703125,0.0077206417768371505,0.06770904228250131,15.086702228874865,0.24461974683610452,1081,0,3.690505279819063,0.8736246087321645,23.672222161811845,0.07750358861887272,0.01834682168123627,0.068359375,,
0.5709350000005216,1200,,,,-0.0625,0.08203125,-0.984375,0.0077206417768371505,0.06770904228250131,15.086764105815302,0.24476478351668665,1086,0,3.6927085503272012,0.8781459766933707,23.780538450984995,0.07710454079338547,0.01833587497082644,0.068359375,,
0.5799550000010059,1200,,,,-0.0625,0.044921875,-0.9765625,0.0077206417768371505,0.06770904228250131,15.086832420094446,0.24336512026302873,1091,0,3.6716087863044455,0.882391988650157,24.032843366689505,0.07673351883676949,0.018441246391789998,0.068359375,,
0.5876600000001491,1200,,,,0,0.0078125,-0.9453125,0.0077206417768371505,0.06770904228250131,15.086954036243057,0.23924764733369955,1093,0,3.609518258602814,0.8838103723242061,24.485549289514186,0.07661037299714306,0.01875847064109613,0.068359375,,
0.5957000000001863,1200,,,,-0.03125,0.052734375,-0.986328125,0.0077206417768371505,0.06770904228250131,15.086939893610298,0.23442480250078743,1094,0,3.536752904900845,0.8843776672923431,25.00535635573719,0.07656123032799195,0.019144408473851127,0.068359375,,
0.6035650000004098,1200,,,,-0.03125,0.015625,-0.998046875,0.0077206417768371505,0.06770904228250131,15.087189009446764,0.22951884213418552,1094,0,3.4627941525078305,0.8846006848330226,25.545864000965107,0.07654192840160653,0.019553296933190488,0.068359375,,
0.6114650000007823,1200,,,,-0.0625,0.0703125,-0.9609375,0.0077206417768371505,0.06770904228250131,15.087423133321956,0.22554458885971015,1103,0,3.4028866475575805,0.8914746806392561,26.197601418169818,0.07595172779775272,0.019897530918668548,0.068359375,,
0.619640000000596,1200,,,,-0.03125,0.01953125,-0.974609375,0.0077206417768371505,0.06770904228250131,15.087645956282818,0.22186928921055543,1106,0,3.34748528418098,0.8942039745074752,26.71270815537753,0.07571990755218377,0.02022683791993652,0.068359375,,
0.6281550000011921,1200,,,,-0.03125,0.056640625,-1.021484375,0.0077206417768371505,0.06770904228250131,15.087738464133357,0.21721368797923676,1107,0,3.277263315060592,0.8953558438431358,27.320229037701903,0.07562249439493665,0.020660238672719978,0.068359375,,
0.6367500000009313,1200,,,,-0.125,0.109375,-0.98828125,0.0077206417768371505,0.06770904228250131,15.088047270364317,0.2137946356435812,1108,0,3.2257435687406693,0.895747632080639,27.768717909289332,0.07558941811012888,0.02099021228427495,0.068359375,,
0.645890000000596,1200,,,,0,0.0390625,-0.994140625,0.0077206417768371505,0.06770904228250131,15.087904653716569,0.21067007974044716,1108,0,3.1785700765147333,0.8955971093457772,28.17610081850986,0.07560212240073212,0.021301730228563506,0.068359375,,
0.653695000000298,1200,,,,-0.0625,0.0625,-1.015625,0.0079721541626115,0.06770904228250131,15.087909704945483,0.20772315173361014,1107,0,3.1341081569833995,0.9240767670196987,29.484520658952906,0.07327209675541811,0.021603926505099215,0.068359375,,
0.6612350000012666,1200,,,,-0.0625,0.03515625,-0.96484375,0.0079721541626115,0.06770904228250131,15.088000520097175,0.20568713954638412,1107,0,3.1034076684531438,0.9238415348236859,29.768616743934373,0.07329075358732762,0.021817643544152894,0.068359375,,
0.6718450000006706,1200,,,,-0.0625,0.068359375,-0.982421875,0.0079721541626115,0.06770904228250131,15.087907334035023,0.20209929427282514,1106,0,3.049255424262261,0.9237131984257196,30.293073878820877,0.0733009362623567,0.022205106775823113,0.068359375,,
0.6815050000008196,1200,,,,-0.03125,0.02734375,-0.990234375,0.0079721541626115,0.19970230290559443,15.087911520506532,0.20053622822881134,1106,0,3.02567286817241,0.9236832101514941,30.52819159228619,0.2162021575263245,0.06600260887629274,0.068359375,,
0.6909550000000745,1200,,,,-0.0625,0.013671875,-0.94921875,0.0079721541626115,0.19970230290559443,15.088156928165315,0.19776236119092933,1106,0,2.983869540133252,0.9230952184475412,30.93617887886339,0.21633987362804583,0.06692729029187927,0.068359375,,
0.7062700000014156,1200,,,,-0.0625,0.0703125,-0.984375,0.0079721541626115,0.19970230290559443,15.08871751097545,0.1943444909089557,1105,0,2.932409123139569,0.9225985657621998,31.462136660331495,0.21645633357408428,0.0681017874790214,0.068359375,,
0.7141150000002235,1200,,,,-0.0625,0.0859375,-0.984375,0.0079721541626115,0.19970230290559443,15.088779304331867,0.1917902156810427,1105,0,2.8938802371414623,0.9225503465963723,31.879354741634213,0.2164676471504994,0.06900848913597675,0.068359375,,
0.7214650000007823,1200,,,,-0.03125,0.046875,-0.99609375,0.0079721541626115,0.19970230290559443,15.088925352660315,0.19097817872167377,1105,0,2.8816554827183563,0.9225316826547373,32.013947822259595,0.21647202655514017,0.06930124163115049,0.068359375,,
0.7281350000007079,1200,,,,0,0.0625,-0.9921875,0.0079721541626115,0.19970230290559443,15.08883274730413,0.1900099676349284,1104,0,2.8670286219641055,0.9216925974151713,32.14800823243092,0.2166690971215858,0.06965479917978114,0.068359375,,
0.736085000000894,1200,,,,-0.0625,0.03515625,-0.994140625,0.0079721541626115,0.19970230290559443,15.088986706407267,0.18638089116333006,1104,0,2.812298789091827,0.9212742866537517,32.758762697161984,0.2167674771765879,0.07101034345290319,0.068359375,,
0.7530750000011176,1200,,,,-0.03125,0.02734375,-0.953125,0.0079721541626115,0.19970230290559443,15.088871473971398,0.18055133499264883,1103,0,2.7243158881580327,0.9210386392757636,33.80807061616108,0.21682293705139832,0.07330365167037121,0.068359375,,
0.7695949999997392,1200,,,,0,0.09765625,-0.9765625,0.0079721541626115,0.19970230290559443,15.089036886033451,0.17943614047430104,1102,0,2.707518542304208,0.9202948972407382,33.990345139336696,0.21699816385416149,0.07375842484005286,0.068359375,,
0.778105000000447,1200,,,,-0.03125,-0.0234375,-0.951171875,0.0079721541626115,0.19970230290559443,15.088984162738134,0.1772782547348071,1102,0,2.674948778091361,0.9200277029161139,34.39421758096525,0.21706118443240274,0.07465649605750087,0.068359375,,
0.7996400000005961,1200,,,,-0.041015625,0.02734375,-0.958984375,0.0079721541626115,0.19970230290559443,15.088901073965525,0.17524788392283935,1102,0,2.6442979839335163,0.9198775368744616,34.787211670679454,0.21709661873485708,0.07552186028918267,0.0703125,,
0.8211950000012294,1200,,,,-0.041015625,0.02734375,-0.98828125,0.00808178818092461,0.19970230290559443,15.08874334240597,0.17363069707448986,1102,0,2.6198690245200167,0.9330350938162902,35.61380683857776,0.2140351464045947,0.07622606360719947,0.0703125,,
0.8284550000000745,1200,,,,-0.0625,0.0546875,-0.97265625,0.00808178818092461,0.25409780389744074,15.08879699778421,0.17336310998497512,1102,0,2.615840773467826,0.9330645076108806,35.66977459311924,0.27232608445053846,0.09713810048177463,0.0703125,,
0.8358700000001118,1200,,,,-0.03125,0.009765625,-0.984375,0.00808178818092461,0.25409780389744074,15.088762650074493,0.1731047916643771,1103,0,2.6119371150143795,0.9330775057553395,35.723582332502005,0.2723222908387926,0.09728327777755165,0.0703125,,
0.8464050000002608,1200,,,,0,0.0703125,-0.96875,0.00808178818092461,0.25409780389744074,15.088729760273173,0.17173375445673408,1102,0,2.5912442117147694,0.9323262780325531,35.979869200193264,0.272541716225839,0.09806015301401877,0.0703125,,
0.8547700000004843,1200,,,,-0.01953125,0.015625,-0.99609375,0.00808178818092461,0.25409780389744074,15.088674814630393,0.16895184512222364,1101,0,2.5492594503810304,0.9319012096054557,36.555761692524754,0.2726660307748925,0.0996751444265359,0.0703125,,
0.8647700000004843,1200,,,,-0.0625,0.00390625,-0.96875,0.00808178818092461,0.25409780389744074,15.088642096975109,0.16824340217328393,1101,0,2.5385644805701255,0.931807350847441,36.70607376646861,0.27269349578144997,0.10009507571790101,0.0703125,,
0.872925000000745,1200,,,,0,0.013671875,-0.974609375,0.00808178818092461,0.25409780389744074,15.088721166613494,0.16781355144216248,1101,0,2.5320918856899395,0.9317664024922997,36.79828555030553,0.27270547984749927,0.10035094118561368,0.0703125,,
0.881230000000447,1200,,,,-0.03125,0.033203125,-0.998046875,0.00808178818092461,0.25409780389744074,15.08890076027383,0.1667190332774698,1100,0,2.5156069479725325,0.9312626779929599,37.01940316008096,0.2728529875642258,0.10100854750072633,0.0703125,,
0.8890750000001862,1200,,,,-0.03125,0.06640625,-0.951171875,0.00808178818092461,0.25409780389744074,15.088949115305892,0.1661752127109082,1100,0,2.5074093288200268,0.9311015829396515,37.13400808705705,0.2729001953741817,0.10133878061984312,0.0703125,,
0.8981650000009685,1200,,,,0,-0.05078125,-0.88671875,0.00808178818092461,0.25409780389744074,15.08897035901895,0.1652811973522307,1100,0,2.4939230877509706,0.9310233976807382,37.331680445700464,0.272923112921137,0.10188678437817708,0.0703125,,
0.9057750000003725,1200,,,,-0.0625,0.08203125,-0.982421875,0.00808178818092461,0.25409780389744074,15.08885856803759,0.16601441073643455,1100,0,2.5049679638581623,0.9309972780681883,37.16603531464979,0.2729307699209299,0.10143754633335839,0.0703125,,
0.9139850000003352,1200,,,,-0.0625,0.09765625,-0.984375,0.00808178818092461,0.25409780389744074,15.089013430493878,0.16576023384977165,1100,0,2.5011583948010103,0.9309868106652924,37.22222521374384,0.27293383857485576,0.10159204807884888,0.0703125,,
0.9218450000006706,1200,,,,0,-0.046875,-0.88671875,0.00808178818092461,0.25409780389744074,15.089225204337211,0.16498807599019283,1101,0,2.4895422346463207,0.9314457484610574,37.414338085868394,0.2727993598309545,0.10206607478323798,0.0703125,,
0.930160000000149,1200,,,,-0.0625,0.05859375,-0.970703125,0.00808178818092461,0.25409780389744074,15.08916586304978,0.16478793295284416,1101,0,2.4865124525545923,0.9316259704473071,37.46717493773954,0.27274658710452143,0.1021904409271652,0.0703125,,
0.938105000000447,1200,,,,-0.125,0.12109375,-0.96484375,0.00808178818092461,0.25409780389744074,15.08910821328689,0.16362746440614517,1101,0,2.4689925170900735,0.9316985125513068,37.735979599055085,0.2727253510383254,0.10291558282927384,0.072265625,,
0.9462700000004843,1200,,,,-0.03125,0.060546875,-0.958984375,0.00808178818092461,0.25409780389744074,15.089248998926662,0.16359822806244437,1101,0,2.4685743990174145,0.9317266853904906,37.74351244027132,0.27271710457766624,0.10293301429301918,0.0703125,,
0.9542350000003352,1200,,,,-0.03125,0.052734375,-1.013671875,0.0067365147739960355,0.25409780389744074,15.089181253096067,0.1616844950899576,1101,0,2.4396866522276914,0.7766437470161088,31.833749891894975,0.32717420937681274,0.10415181952379936,0.072265625,,
0.9623600000012666,1200,,,,-0.0625,0.05859375,-0.95703125,0.0067365147739960355,0.25409780389744074,15.089129842527955,0.16136504434047563,1101,0,2.4348581060987176,0.7766921616169493,31.898867522157758,0.32715381518522035,0.10435836209961828,0.072265625,,
0.9699300000006333,1200,,,,0,-0.0546875,-0.90234375,0.0067365147739960355,0.25409780389744074,15.088944468320193,0.1614462002858562,1101,0,2.436052750734584,0.776714514657896,31.884141852990673,0.32714440003655415,0.10430718457177021,0.072265625,,
0.9787700000014156,1200,,,,-0.0625,0.072265625,-1.005859375,0.0067365147739960355,0.2768615621998082,15.089114553979105,0.1592385014515579,1101,0,2.402767989806525,0.7767239677913372,32.32621589294106,0.35644781631636935,0.11522609064810353,0.072265625,,
0.9862100000008941,1200,,,,-0.125,0.0546875,-0.94140625,0.0067365147739960355,0.2768615621998082,15.089124093429048,0.1588363095780732,1101,0,2.3967007857658595,0.7767269129050706,32.40817199702588,0.3564464647739654,0.11551778338126499,0.072265625,,
0.998929999999702,1200,,,,-0.03125,0.03515625,-0.97265625,0.0067365147739960355,0.2768615621998082,15.089263464885514,0.15830339103246838,1101,0,2.38868157467371,0.7767282656377583,32.517028383904965,0.356445843994723,0.11590559626501368,0.072265625,,
1.0078900000005961,1200,,,,-0.0625,0.083984375,-1.005859375,0.0067365147739960355,0.2768615621998082,15.089224804241287,0.15971246400558475,1101,0,2.409937273419563,0.7767893688268886,32.232762960036254,0.3564178055344989,0.11488330640529802,0.072265625,,
1.0157800000002608,1200,,,,-0.03125,0.056640625,-0.9765625,0.0067365147739960355,0.2768615621998082,15.089160554377184,0.1596586393882723,1101,0,2.40911484362305,0.7768017212856627,32.244279401700766,0.3564121378896823,0.11492252556272416,0.072265625,,
1.0239350000005216,1200,,,,-0.0625,0.037109375,-0.966796875,0.0067365147739960355,0.2768615621998082,15.089199697584753,0.15880392484597353,1101,0,2.3962241347611357,0.7768060452308441,32.417920926594746,0.35641015398835235,0.11554076189429864,0.072265625,,
1.0319950000010432,1200,,,,0,0.0234375,-1.0390625,0.0067365147739960355,0.2768615621998082,15.089075338580164,0.15858504670117804,1101,0,2.392901717246329,0.7768078737664759,32.463007910763686,0.35640931503101414,0.11570118413321678,0.07421875,,
1.0401250000009312,1200,,,,-0.0625,0.0703125,-0.96484375,0.0067365147739960355,0.2768615621998082,15.089120252216784,0.15964391023711252,1101,0,2.408886159101893,0.7764241654954034,32.23166701181422,0.35658545226133515,0.11493343558544532,0.07421875,,
1.0491900000004097,1200,,,,-0.03125,0.0234375,-1.0078125,0.0067365147739960355,0.2768615621998082,15.089280588266975,0.15983226613662188,1100,0,2.4117539107940495,0.7762606441293133,32.18656101914378,0.356660567933787,0.11479677132923309,0.07421875,,
1.0572250000005587,1200,,,,-0.0625,0.060546875,-1.001953125,0.0067365147739960355,0.2768615621998082,15.08931549095212,0.15830395382013968,1100,0,2.3886983026572026,0.7762066008487662,32.494961795104444,0.3566854003780252,0.11590478458155458,0.07421875,,
1.0650400000009685,1200,,,,0,0.0390625,-0.9609375,0.0067365147739960355,0.2768615621998082,15.089382494522651,0.15810773560380179,1100,0,2.3857480978686225,0.7761848448896572,32.534232997317886,0.3566953980390675,0.11604811188874067,0.07421875,,
1.0728800000008196,1200,,,,-0.03125,0.05859375,-0.990234375,0.0067365147739960355,0.2768615621998082,15.0894124911162,0.1585571452982429,1100,0,2.392534168819033,0.7762244428175985,32.443609497152835,0.35667720175731005,0.11571895850351363,0.07421875,,
1.0801900000013411,1200,,,,-0.0625,0.03125,-0.97265625,0.0067365147739960355,0.2768615621998082,15.089233464730807,0.15875333950589474,1100,0,2.395466203110118,0.7763301297935996,32.4083106990056,0.3566286449212224,0.11557731928772322,0.07421875,,
1.0880800000010058,1200,,,,-0.03125,0.06640625,-0.970703125,0.0067365147739960355,0.2768615621998082,15.089270698963334,0.15759077877001845,1101,0,2.3779299205212525,0.7763782505662313,32.64933267655112,0.35660654068797826,0.11642965581555866,0.07421875,,
1.0960200000004843,1200,,,,-0.03125,0.015625,-0.96875,0.0067365147739960355,0.2768615621998082,15.089207863935842,0.15635619577665474,1101,0,2.359291138888191,0.7763975718762524,32.908086631568814,0.3565976662327021,0.1173494689300102,0.07421875,,
1.1050950000006705,1200,,,,-0.0625,0.0546875,-0.99609375,0.0063740410515555875,0.2768615621998082,15.089251717780845,0.15660530677545598,1101,0,2.3630568942751453,0.7346292892562976,31.088091490139135,0.3768724801050189,0.11716246141620466,0.07421875,,
1.1134750000005589,1200,,,,-0.03125,0.046875,-0.955078125,0.0063740410515555875,0.2768615621998082,15.08925572540938,0.15628225357736886,1101,0,2.3581828895721935,0.7348604107152628,31.162146666604663,0.3767539496791371,0.11740461837123864,0.07421875,,
1.1213850000007077,1200,,,,-0.03125,0.03125,-1,0.0063740410515555875,0.2768615621998082,15.089082984717919,0.1582534709416937,1101,0,2.387899755658862,0.7351937567890117,30.788300683340836,0.37658312471124916,0.11594354475881981,0.07421875,,
1.1299700000006705,1200,,,,-0.0625,0.046875,-1,0.0063740410515555875,0.2865555064554183,15.089212160876217,0.15692723272104633,1102,0,2.3679083083470647,0.7353054120242914,31.052951224178805,0.3897095027038257,0.12101630179060878,0.07421875,,
1.1377200000006706,1200,,,,-0.03125,0.052734375,-0.9609375,0.0063740410515555875,0.2865555064554183,15.08914361084435,0.1570267554154016,1102,0,2.3693992632079253,0.7353597266721467,31.035703356999633,0.38968071824142253,0.12094015175283346,0.07421875,,
1.1471600000010804,1200,,,,-0.0625,0.033203125,-0.95703125,0.0063740410515555875,0.2865555064554183,15.089179199057082,0.15772638012894669,1102,0,2.3799616141842725,0.7353758075662197,30.898641523605765,0.3896721968646138,0.12040341522635635,0.07421875,,
1.154660000000149,1200,,,,-0.09375,0.083984375,-0.978515625,0.0063740410515555875,0.2865555064554183,15.089188622155046,0.15884555074042617,1102,0,2.3968504769123906,0.7354100804613523,30.682351174809348,0.3896540366643472,0.11955501989617537,0.07421875,,
1.162050000000745,1200,,,,0,0.109375,-0.98828125,0.0063740410515555875,0.2865555064554183,15.089396087700168,0.15809021938658455,1102,0,2.38548593791559,0.7354408140213972,30.829811332445612,0.38963775329319855,0.12012458422027301,0.076171875,,
1.1701000000005588,1200,,,,-0.0625,0.052734375,-0.95703125,0.0063740410515555875,0.2865555064554183,15.089196983915462,0.1576939920624728,1102,0,2.3794757094106536,0.7354552029577371,30.908287907670807,0.3896301301601984,0.12042800240494662,0.076171875,,
1.1774050000011922,1200,,,,0,0.0234375,-0.98828125,0.0063740410515555875,0.2865555064554183,15.089231682890066,0.15754936612396694,1102,0,2.377298886937009,0.7354604953828282,30.936812338747195,0.3896273263545691,0.12053827477479112,0.07421875,,
1.1853550000013784,1200,,,,-0.0625,0.0546875,-0.9609375,0.0063740410515555875,0.2865555064554183,15.089171365747916,0.1573925689401021,1102,0,2.3749234444324934,0.7354629701118803,30.967860115070994,0.3896260153136286,0.1206588393942496,0.076171875,,
1.1932900000009685,1200,,,,0,0.01171875,-0.9375,0.0063740410515555875,0.2865555064554183,15.089245108844079,0.1578844333195218,1102,0,2.3823569132292133,0.7355558249039513,30.875131296214033,0.38957682986581826,0.12028235772069974,0.07421875,,
1.202425000000745,1200,,,,-0.0625,0.033203125,-0.994140625,0.0063740410515555875,0.2865555064554183,15.089286027419698,0.15980857746875252,1102,0,2.4113973350610656,0.7355940783787372,30.50488891579161,0.3895565705028401,0.1188337990960588,0.07421875,,
1.2103349999999629,1200,,,,-0.0625,0.060546875,-0.921875,0.0063740410515555875,0.2865555064554183,15.089288378561182,0.159753052446224,1102,0,2.410559877716483,0.735607341143344,30.51603687356577,0.38954954692272253,0.11887508337974642,0.076171875,,
1.218010000000708,1200,,,,0,-0.0625,-0.9453125,0.0063740410515555875,0.2865555064554183,15.08929058638394,0.15906385652077734,1102,0,2.400160752832891,0.7356125012136426,30.64846803887635,0.3895468143657804,0.1193901308973572,0.076171875,,
1.2263400000007822,1200,,,,-0.0625,0.0625,-0.98828125,0.0063740410515555875,0.2865555064554183,15.08932077232209,0.1594170923259562,1102,0,2.405495642697239,0.7356143898952712,30.580574615817635,0.38954581420873907,0.1191253483768978,0.076171875,,
1.2344550000000745,1200,,,,-0.0625,0.0703125,-0.966796875,0.0063740410515555875,0.2865555064554183,15.089467560293933,0.15985242103809952,1102,0,2.4120879216888502,0.7354699825263632,30.491010543737378,0.3896223003841582,0.11879977669088582,0.076171875,,
1.2439350000005216,1200,,,,-0.0625,0.03515625,-0.9296875,0.0063740410515555875,0.2865555064554183,15.089312716379908,0.15882804065342043,1102,0,2.396605973549362,0.7354178098787635,30.68580392418922,0.3896499413070484,0.11956721698019926,0.076171875,,
1.2536300000008196,1200,,,,-0.03125,0.060546875,-1.015625,0.006092321359883428,0.2865555064554183,15.089397522459388,0.15746032053326345,1102,0,2.3759813705402864,0.7028950199135545,29.583355687410958,0.40767895395056325,0.12060511500991145,0.076171875,,
1.260675000000745,1200,,,,-0.03125,0.076171875,-0.98828125,0.006092321359883428,0.2865555064554183,15.089329874868662,0.15730964958574362,1102,0,2.373697195099282,0.7028897142531798,29.61159981586366,0.4076820312556194,0.12072117161659822,0.076171875,,
1.2681850000005215,1200,,,,-0.0625,0.046875,-0.994140625,0.006092321359883428,0.2865555064554183,15.089610450107843,0.157184924263574,1102,0,2.371859275767036,0.702907879026737,29.635311260168397,0.4076714958042437,0.12081471670057196,0.076171875,,
1.2764000000003726,1200,,,,0,0.01171875,-1.03125,0.006092321359883428,0.2905313594976674,15.089662680608573,0.1564014529624692,1102,0,2.360045167960729,0.702938674017041,29.78496698113779,0.4133096815364923,0.12310415217548999,0.076171875,,
1.2841150000011547,1200,,,,-0.0625,0.076171875,-0.974609375,0.006092321359883428,0.2905313594976674,15.089777077341603,0.15502770213127282,1102,0,2.3393334659734224,0.7029506883878051,30.04918702752365,0.41330261751929115,0.12419407652802252,0.076171875,,
1.2922550000008195,1200,,,,0,-0.0625,-0.9609375,0.006092321359883428,0.2905313594976674,15.08988549882406,0.15562991883304098,1102,0,2.3484376553818707,0.7029554296345607,29.932897218864245,0.4132998299034455,0.1237126132907391,0.076171875,,
1.3030100000007079,1200,,,,-0.03125,0.060546875,-1.0078125,0.006092321359883428,0.2905313594976674,15.089989247179634,0.15652483854761268,1102,0,2.3619581306000037,0.7029573138846834,29.76163314572018,0.41329872206910073,0.1230044494581554,0.076171875,,
1.3192900000009686,1200,,,,-0.0625,0.0390625,-1.00390625,0.006092321359883428,0.2905313594976674,15.090015313839372,0.15494483183502553,1101,0,2.3381198851908014,0.7022005195242619,30.03269951946707,0.41374415344281035,0.12425853838284202,0.076171875,,
1.3277000000001862,1200,,,,-0.0625,0.080078125,-1.044921875,0.006092321359883428,0.2905313594976674,15.090114651030827,0.1549148922645008,1100,0,2.3376834854234056,0.7020901228530118,30.033583555296744,0.4138092105854799,0.12428173502070397,0.076171875,,
1.3357850000010802,1200,,,,-0.0625,0.10546875,-0.98828125,0.006092321359883428,0.2905313594976674,15.090143999728065,0.15419337240711076,1100,0,2.3268001934269975,0.7020458710395251,30.172159733471826,0.41383529407768643,0.12486304596260242,0.078125,,
1.343285000000149,1200,,,,-0.03125,0.04296875,-0.953125,0.006092321359883428,0.2905313594976674,15.089879326686146,0.15419995935279918,1100,0,2.3268587788136483,0.7020312869462565,30.170773290512624,0.4138438911482713,0.12485990217498079,0.078125,,
1.3521550000011922,1200,,,,-0.0625,0.05859375,-1,0.006092321359883428,0.2905313594976674,15.089996446362042,0.15348925767851793,1101,0,2.3161523529235835,0.7023022843032696,30.32193816683874,0.4136842012209796,0.12543706770020618,0.078125,,
1.360300000000745,1200,,,,0,-0.005859375,-0.94921875,0.006092321359883428,0.2905313594976674,15.089898072771428,0.1537455489485853,1101,0,2.3200046627764426,0.7023936575757761,30.275527840327417,0.4136303857019439,0.12522878257924572,0.078125,,
1.3677800000011922,1200,,,,-0.0625,0.03515625,-0.94140625,0.006092321359883428,0.2905313594976674,15.089806304099655,0.1541940810410927,1101,0,2.326758816148734,0.702429200108459,30.18917110072991,0.41360945623104467,0.12486526643038867,0.078125,,
1.3756500000003726,1200,,,,-0.0625,0.060546875,-0.974609375,0.006092321359883428,0.2905313594976674,15.089912625482608,0.15293908216311686,1101,0,2.307837386862939,0.7024434014156044,30.437300540071455,0.41360109428342823,0.12588900810407133,0.078125,,
1.3835300000002608,1200,,,,0,0.08984375,-0.98828125,0.006092321359883428,0.2905313594976674,15.090120515138029,0.15300059861630003,1101,0,2.3087974720082283,0.7024487390197751,30.42487474697268,0.41359795150758816,0.1258366587022285,0.076171875,,
1.3912150000007824,1200,,,,-0.0625,0.04296875,-0.935546875,0.006092321359883428,0.2905313594976674,15.09001545774047,0.1520995029109305,1101,0,2.295183850040583,0.7024952044505123,30.607360906538744,0.41357059472728974,0.1265830445315003,0.078125,,
1.3993850000007078,1200,,,,0,-0.05078125,-1.01171875,0.006092321359883428,0.2905313594976674,15.089844352412367,0.1544308704314265,1101,0,2.330337798017787,0.7025136748501762,30.146430935795777,0.41355972118212286,0.12467349572443824,0.078125,,
1.4071800000006334,1200,,,,-0.0625,0.103515625,-0.96875,0.005971889497482834,0.2905313594976674,15.090039873893915,0.1528956339690648,1101,0,2.3072012131374766,0.6886331219658889,29.84712031376936,0.42189570938479887,0.12592371997871163,0.078125,,
1.4231300000008196,1200,,,,0,0.00390625,-0.96875,0.005971889497482834,0.2905313594976674,15.09006261912811,0.15234416954286545,1101,0,2.298883058060909,0.6886496530079066,29.95583662218893,0.42188558177394697,0.12637935560877483,0.078125,,
1.431140000000596,1200,,,,-0.0625,0.095703125,-0.94140625,0.005971889497482834,0.29137110969447955,15.090254701256294,0.15307645601962316,1101,0,2.309962710101771,0.6886851377674026,29.81369070399673,0.42308319682787693,0.12613671572284493,0.078125,,
1.439160000000149,1200,,,,0,-0.0546875,-0.94140625,0.005971889497482834,0.29137110969447955,15.090145014013258,0.15229306333722284,1101,0,2.2981244103869987,0.6886991804699194,29.96788064898297,0.42307457008394955,0.12678648221895583,0.078125,,
1.4465,1200,,,,-0.0625,0.068359375,-1.013671875,0.005971889497482834,0.29137110969447955,15.09013869035551,0.15124589564457622,1101,0,2.2823215416236913,0.6887044323391529,30.175609342459005,0.42307134383446754,0.12766435595538042,0.078125,,
1.4566700000008568,1200,,,,-0.125,0.05078125,-0.9453125,0.005971889497482834,0.29137110969447955,15.090164604123654,0.15118516628165832,1101,0,2.2814090448920292,0.6887068499538607,30.187784671751167,0.42306985869822505,0.1277154179549021,0.080078125,,
1.4711550000002607,1200,,,,-0.03125,0.0390625,-0.984375,0.005971889497482834,0.29137110969447955,15.090270613395127,0.15308289351974658,1102,0,2.3100622894945273,0.6888562143799992,29.81981124546777,0.4229781246246378,0.1261312783726864,0.080078125,,
1.4792700000004844,1200,,,,-0.0625,0.06640625,-0.9921875,0.005971889497482834,0.29137110969447955,15.090354911438682,0.15314444232736102,1102,0,2.3110039874342303,0.6888952078698086,29.80934743581502,0.42295418282187336,0.1260798818516845,0.078125,,
1.4871600000010803,1200,,,,-0.03125,0.052734375,-0.994140625,0.005971889497482834,0.29137110969447955,15.090042138951139,0.1525623389986171,1102,0,2.3021721243060806,0.6889107650965258,29.924381318976177,0.4229446315208247,0.12656356430443028,0.078125,,
1.495440000001341,1200,,,,-0.03125,0.05078125,-1.025390625,0.005971889497482834,0.29137110969447955,15.090040262009728,0.15322372539428195,1102,0,2.312152185294837,0.6889165624885242,29.79546791383354,0.4229410723440593,0.12601727150469766,0.078125,,
1.5039950000001117,1200,,,,-0.0625,0.078125,-0.98046875,0.005971889497482834,0.29137110969447955,15.09000275969516,0.1537439301736891,1101,0,2.3199963306073483,0.6886515774674659,29.683304597606185,0.4231038150903602,0.12559119419736406,0.078125,,
1.5114450000002981,1200,,,,-0.03125,0,-0.921875,0.005971889497482834,0.29137110969447955,15.089603485018081,0.15472170724386855,1101,0,2.334689212835026,0.6882814407629043,29.480645088821923,0.4233313473795229,0.12480081207068498,0.078125,,
1.5194700000006705,1200,,,,0,0.0625,-0.9453125,0.005971889497482834,0.29137110969447955,15.089267492562847,0.15470511980517004,1100,0,2.334386935209193,0.6881616481541647,29.47933085876768,0.42340503931890927,0.12481697241351665,0.078125,,
1.5275100000007078,1200,,,,-0.09375,0.072265625,-0.970703125,0.005971889497482834,0.29137110969447955,15.089073517316315,0.1536173001115551,1100,0,2.3179427349148987,0.688107175741133,29.686116286492137,0.42343855719954565,0.12570246249210162,0.078125,,
1.535390000000596,1200,,,,0,-0.021484375,-0.923828125,0.005971889497482834,0.29137110969447955,15.089118796159795,0.15460729468685902,1100,0,2.3328878362829006,0.688085861458051,29.495025468280133,0.4234516737156398,0.12489717900828645,0.078125,,
1.5443700000010432,1200,,,,-0.0625,0.1171875,-1.04296875,0.005971889497482834,0.29137110969447955,15.089129359585868,0.15566263669170827,1101,0,2.3488136614954036,0.688506397991832,29.312942498532863,0.4231930313855067,0.1240503299478317,0.080078125,,
1.552515000000596,1200,,,,-0.0625,0.068359375,-1.021484375,0.00596798513214374,0.29137110969447955,15.089067903450884,0.15535474465956367,1101,0,2.34415829129143,0.6882303788110575,29.359381632539062,0.4233627556485278,0.12429668712088512,0.080078125,,
1.5616850000014528,1200,,,,0,-0.0078125,-0.962890625,0.00596798513214374,0.29137110969447955,15.089231294160959,0.15493612092626072,1101,0,2.3378669644764396,0.688294024296634,29.44111169519759,0.42332360794826157,0.12463117624818805,0.080078125,,
1.5695200000004843,1200,,,,-0.03125,0.05859375,-1.005859375,0.00596798513214374,0.29137110969447955,15.089431532241719,0.1551192735690514,1101,0,2.3406616578512733,0.6883151128126604,29.40686068419361,0.42331063821023834,0.12448236963985564,0.080078125,,
1.5770600000005215,1200,,,,-0.0625,0.068359375,-0.97265625,0.00596798513214374,0.29170000795319273,15.089556239932861,0.1553977443353678,1101,0,2.3448830027072405,0.6883234405446242,29.3542765140066,0.4237833419161056,0.1243985340063517,0.080078125,,
1.5845750000001864,1200,,,,0,-0.04296875,-0.9609375,0.00596798513214374,0.29170000795319273,15.089488126315642,0.1553516907210976,1101,0,2.344177492539062,0.6880448769485104,29.35122784594542,0.4239549159160762,0.12443597333461387,0.080078125,,
1.5922500000009314,1200,,,,-0.0625,0.03515625,-0.953125,0.00596798513214374,0.29170000795319273,15.089416003178478,0.1548824525642921,1101,0,2.3370857583351605,0.6879179787530966,29.43486246919496,0.4240331216258093,0.12481356617439116,0.080078125,,
1.599660000000149,1200,,,,-0.0625,0.08203125,-1.001953125,0.00596798513214374,0.29170000795319273,15.089355223871545,0.1551391228103408,1101,0,2.340949333205065,0.6878707209820464,29.384263521853406,0.4240622533500829,0.12460757002109797,0.080078125,,
1.6112600000007078,1200,,,,-0.03125,-0.00390625,-0.91796875,0.00596798513214374,0.29170000795319273,15.089427871894173,0.1553354812648541,1101,0,2.3439235404919847,0.6878470373850755,29.345967370620706,0.42407685444444404,0.12444945533162122,0.080078125,,
1.6193700000010431,1200,,,,-0.03125,0.037109375,-1,0.00596798513214374,0.29170000795319273,15.089603252505341,0.15682054098455825,1101,0,2.366359745300237,0.6880748269123292,29.077355134987233,0.423936462349842,0.12326951070416499,0.080078125,,
1.6256600000010804,1200,,,,-0.125,0.12109375,-0.96484375,0.00596798513214374,0.29170000795319273,15.089296306844155,0.1556683774021729,1102,0,2.3489262722270294,0.6886739998463772,29.318672450005923,0.4235676212812773,0.12418440348773926,0.080078125,,
1.6333000000007452,1200,,,,0,-0.0078125,-0.921875,0.00596798513214374,0.29170000795319273,15.089416808949421,0.15502935174354032,1102,0,2.3393025060795094,0.688964083415105,29.451688339775927,0.4233892810598688,0.1246952915217705,0.080078125,,
1.6409500000001862,1200,,,,-0.0625,0.087890625,-1.02734375,0.00596798513214374,0.29170000795319273,15.089348312233744,0.15499632485236112,1103,0,2.3387935328134084,0.6890932591047998,29.463620855658334,0.4233099135698118,0.12472242797862435,0.080078125,,
1.6488050000006333,1200,,,,-0.125,0.11328125,-0.98828125,0.00596798513214374,0.29170000795319273,15.089641704465526,0.15439380536763445,1103,0,2.32974720438659,0.6891422208715478,29.580128675505595,0.42327983849877043,0.12520672088540857,0.080078125,,
1.6565500000007451,1200,,,,-0.03125,0.05859375,-0.943359375,0.00596798513214374,0.29170000795319273,15.08965915534282,0.15375719213037503,1103,0,2.3201436219299185,0.6891644288499827,29.70352448598544,0.4232661985180462,0.1257249789177076,0.080078125,,
1.66475,1200,,,,-0.0625,0.078125,-0.984375,0.00596798513214374,0.29170000795319273,15.089708558249981,0.1525104486636165,1103,0,2.301338222421918,0.6891732635083205,29.946630912123716,0.4232607725788117,0.1267523413599801,0.080078125,,
1.6735200000004844,1200,,,,-0.0625,0.0390625,-0.96875,0.00596798513214374,0.29170000795319273,15.089833556501812,0.151190746735811,1103,0,2.281443203526608,0.6891769477836074,30.20793797181941,0.42325850986644253,0.1278576681209021,0.080078125,,
1.6813150000004098,1200,,,,0,0.140625,-1,0.00596798513214374,0.29170000795319273,15.089744086148778,0.1519807052589254,1103,0,2.29334994838959,0.6891782049637634,30.051157497690667,0.42325773776976905,0.12719384939835587,0.080078125,,
1.688839999999851,1200,,,,-0.03125,-0.021484375,-0.912109375,0.00596798513214374,0.29170000795319273,15.089666760325633,0.1572785326574068,1103,0,2.373280646353261,0.6891786766779636,29.039072043036413,0.42325744806741467,0.12291003527181395,0.080078125,,
1.696785000000149,1200,,,,-0.03125,0.01953125,-1.00390625,0.00596798513214374,0.29170000795319273,15.08958533076033,0.1590450741810148,1103,0,2.3999242182915297,0.6893792462582377,28.725042274418,0.4231343045739493,0.12154550786643156,0.080078125,,
1.704155000001192,1200,,,,-0.125,0.13671875,-0.984375,0.0059894259652535555,0.29170000795319273,15.089765154256487,0.15965245763396707,1104,0,2.4091180919964463,0.6923329311108691,28.738023819211367,0.4213290959382089,0.12108165594799036,0.08203125,,
1.7126650000000372,1200,,,,0,0.05859375,-0.97265625,0.0059894259652535555,0.29170000795319273,15.089576927018491,0.15938732332310532,1104,0,2.4050872764755664,0.6925287725787016,28.794330224620317,0.42120994751888496,0.12128458322753767,0.08203125,,
1.7206850000005216,1200,,,,-0.0625,0.01171875,-0.88671875,0.0059894259652535555,0.29170000795319273,15.08950068764587,0.15851392852798638,1104,0,2.3918960335244988,0.6926034861597002,28.95625380251739,0.4211645101161571,0.12195346447536345,0.08203125,,
1.7285200000014156,1200,,,,0,-0.021484375,-0.943359375,0.0059894259652535555,0.2959256166656606,15.089492395170701,0.1583071753840367,1104,0,2.3887749190583762,0.692633707368567,28.995352464668127,0.4272469178405022,0.12388174972228468,0.08203125,,
1.7357950000008568,1200,,,,-0.0625,0.08203125,-1.001953125,0.0059894259652535555,0.2959256166656606,15.089325730333062,0.1574961631009351,1108,0,2.3765109063076726,0.6950238471348131,29.24555680725467,0.4257776447320377,0.12452104296269906,0.08203125,,
1.7434850000003352,1200,,,,0,0.05859375,-0.9375,0.0059894259652535555,0.2959256166656606,15.089153269608722,0.15585999355064012,1111,0,2.3517953312858357,0.6970588012926607,29.63943299060579,0.4245346534853032,0.12582966414167696,0.08203125,,
1.7506600000010804,1200,,,,-0.0625,0.04296875,-0.9609375,0.0059894259652535555,0.2959256166656606,15.08909751658099,0.1557868461545242,1113,0,2.350682913426216,0.6980026317977981,29.693610644424638,0.4239606029900847,0.12588921073763068,0.080078125,,
1.7601000000005589,1200,,,,-0.0625,0.05859375,-0.97265625,0.0059894259652535555,0.2959256166656606,15.08895312678611,0.1554161645537226,1113,0,2.3450672220959974,0.6983722819024325,29.780480291658094,0.42373619963772197,0.1261906754217328,0.080078125,,
1.7783050000006333,1200,,,,-0.0625,0.052734375,-0.9453125,0.0059894259652535555,0.2959256166656606,15.088904219392067,0.15271165206729906,1112,0,2.304251491228602,0.6971551959016642,30.255169566146122,0.4244759537120365,0.1284259195630926,0.080078125,,
1.7846850000005214,1200,,,,0,0.01953125,-0.9765625,0.0059894259652535555,0.2959256166656606,15.089031113659,0.1535789636388581,1110,0,2.3173577607502343,0.6961036384791338,30.0386781130322,0.4251171812752005,0.1276995816864531,0.080078125,,
1.7923600000003352,1200,,,,-0.0625,0.052734375,-0.982421875,0.0059894259652535555,0.2959256166656606,15.088985001552519,0.15390452639243948,1109,0,2.322263090406563,0.6956022787445846,29.95363796712646,0.4254235871678625,0.1274298411270242,0.080078125,,
1.800410000000149,1200,,,,-0.03125,0.021484375,-0.9375,0.0059894259652535555,0.2959256166656606,15.089034363057827,0.15392601098670228,1109,0,2.3225948691467675,0.6953795593645181,29.939769892799855,0.4255598438011266,0.1274116379902158,0.080078125,,
1.8086500000003725,1200,,,,-0.0625,0.05859375,-0.9609375,0.0059894259652535555,0.2959256166656606,15.08911631978027,0.15285819845658027,1109,0,2.3064951369433966,0.6952896060409992,30.144854628326158,0.42561490074714375,0.12830099310672116,0.080078125,,
1.816710000000894,1200,,,,-0.0625,0.0703125,-1.001953125,0.0059894259652535555,0.2959256166656606,15.089159190358075,0.15293038270944728,1107,0,2.307590889745234,0.6940466062149133,30.076674738975868,0.4263771539486881,0.12824006975444932,0.080078125,,
1.8254950000001118,1200,,,,-0.03125,0.001953125,-0.916015625,0.0059894259652535555,0.2959256166656606,15.089240271338088,0.15370633541350728,1106,0,2.319311826281294,0.6935250254629519,29.902189848051886,0.42669782026700476,0.127591992293739,0.080078125,,
1.8327950000008568,1200,,,,0,0,-0.94140625,0.0059894259652535555,0.2959256166656606,15.089476573695354,0.1535451416126247,1105,0,2.316915817368436,0.6933547942698637,29.92576549705545,0.4268025823305724,0.12772393992362413,0.080078125,,
1.8407850000010804,1200,,,,-0.0625,0.033203125,-0.951171875,0.0059894259652535555,0.2959256166656606,15.089700346203413,0.15294111481440467,1105,0,2.307835593163658,0.6932756654456387,30.04008030291591,0.4268512965552298,0.12822647225922876,0.080078125,,
1.848675000000745,1200,,,,0,0.07421875,-0.984375,0.0059894259652535555,0.2959256166656606,15.089811067427263,0.15259061480924313,1105,0,2.3025635481340476,0.693052500278242,30.0991692863321,0.42698874406607634,0.12852006491003165,0.078125,,
1.8564100000010804,1200,,,,-0.03125,0.04296875,-0.982421875,0.0059750840957162555,0.2959256166656606,15.090016169457567,0.15267651243342806,1104,0,2.3038910413168185,0.6907217579060635,29.980660782954065,0.42842955687796036,0.12844601214149454,0.080078125,,
1.8643750000009314,1200,,,,-0.0625,0.052734375,-0.9921875,0.0059750840957162555,0.2959256166656606,15.090015382031583,0.15147833829556895,1103,0,2.2858104549247193,0.6904556754432576,30.206164905567245,0.4285946617437575,0.1294620103027775,0.080078125,,
1.872910000000149,1200,,,,0,0.16015625,-0.98828125,0.0059750840957162555,0.30084475990582543,15.090112121139283,0.15098314455162465,1103,0,2.2783525796861954,0.6903514758909379,30.300467190465408,0.43578491596265234,0.13204486548226074,0.080078125,,
1.8806200000001119,1200,,,,-0.03125,0.00390625,-0.943359375,0.0059750840957162555,0.30084475990582543,15.090008046899941,0.14986551239974583,1103,0,2.2614717880649473,0.6903099110470208,30.524807547464118,0.4358111553831265,0.1330305164510792,0.080078125,,
1.8885650000004097,1200,,,,0,0.02734375,-1.0390625,0.0059750840957162555,0.30084475990582543,15.090040793173532,0.15030339181016314,1103,0,2.2680843137677065,0.6902935350324383,30.435091448859474,0.4358214942454707,0.13264267032739482,0.080078125,,
1.896265000000596,1200,,,,-0.0625,0.095703125,-0.984375,0.0059750840957162555,0.30084475990582543,15.09003880975077,0.1498652362083482,1103,0,2.261472230616441,0.6900297033470006,30.51241107474973,0.4359881298537916,0.13303049041810253,0.080078125,,
1.9046450000004842,1200,,,,-0.03125,0.025390625,-0.9453125,0.0059750840957162555,0.30084475990582543,15.089938226731004,0.15094231139019756,1103,0,2.277710154678077,0.6899247213758487,30.290277275132933,0.43605447171958184,0.13208210855447747,0.080078125,,
1.9150550000006332,1200,,,,0,0.09375,-1.0546875,0.0059750840957162555,0.30084475990582543,15.090302651420917,0.15089614510547286,1103,0,2.2770684985743124,0.6898835044078977,30.297002696222723,0.43608052371686973,0.1321193280282022,0.080078125,,
1.9221450000004843,1200,,,,-0.0625,0.064453125,-0.966796875,0.0059750840957162555,0.30084475990582543,15.09024408087741,0.15267854716630752,1103,0,2.3039565426533346,0.689865614059701,29.94264871268893,0.43609183263305873,0.1305774455100441,0.080078125,,
1.9322099999999627,1200,,,,-0.125,0.05859375,-0.94921875,0.0059750840957162555,0.30084475990582543,15.090120351374527,0.15564256114917133,1103,0,2.3486649795371646,0.6899056020866479,29.374372594536784,0.4360665560562315,0.12809181493612207,0.080078125,,
1.9512350000012666,1200,,,,-0.0625,0.072265625,-0.94140625,0.0059750840957162555,0.30084475990582543,15.090061175585165,0.1568435616114827,1103,0,2.3667789397139347,0.6899254315988882,29.15039592511658,0.4360540228363865,0.12711147410420492,0.080078125,,
1.958830000001006,1200,,,,-0.0625,0.001953125,-0.91796875,0.0059750840957162555,0.30084475990582543,15.090144804525647,0.1561750072168733,1103,0,2.356703473750456,0.6899268005513399,29.275078864859942,0.43605315761818775,0.1276549057854365,0.080078125,,
1.966980000000447,1200,,,,0,0.0859375,-1.05078125,0.0059750840957162555,0.30084475990582543,15.090170434415654,0.15629818524442543,1104,0,2.3585662539282497,0.6908797456282402,29.292361173978605,0.4354517002553855,0.12755408477703822,0.080078125,,
1.9749050000002608,1200,,,,-0.09375,0.03125,-0.9140625,0.0059750840957162555,0.30084475990582543,15.090358401705517,0.15556388311203803,1108,0,2.347514750521678,0.6931602797929823,29.52740891783297,0.43401904101555705,0.12815457702192073,0.08203125,,
1.9827750000003725,1200,,,,0,0.02734375,-0.966796875,0.0059750840957162555,0.30084475990582543,15.09024303514044,0.15422945614059647,1109,0,2.327359976339134,0.6940590550917818,29.8217320117155,0.4334570058538347,0.12926438667173654,0.08203125,,
1.990035000000149,1200,,,,-0.03125,0.044921875,-0.97265625,0.0059750840957162555,0.30084475990582543,15.090231283073713,0.154235109659789,1110,0,2.3274434767364527,0.6944118212291758,29.835818921922087,0.4332368066161391,0.12925974912510904,0.08203125,,
1.9978250000011175,1200,,,,-0.125,0.0390625,-0.984375,0.0059750840957162555,0.30084475990582543,15.090252478877812,0.15381894162956974,1110,0,2.321166665223976,0.6945529575209757,29.922580223422095,0.4331487709441361,0.12960928847252595,0.08203125,,
2.0061299999998883,1200,,,,0,0.07421875,-0.96875,0.005991038470469348,0.30084475990582543,15.090043819854191,0.15320548273375326,1109,0,2.3118774478942514,0.6957084009848834,30.09278894166998,0.4324293906469045,0.13013006384912254,0.08203125,,
2.0142500000009314,1200,,,,-0.0625,0.01953125,-0.96484375,0.005991038470469348,0.30084475990582543,15.090041873010051,0.15383686310425843,1108,0,2.3214047058557745,0.6950884640190806,29.942580122531442,0.432815066684184,0.12959599812429967,0.080078125,,
2.0227500000009315,1200,,,,-0.03125,0.013671875,-0.99609375,0.005991038470469348,0.29970181200725476,15.090003338348394,0.153864580258366,1107,0,2.3218170297523173,0.6947955635989519,29.92464757970485,0.43135251246400863,0.129080719181057,0.08203125,,
2.030675000000745,1200,,,,0,0.06640625,-0.939453125,0.005991038470469348,0.29970181200725476,15.090003180778238,0.1538884099907607,1107,0,2.3221765962454843,0.6946945687244339,29.915664891620313,0.43141522260286763,0.12906073228531167,0.08203125,,
2.0415950000006706,1200,,,,-0.0625,-0.03515625,-0.94140625,0.005991038470469348,0.29970181200725476,15.090202040828334,0.15339752453813035,1107,0,2.314799637843309,0.6946511928609193,30.009128284991586,0.43144216131398777,0.12947203166425494,0.08203125,,
2.048860000000335,1200,,,,-0.03125,0.0546875,-0.978515625,0.005991038470469348,0.29970181200725476,15.090191042891464,0.15327068575464486,1106,0,2.3128839293125742,0.693775562133809,29.99612532826107,0.43198669478278784,0.12957927036845768,0.08203125,,
2.0558500000005586,1200,,,,-0.0625,0.06640625,-0.955078125,0.005991038470469348,0.29970181200725476,15.09001075354833,0.15499752352489343,1105,0,2.338914296764002,0.6932486400289829,29.63976238839213,0.43231503778316105,0.12813714996821657,0.08203125,,
2.065830000001006,1200,,,,-0.0625,-0.015625,-0.87890625,0.005991038470469348,0.29970181200725476,15.090098468911851,0.15382107811095433,1105,0,2.3211752152884824,0.6930152149101776,29.85622155301394,0.4324606524635962,0.12911641052914094,0.08203125,,
2.0730800000000746,1200,,,,-0.03125,0.05859375,-1.013671875,0.005991038470469348,0.29970181200725476,15.090092555898336,0.15365536516975029,1104,0,2.318673682121889,0.6928972008823342,29.883342629232878,0.4325343090224856,0.1292557095541743,0.08203125,,
2.0806400000005962,1200,,,,-0.09375,0.06640625,-0.955078125,0.005991038470469348,0.29970181200725476,15.090353301719574,0.15541101970382684,1104,0,2.345207194311249,0.6928642788303445,29.543840753645135,0.43255486126834963,0.12779331938527186,0.08203125,,
2.0885,1200,,,,0,0.046875,-0.921875,0.005991038470469348,0.29970181200725476,15.090304172754264,0.1549415279930986,1104,0,2.338114786407177,0.6923359321245928,29.610861543220405,0.4328849595998152,0.12818096602852688,0.08203125,,
2.096964999999851,1200,,,,-0.0625,0.0625,-0.98046875,0.005991038470469348,0.29970181200725476,15.090388552883294,0.15232186272394696,1103,0,2.29859609360331,0.6921211248605572,30.110602153490085,0.4330193101209506,0.13038472171830687,0.08203125,,
2.1051150000011547,1200,,,,-0.09375,0.080078125,-0.94140625,0.005991038470469348,0.29970181200725476,15.090271069488722,0.15178125771222228,1103,0,2.29042032214536,0.6920377545428059,30.214443517275352,0.43307147628853354,0.13085013659262948,0.08203125,,
2.11319000000041,1200,,,,0,0.046875,-0.9921875,0.005991038470469348,0.29970181200725476,15.090290072298679,0.15232034713910605,1103,0,2.2985582222423404,0.6920053971941053,30.10606346612464,0.4330917261952935,0.13038686995488982,0.08203125,,
2.121890000000596,1200,,,,-0.0625,0.05859375,-1.015625,0.005991038470469348,0.29970181200725476,15.090177228325153,0.15306188146559663,1103,0,2.3097309182167503,0.6919922056301463,29.959862431265606,0.4330999822958098,0.12975615888566033,0.08203125,,
2.129285000000149,1200,,,,-0.0625,0.03515625,-0.94140625,0.005991038470469348,0.29970181200725476,15.090131355181335,0.15289573292129077,1102,0,2.307216693429001,0.691623275558558,29.976520087095192,0.433331009233624,0.12989755702652964,0.08203125,,
2.1368400000007823,1200,,,,-0.0625,0.06640625,-0.95703125,0.005991038470469348,0.29970181200725476,15.090125549000817,0.15238371026230133,1102,0,2.299489319480691,0.6915036928432713,30.072054998691545,0.4334059457802229,0.1303340743826279,0.08203125,,
2.143910000000149,1200,,,,0,0.0390625,-1.01171875,0.005991038470469348,0.29970181200725476,15.090034626729329,0.1521891484552409,1102,0,2.2965395200020353,0.691453542922837,30.1084974545626,0.4334373799581501,0.13050148251182245,0.08203125,,
2.1528450000006707,1200,,,,-0.0625,0,-0.9609375,0.005991038470469348,0.29970181200725476,15.090145043305041,0.15328570356300567,1102,0,2.3131034998308158,0.6914280820469427,29.89179178958118,0.43345334068584634,0.12956697010279716,0.08203125,,
2.1613750000009313,1200,,,,0,0,-0.93359375,0.005870462313822651,0.29970181200725476,15.090238720521775,0.15399646595562624,1102,0,2.3238434333871045,0.6774897511619722,29.153846658873267,0.4423709901046208,0.12896816011844056,0.080078125,,
2.170105000000447,1200,,,,0,0.03515625,-1.00390625,0.005870462313822651,0.29970181200725476,15.090332182737427,0.15355440165652695,1102,0,2.317186929118478,0.677451511249743,29.235945651888528,0.4423959604937237,0.12933864257609531,0.080078125,,
2.17891000000108,1200,,,,-0.125,0.0234375,-0.95703125,0.005870462313822651,0.303904749206615,15.090423211856603,0.15407112641247578,1102,0,2.3249985022917175,0.6774371874220191,29.1371020993897,0.4486094871217828,0.13071180429022233,0.080078125,,
2.1869150000009685,1200,,,,0,0.017578125,-0.958984375,0.005870462313822651,0.303904749206615,15.090402590145281,0.1540845429996842,1102,0,2.3251977867837863,0.6774323116713465,29.13439516938346,0.44861271594327656,0.13070060144301793,0.080078125,,
2.1948650000011547,1200,,,,-0.03125,0.029296875,-0.984375,0.005870462313822651,0.303904749206615,15.090480741302185,0.1538848895037055,1102,0,2.3221969614330824,0.6774303748804843,29.171960265697106,0.44861399853856776,0.13086949740002599,0.080078125,,
2.2025300000011923,1200,,,,-0.0625,0.0078125,-0.95703125,0.005870462313822651,0.303904749206615,15.090424547478085,0.1528444921747601,1102,0,2.3064882766608217,0.6773453133613464,29.366952358498928,0.4486703358121408,0.1317608037646685,0.080078125,,
2.2098750000009315,1200,,,,-0.03125,0.041015625,-0.9609375,0.005870462313822651,0.303904749206615,15.090580299142905,0.15177620074154527,1102,0,2.290390944789122,0.6772743630521154,29.570251515051837,0.44871733788516355,0.13268684540428785,0.080078125,,
2.2210950000006706,1200,,,,-0.03125,0.05859375,-1.02734375,0.005870462313822651,0.303904749206615,15.090650014910441,0.15126304569916565,1102,0,2.282657682835513,0.6772415096131109,29.66899131243555,0.44873910546361406,0.13313636621550065,0.080078125,,
2.2293250000001863,1200,,,,-0.09375,0.072265625,-0.998046875,0.005870462313822651,0.303904749206615,15.090673664236178,0.15147049790729936,1102,0,2.2857918536784236,0.677226521544848,29.627654873956143,0.4487490367526747,0.13295381585928506,0.08203125,,
2.236125000000931,1200,,,,-0.03125,0.017578125,-0.962890625,0.005870462313822651,0.303904749206615,15.090736616913377,0.15160689834559543,1101,0,2.287859772240541,0.6769952104975683,29.590765077117254,0.4489023622238855,0.13283364343129989,0.08203125,,
2.2430450000008566,1200,,,,-0.0625,0.0390625,-0.98046875,0.005870462313822651,0.303904749206615,15.09053427915078,0.15283561466073484,1101,0,2.3063710821128987,0.6766925163777888,29.340140518838858,0.4491031625905389,0.13176749897861345,0.080078125,,
2.2502250000005586,1200,,,,-0.0625,0.08984375,-0.99609375,0.005870462313822651,0.303904749206615,15.090597863940115,0.1526187149431162,1101,0,2.3031076537178747,0.6765582140884268,29.375883189666286,0.44919231320853403,0.13195420922509887,0.080078125,,
2.257835000000894,1200,,,,0,0.009765625,-0.96875,0.005870462313822651,0.303904749206615,15.090658397081691,0.1521314984987053,1100,0,2.295764475280108,0.6765000960079947,29.46731266609805,0.4492309032917322,0.13237627486571127,0.080078125,,
2.265050000000745,1200,,,,-0.0625,0.109375,-1,0.005870462313822651,0.303904749206615,15.090658806218162,0.15298957904310542,1100,0,2.3087135382464483,0.6764744816990742,29.300927572542463,0.44924791315602836,0.13163380565500632,0.080078125,,
2.272675000000745,1200,,,,-0.0625,0.044921875,-0.966796875,0.005870462313822651,0.303904749206615,15.090725190237096,0.15209011404646022,1100,0,2.2951501152269502,0.6764626909286985,29.473570658440707,0.44925574356420434,0.13241170901649896,0.080078125,,
2.2810449999999256,1200,,,,0,0.07421875,-0.9765625,0.005870462313822651,0.303904749206615,15.090526531417082,0.15262550692734433,1101,0,2.3031992616580714,0.6768366970900913,29.38680592502609,0.4490074939984576,0.1319489608501499,0.080078125,,
2.288900000001304,1200,,,,-0.0625,0.052734375,-0.939453125,0.005870462313822651,0.303904749206615,15.090598357376058,0.15524654557010456,1101,0,2.3427632655685273,0.6769840742301808,28.896819588209414,0.44890974658775296,0.12972063958535104,0.080078125,,
2.2972450000001117,1200,,,,-0.0625,0.033203125,-1.0078125,0.005870462313822651,0.303904749206615,15.090535986999555,0.15712838786157785,1101,0,2.3711515916043644,0.677042910938635,28.553337261770572,0.44887073521719506,0.12816757489595487,0.080078125,,
2.3058600000003353,1200,,,,-0.0625,0.13671875,-0.9921875,0.005845058669761162,0.303904749206615,15.090761654213512,0.15697654583385773,1101,0,2.36889563848047,0.6741373222974569,28.457873421974927,0.4508054058940232,0.12828963178874142,0.08203125,,
2.315605000000447,1200,,,,-0.03125,0.052734375,-0.982421875,0.005845058669761162,0.303904749206615,15.090822692371315,0.15492186027729074,1101,0,2.3378983246169174,0.6741456136417058,28.835540303155387,0.45079986142004924,0.12999057572634692,0.080078125,,
2.3221600000010802,1200,,,,-0.0625,0.080078125,-0.98828125,0.005845058669761162,0.2968964175589907,15.090957532031855,0.15465793884731416,1105,0,2.3339363871363976,0.6762254324921654,28.973601689369698,0.43904946973793463,0.12720844458115893,0.080078125,,
2.329045000000857,1200,,,,-0.0625,0.0234375,-0.9453125,0.005845058669761162,0.2968964175589907,15.091089192684759,0.1540811429289445,1106,0,2.32525227085151,0.6769022992469361,29.11091874771307,0.4386104433229026,0.12768352977471426,0.080078125,,
2.337085000000894,1200,,,,0,0.06640625,-0.9609375,0.005845058669761162,0.2968964175589907,15.09112945959159,0.1549554249736686,1106,0,2.3384523787436646,0.6772002826607744,28.959336047056933,0.4384174448251274,0.12696278113582907,0.080078125,,
2.345225000000559,1200,,,,-0.03125,-0.001953125,-0.91796875,0.005845058669761162,0.2968964175589907,15.091106249940905,0.15514286797087373,1107,0,2.341277504469009,0.6773374447307245,28.930250405508488,0.4383286644916285,0.1268095802365493,0.080078125,,
2.353070000000298,1200,,,,-0.03125,0.013671875,-1.015625,0.005845058669761162,0.2968964175589907,15.090863016609,0.15479455837384035,1107,0,2.3359834761361102,0.6773056040375149,28.994451842520245,0.4383492706824645,0.12709696819006588,0.080078125,,
2.360385000000708,1200,,,,-0.0625,0.0859375,-0.94140625,0.005845058669761162,0.2968964175589907,15.090982217505813,0.1537261422016394,1106,0,2.3198784783307103,0.6771247216647022,29.187939281713298,0.43846636824760266,0.1279792973348437,0.080078125,,
2.368335000000894,1200,,,,-0.03125,0.041015625,-0.9765625,0.005845058669761162,0.2968964175589907,15.09085316334512,0.15431629160991667,1106,0,2.328764497397199,0.6770567211313199,29.073644925798593,0.438510405838517,0.12749095835616883,0.080078125,,
2.378964999999851,1200,,,,-0.0625,0.044921875,-0.970703125,0.005845058669761162,0.2968964175589907,15.090909317568569,0.1543177640885098,1106,0,2.328795383949641,0.6770250328809285,29.07189861106187,0.4385309303787697,0.12748926745786224,0.080078125,,
2.3954550000000747,1200,,,,-0.0625,0.046875,-0.93359375,0.005845058669761162,0.2968964175589907,15.090815275687293,0.15305890862727578,1105,0,2.309783716392519,0.6763711344193991,29.2828774235093,0.438954890962117,0.12853862266493565,0.080078125,,
2.404295000000857,1200,,,,0,-0.05078125,-0.94140625,0.005845058669761162,0.2968964175589907,15.090735106697993,0.15312860364421788,1104,0,2.310823194853441,0.6757530953693367,29.242959689618093,0.4393563560322581,0.1284808020882882,0.080078125,,
2.413085000000894,1200,,,,-0.0625,0.12109375,-0.99609375,0.005845058669761162,0.2968964175589907,15.090657403804247,0.15199299543170824,1104,0,2.293674221837893,0.6755260925397802,29.451701820081905,0.43950399671868656,0.12944140660093012,0.080078125,,
2.4224350000005215,1200,,,,-0.03125,0.033203125,-0.943359375,0.005845058669761162,0.2968964175589907,15.090527091682198,0.1527465315158802,1104,0,2.3050256720008786,0.6754501357529163,29.303367158014844,0.4395534205171841,0.1288039526697634,0.080078125,,
2.431030000000261,1200,,,,-0.0625,0.0234375,-0.966796875,0.005845058669761162,0.2968964175589907,15.09049489959193,0.15284444710569348,1103,0,2.306498349479416,0.6754167725913954,29.283210748615502,0.43957513287666483,0.12872171255878037,0.080078125,,
2.4464850000003353,1200,,,,-0.0625,0.048828125,-0.94140625,0.005845058669761162,0.2968964175589907,15.090317209460549,0.1521978220286349,1104,0,2.296713413001123,0.6754618683124294,29.409932666775397,0.4395457856129692,0.12927011958842316,0.080078125,,
2.4533250000011178,1200,,,,-0.03125,0.048828125,-1.029296875,0.005845058669761162,0.2968964175589907,15.090303264215484,0.15143379323036227,1104,0,2.285181864296668,0.6754666291735052,29.55855022862261,0.4395426875821689,0.12992244608521314,0.080078125,,
2.4602050000010056,1200,,,,-0.125,0.1171875,-0.9609375,0.005815662276904604,0.2968964175589907,15.09029047880169,0.15045819542879169,1104,0,2.270457873936779,0.6720715096901188,29.60070377896087,0.4417631357351911,0.13076499721362275,0.080078125,,
2.468230000000447,1200,,,,0,0.05078125,-0.890625,0.005815662276904604,0.2968964175589907,15.09017809336031,0.14937040154984926,1104,0,2.2540259612639684,0.6720724697541528,29.816536335601086,0.4417625046709573,0.13171827772227743,0.080078125,,
2.47519000000041,1200,,,,-0.03125,0.013671875,-0.990234375,0.005815662276904604,0.2949676535069715,15.090085184995257,0.15013817465224835,1103,0,2.265597845022123,0.6718790276910891,29.65570563051663,0.4390189920358539,0.13019417994021407,0.080078125,,
2.4854249999998137,1200,,,,-0.0625,0.03515625,-0.96875,0.005815662276904604,0.2949676535069715,15.090042422453275,0.14939027444438266,1103,0,2.2543055788676716,0.6717800046695058,29.799864355875755,0.4390837051663753,0.13084634854833324,0.080078125,,
2.503420000000857,1200,,,,-0.0625,0.08984375,-0.9921875,0.005815662276904604,0.2949676535069715,15.089974530935905,0.14831103231967788,1103,0,2.238009700360751,0.6717339811981544,30.0147931034381,0.43911378873649565,0.13179909517792746,0.080078125,,
2.5194700000006707,1200,,,,-0.03125,0.01953125,-0.9375,0.005815662276904604,0.2949676535069715,15.090051840089044,0.14967904693901718,1102,0,2.2586645776848906,0.6711623393645397,29.715007088501586,0.4394877903701339,0.1305938280615843,0.080078125,,
2.549920000000857,1200,,,,-0.041015625,0.04296875,-0.98046875,0.005815662276904604,0.2949676535069715,15.090133781540487,0.1500376190207844,1102,0,2.2640877432874404,0.6709787231421009,29.635720838621044,0.4396080581000819,0.1302810168826233,0.080078125,,
2.565480000000447,1200,,,,0,0.05078125,-0.96484375,0.005815662276904604,0.2949676535069715,15.08988236487601,0.14985610741820146,1102,0,2.261311032598883,0.6710805706349633,29.67661506801666,0.4395413403607839,0.1304409916436708,0.080078125,,
2.572745000001043,1200,,,,-0.03125,0.044921875,-1.0078125,0.005815662276904604,0.2949676535069715,15.09006103502358,0.14892114598657183,1102,0,2.247229182343026,0.6710946119596337,29.86320297157814,0.4395321438293916,0.1312583762371,0.080078125,,
2.582015000000596,1200,,,,-0.0625,0.04296875,-0.98828125,0.005815662276904604,0.2949676535069715,15.089970458607237,0.14830156170596798,1102,0,2.237866185108375,0.6711007539115017,29.98842193412926,0.43952812120647533,0.13180754750654888,0.080078125,,
2.5903300000000744,1200,,,,-0.03125,0.05859375,-0.96484375,0.005815662276904604,0.2949676535069715,15.090037532058458,0.1501788701217882,1102,0,2.266204786659917,0.6710402305411408,29.61074985328949,0.4395677637227554,0.1301593109516437,0.080078125,,
2.5973500000005587,1200,,,,-0.03125,0.013671875,-0.935546875,0.005815662276904604,0.2949676535069715,15.089779441624342,0.15147127493899262,1102,0,2.2856681305710396,0.6709993377792286,29.35681382631824,0.4395945523332564,0.1290509543191112,0.080078125,,
2.6048849999997765,1200,,,,0,0.015625,-1.046875,0.005815662276904604,0.2949676535069715,15.08978928833585,0.1510186365853942,1102,0,2.2788394046853657,0.6709809595711193,29.44397741199144,0.43960659285400633,0.1294376659015588,0.080078125,,
2.612584999999963,1200,,,,-0.0625,0.06640625,-0.95703125,0.005826181128455892,0.2949676535069715,15.089894252426719,0.15148554626952324,1102,0,2.2859008739782003,0.6721864583883109,29.405757092978885,0.43881820263712246,0.12903781474724807,0.080078125,,
2.620350000000559,1200,,,,0,-0.05078125,-0.9609375,0.005826181128455892,0.2927438202054933,15.08986676993775,0.1509875731198171,1102,0,2.2783823622942743,0.672183117977232,29.502647540703407,0.4355120091180407,0.12848757304753164,0.080078125,,
2.6276349999997763,1200,,,,-0.03125,0.0625,-1.056640625,0.005826181128455892,0.2927438202054933,15.08970008303843,0.15113237916398778,1102,0,2.280542274420622,0.6723183504216227,29.480635284098256,0.43542440872230914,0.12836588187336528,0.080078125,,
2.635205000001006,1200,,,,-0.125,0.12109375,-0.984375,0.005826181128455892,0.2927438202054933,15.089803492633392,0.15186202998182438,1102,0,2.2915681904181304,0.672518457434457,29.34752106642509,0.43529484874253255,0.12774824743577798,0.080078125,,
2.6431500000003725,1200,,,,0,0.025390625,-0.970703125,0.005826181128455892,0.2927438202054933,15.089845050937242,0.15135567633560457,1102,0,2.283933703484082,0.6726063498282061,29.449469080567553,0.43523796687358735,0.12817527048132796,0.080078125,,
2.6512750000003726,1200,,,,-0.03125,0.013671875,-0.9921875,0.005826181128455892,0.2927438202054933,15.089951362197299,0.1505400360743876,1102,0,2.2716418224259356,0.6726420554646916,29.610392308518186,0.43521486328007336,0.12886882840221078,0.080078125,,
2.6590800000010058,1200,,,,-0.0625,0.07421875,-0.97265625,0.005826181128455892,0.2927438202054933,15.090051711319022,0.15030113598013778,1103,0,2.2680519142102713,0.6726560333069621,29.657876395707582,0.4352058194829297,0.12907280400917356,0.080078125,,
2.667030000001192,1200,,,,-0.03125,0.041015625,-0.94921875,0.005826181128455892,0.2927438202054933,15.09024408957872,0.1508153476686642,1102,0,2.27584040877482,0.6721614639933272,29.5346484490615,0.43552603933331036,0.12863108462121453,0.080078125,,
2.674100000000559,1200,,,,-0.0625,0.109375,-1.05078125,0.005826181128455892,0.2927438202054933,15.090320740935402,0.15134842142124685,1101,0,2.2838962228808732,0.6717412126262591,29.412072488080675,0.4357985109488422,0.12817737394224968,0.080078125,,
2.6813950000004843,1200,,,,0,-0.05078125,-0.94921875,0.005826181128455892,0.2927438202054933,15.0903927249397,0.1511979400806828,1101,0,2.2816362950194047,0.6715617481546168,29.43333911809574,0.43591497134838825,0.128304331783521,0.080078125,,
2.692975000000559,1200,,,,-0.0625,0.1015625,-0.9453125,0.005826181128455892,0.2927438202054933,15.090373272865628,0.15135394574048744,1101,0,2.283987537545006,0.67147637111466,29.3993010065375,0.4359703971705431,0.128172249363565,0.080078125,,
2.701635000000708,1200,,,,-0.041015625,0.03515625,-0.947265625,0.005826181128455892,0.2927438202054933,15.090191166805687,0.15283323357341394,1101,0,2.3062827112638815,0.6714359816025699,29.11334236359131,0.43599662250268184,0.12693318940290058,0.08203125,,
2.709190000001341,1200,,,,-0.125,0.109375,-0.97265625,0.005826181128455892,0.2927438202054933,15.090360214607015,0.15174481461048606,1101,0,2.2898839131709963,0.6719025407850955,29.34220974785814,0.4356938728992332,0.12784221004465948,0.08203125,,
2.71681500000041,1200,,,,0,0.02734375,-0.97265625,0.005826181128455892,0.2927438202054933,15.090504202027628,0.15145067680227148,1102,0,2.2854670746846057,0.6721116351746941,29.40806466299434,0.4355583282372486,0.12808927481306723,0.08203125,,
2.7254000000003726,1200,,,,-0.0625,0.06640625,-0.94921875,0.005826181128455892,0.2927438202054933,15.09037789242158,0.15115868609457475,1102,0,2.281041694889064,0.6721967156464645,29.468848252646957,0.4355031992739743,0.12833777692947018,0.08203125,,
2.733070000000298,1200,,,,-0.0625,0.0625,-0.98046875,0.005826181128455892,0.2927438202054933,15.090359807090246,0.15131130525214284,1102,0,2.2833420391352997,0.6722286411040593,29.44055816353436,0.43548251637224916,0.12820848352459505,0.08203125,,
2.741085000000894,1200,,,,-0.03125,0.064453125,-0.96484375,0.005826181128455892,0.2927438202054933,15.090245499344462,0.15145834068543076,1102,0,2.2855435438665017,0.6722415686483785,29.412765748979492,0.4354741418238826,0.12808498923203732,0.08203125,,
2.7496300000008196,1200,,,,-0.0625,0.09765625,-0.984375,0.005826181128455892,0.2927438202054933,15.09017707871249,0.1521538523052289,1101,0,2.2960285744941706,0.6716269707669537,29.25168171806909,0.4358726390502144,0.12750007707111682,0.08203125,,
2.7584350000005213,1200,,,,-0.0625,0.05078125,-0.982421875,0.005757109054239648,0.2927438202054933,15.09006848685889,0.15193835309832499,1100,0,2.292760154034273,0.6634572487208414,28.93705421186083,0.44123991526192397,0.12768183348371173,0.08203125,,
2.767620000001043,1200,,,,0,0.01171875,-0.9375,0.005757109054239648,0.2927438202054933,15.090064751121902,0.15206999598977758,1100,0,2.2947460861885918,0.6633727805186299,28.908330403580486,0.4412960989696079,0.1275713343482458,0.08203125,,
2.7763250000001864,1200,,,,-0.0625,0.068359375,-1.025390625,0.005757109054239648,0.2932759311918377,15.089951155384307,0.15267289655014105,1100,0,2.3038265516926697,0.6633422673865037,28.79306460371907,0.4421185647453357,0.12729948397216004,0.08203125,,0.3226000000005588,3933,
2.793125000000931,1200,,,,-0.03125,0.005859375,-0.9453125,0.005757109054239648,0.2932759311918377,15.090286652792177,0.15319183014752963,1101,0,2.3117086297920726,0.6638731398231327,28.71785532430378,0.4417650204525092,0.1268654394469326,0.08203125,,
2.8111800000006335,1500,,,,-0.03125,0.052734375,-0.95703125,0.005757109054239648,0.2932759311918377,15.08985261845569,0.1518829954528975,1101,0,2.291892016633799,0.6640491784988646,28.97384229620828,0.4416479090521745,0.1279623686732784,0.080078125,,
2.8197200000006704,1500,,,,0.28125,-0.033203125,-1.14453125,0.005757109054239648,0.2932759311918377,15.089859937619348,0.33255189832706333,1106,0,5.018161567744816,0.6669105308074437,13.289937396478772,0.43975303679304917,0.05844290328891049,0.083984375,,
2.827910000000149,1500,,,,-0.9375,0.2109375,-0.2734375,0.005757109054239648,0.2932759311918377,15.074685442437561,0.7288554425368072,1118,0,10.987266529250995,0.6740091798820528,6.134457356501391,0.4351215679928263,0.026692347037460134,0.09375,,
2.836339999999851,1500,,,,0.15625,-0.0625,-0.98046875,0.005757109054239648,0.2932759311918377,15.063882190185527,1.0185578576382952,1122,0,15.34343557135104,0.6764881508891644,4.408974429118662,0.43352707775644095,0.019114098001586862,0.095703125,,
2.8473500000005587,1500,,,,-0.125,0.52734375,-0.75390625,0.005757109054239648,0.2932759311918377,15.055803620423116,1.2329485091367103,1124,0,18.563030627655767,0.6774633758040535,3.649530022294678,0.4329030050425391,0.01579892513644331,0.099609375,,
2.8682050000000747,1500,,,,-0.0625,0.109375,-0.99609375,0.005757109054239648,0.2932759311918377,15.041393273755473,1.5942705151036476,1621,0,23.980049802426677,0.9770921927429433,4.074604518311158,0.300151749620001,0.012229996751806556,0.10546875,,
2.875495000001043,1500,,,,-0.03125,-0.1875,-0.896484375,0.005757109054239648,0.2932759311918377,15.038554998343482,1.6648442098364709,1906,0,25.036851213299464,1.1489623214566491,4.5890847521845135,0.25525287097319593,0.011713770581344145,0.107421875,,
2.8836800000006333,1500,,,,0,0.1171875,-0.9921875,0.005757109054239648,0.2932759311918377,15.037201013896084,1.7062403470705318,1998,0,25.65707907691941,1.2045504510439102,4.694807415266141,0.24347334803425907,0.011430604797709139,0.107421875,,
2.8914500000001864,1500,,,,-0.09375,-0.251953125,-0.9921875,0.005757109054239648,0.2932759311918377,15.035968896879258,1.736062335138523,2172,0,26.103379274186405,1.309505912500874,5.016614510887647,0.2239592264472819,0.011235171052426069,0.111328125,,
2.8993650000002233,1500,,,,0.125,-0.025390625,-0.92578125,0.005757109054239648,0.2932759311918377,15.035314988673315,1.7551751638778716,2241,0,26.389611449200107,1.3511336020670952,5.119945038478576,0.21705916479551376,0.011113309938510943,0.115234375,,
2.907495000001043,1500,,,,-0.0625,0.10546875,-1.068359375,0.005882515889392795,0.2932759311918377,15.034860984038078,1.7633032440644572,2334,0,26.51101914721248,1.4375037660961019,5.422287834782274,0.20401750458595408,0.011062416331990557,0.115234375,,
2.9154400000004097,1500,,,,-0.125,-0.0703125,-0.87890625,0.005882515889392795,0.2932759311918377,15.034785675175403,1.7642222137433972,2403,0,26.524702867015467,1.4804744819505264,5.581493181556262,0.19809590423027518,0.011056709387555031,0.1171875,,
2.9234699999997393,1500,,,,-0.0625,0.1328125,-1.021484375,0.005882515889392795,0.2937055483320487,15.035039109358618,1.7582780488905705,2458,0,26.43577923019649,1.5141295918871802,5.727576927854099,0.1939764930992334,0.011110152864212193,0.1171875,,
2.931555000000633,1500,,,,0,0.0390625,-1.02734375,0.005882515889392795,0.2937055483320487,15.03508618914867,1.750831828607626,2507,0,26.32390744582043,1.544543969138491,5.867457072311373,0.19015680628106074,0.011157368978619537,0.1171875,,
2.9393100000005217,1500,,,,-0.09375,0.037109375,-0.974609375,0.005882515889392795,0.2937055483320487,15.035198146929474,1.737562607413751,2546,0,26.124598095161172,1.5681372567087026,6.002531602578625,0.18729581678870058,0.011242490593049513,0.1171875,,
2.9464700000006707,1500,,,,0.03125,0.07421875,-0.9609375,0.005882515889392795,0.2937055483320487,15.035663537563044,1.7223759942748034,2577,0,25.897065935091558,1.587206142629996,6.128903353793714,0.18504562226893823,0.011341267349289403,0.1171875,,
2.95406500000041,1500,,,,-0.0625,0.04296875,-1.01171875,0.005882515889392795,0.2937055483320487,15.036201494428244,1.703006578593545,2603,0,25.606750062069395,1.6034159287382004,6.261692424269405,0.18317489745981178,0.011469848677404283,0.115234375,,
2.9623550000013785,1500,,,,-0.03125,0.041015625,-0.935546875,0.005882515889392795,0.2937055483320487,15.036679724060892,1.6858784249719083,2625,0,25.350013930006806,1.6170900338922116,6.379049882801296,0.18162597145263581,0.011586011319086082,0.115234375,,
2.9705600000005217,1500,,,,-0.1875,0.0546875,-0.9609375,0.005882515889392795,0.2937055483320487,15.037301485317915,1.6658618650750843,2642,0,25.050067098028038,1.6274295501590674,6.49670734928762,0.18047205072768988,0.011724740983035907,0.1171875,,
2.9795550000006332,1500,,,,0,0.10546875,-0.9921875,0.005882515889392795,0.2937055483320487,15.037883200789297,1.6428058296984442,2657,0,24.704322188580957,1.636882375594246,6.625894704169863,0.17942984340913515,0.011888832492146164,0.1171875,,
2.9875400000000374,1500,,,,-0.03125,0.01171875,-0.935546875,0.005882515889392795,0.2937055483320487,15.038723300986888,1.6199163524043925,2672,0,24.361473794553625,1.646266402892276,6.757663418788414,0.17840705964480977,0.012056148606153337,0.1171875,,
2.9970250000013037,1500,,,,0,0.126953125,-0.986328125,0.005882515889392795,0.2937055483320487,15.039469210860101,1.6010532235247323,2682,0,24.078990660148527,1.6518997584183324,6.8603363892336136,0.17779865081720642,0.012197585541579218,0.1171875,,
3.0048750000009314,1500,,,,-0.1875,0.078125,-0.99609375,0.005882515889392795,0.2937055483320487,15.040650412793187,1.57212645036392,2693,0,23.645804344629184,1.658981928610703,7.015967418285425,0.1770396309126823,0.01242104282228656,0.1171875,,
3.0134350000005217,1500,,,,0.0625,-0.01953125,-0.951171875,0.005882515889392795,0.2937055483320487,15.041479077938432,1.548702273292144,2699,0,23.29477284167947,1.6629230473206444,7.138610273740509,0.17662004793623892,0.012608216887461762,0.1171875,,
3.0212400000002235,1500,,,,-0.09375,0.107421875,-0.986328125,0.005882515889392795,0.2937055483320487,15.041986617565499,1.5265219180788154,2705,0,22.96192226316196,1.6664619061867436,7.2575017330333225,0.1762449818034641,0.012790982608770672,0.1171875,,
3.0291500000003726,1500,,,,0.0625,-0.05078125,-0.984375,0.005882515889392795,0.2937055483320487,15.042678092302033,1.5046461131561197,2709,0,22.633907123040967,1.6689182765253603,7.373531522652699,0.1759855784811316,0.012976352104628944,0.1171875,,
3.0372600000007077,1500,,,,-0.03125,0.115234375,-0.96875,0.005882515889392795,0.2937055483320487,15.043268949257914,1.4848373842450342,2715,0,22.336808117110667,1.6727131311760834,7.4885951582971915,0.17558632311659117,0.013148948891541105,0.1171875,,
3.0455800000000743,1500,,,,-0.09375,0.1015625,-0.982421875,0.005882515889392795,0.2937055483320487,15.043895631867702,1.4642117642009114,2718,0,22.027448963591393,1.6742032875704163,7.600531910606915,0.1754300391789761,0.013333616108588294,0.1171875,,
3.053395000000484,1500,,,,0.0625,-0.03125,-0.89453125,0.005882515889392795,0.2937055483320487,15.044616542508265,1.445509292559191,2722,0,21.747133015185426,1.676587403259344,7.709464057117915,0.1751805767841718,0.013505483602227577,0.1171875,,
3.0616100000003352,1500,,,,-0.0625,0.09375,-1,0.030455387667749297,0.2937055483320487,15.044979138415897,1.4265336078198065,2723,0,21.462168369898155,8.685054361928593,40.466807510977546,0.03381735290219056,0.013684803104237434,0.1171875,,
3.069485000000335,1500,,,,-0.103515625,0,-1,0.030455387667749297,0.2937055483320487,15.045720757594687,1.4077710478177587,2727,0,21.180930076092476,8.696406076919725,41.057715811713145,0.03377320995986419,0.013866508565814235,0.1171875,,
3.077589999999851,1500,,,,0,-0.01171875,-0.99609375,0.030455387667749297,1.1025258087557517,15.046294808226461,1.3917158244602186,2728,0,20.940166584102396,8.700864153057667,41.55107419089632,0.12671451816292303,0.05265124345251294,0.1171875,,
3.0853400000007825,1500,,,,-0.03125,0.16015625,-1.0234375,0.030455387667749297,1.1025258087557517,15.046953869657248,1.3757406121796358,2729,0,20.700705528081002,8.702584078066756,42.040036105346715,0.12668947508757344,0.053260301068490105,0.119140625,,
3.093190000001341,1500,,,,0,0.01953125,-0.890625,0.030455387667749297,1.1025258087557517,15.04733239720673,1.3589337936636734,2729,0,20.44832849905444,8.703281573576099,42.562312973300244,0.12667932198162052,0.05391764949427206,0.1171875,,
3.0998799999998883,1500,,,,-0.09375,-0.021484375,-0.98828125,0.030455387667749297,1.1025258087557517,15.047785915212422,1.343971015390546,2732,0,20.223788115847597,8.712230177670591,43.07912112095155,0.12654920568805914,0.054516285595961105,0.1171875,,
3.106940000001341,1500,,,,0,0.12890625,-1.046875,0.030455387667749297,1.1025258087557517,15.048142543126744,1.3321776508019947,2733,0,20.04679918203614,8.71622083264406,43.47936422915152,0.1264912661031445,0.054997598307051476,0.1171875,,
3.115440000001341,1500,,,,-0.03125,0.0078125,-0.9296875,0.030455387667749297,1.1025258087557517,15.048726565393734,1.3180963457239658,2734,0,19.835671493644647,8.718077900935048,43.95151383570918,0.12646432175577388,0.05558298387372472,0.1171875,,
3.1225350000010805,1500,,,,0,0.03125,-0.98046875,0.030455387667749297,1.1025258087557517,15.04910178772495,1.3049313829656188,2734,0,19.638045208246286,8.718760872084701,44.39729504453719,0.1264544153614494,0.056142339884867255,0.1171875,,
3.12991000000108,1500,,,,-0.0625,0.078125,-0.99609375,0.030455387667749297,1.1025258087557517,15.049720109334741,1.292680372462781,2734,0,19.454477796395437,8.720403951041051,44.82466217960774,0.12643058910408972,0.05667208445759617,0.1171875,,
3.1367050000000747,1500,,,,-0.0625,-0.0625,-0.9453125,0.030455387667749297,1.1025258087557517,15.050073367226625,1.2799462867828684,2734,0,19.26328552219146,8.721021772810515,45.272763894631716,0.12642163240471327,0.05723456715032506,0.1171875,,
3.1438100000005216,1500,,,,-0.09375,-0.0078125,-0.9609375,0.030455387667749297,1.1025258087557517,15.050330868290017,1.269229194645887,2735,0,19.102319327113868,8.722557419878472,45.662295088417125,0.12639937528449227,0.05771685573232065,0.1171875,,
3.1604050000011923,1500,,,,0,0.09375,-0.962890625,0.030455387667749297,1.1025258087557517,15.051111748746234,1.2502539015504266,2737,0,18.81771118654144,8.728219480083164,46.38300265935449,0.12631737907961574,0.05858979329772506,0.1171875,,
3.1693100000005217,1500,,,,-0.0625,0.04296875,-0.91796875,0.030455387667749297,1.1025258087557517,15.051283901537062,1.2455264231324372,2738,0,18.746771801432292,8.730884783383265,46.572737300382606,0.12627881779565953,0.058811502078001315,0.1171875,,
3.177424999999814,1500,,,,-0.03125,0.123046875,-1.001953125,0.030455387667749297,1.1025258087557517,15.051468876546952,1.2404495852698856,2740,0,18.670588325615256,8.738691993073104,46.804588268297834,0.12616599940010365,0.05905147655380162,0.1171875,,
3.1855400000009686,1500,,,,-0.03125,-0.083984375,-0.95703125,0.030455387667749297,1.1025258087557517,15.051889325422739,1.2270219976685375,2742,0,18.468999308765945,8.744527343787434,47.347055450031974,0.12608180698743462,0.059696023066742966,0.1171875,,
3.1933250000001863,1500,,,,-0.0625,0.125,-1.05078125,0.030455387667749297,1.1025258087557517,15.052287116776936,1.2149720145654201,2743,0,18.288107602087592,8.748168118750685,47.83528350277248,0.12602933480354764,0.06028648959993531,0.1171875,,
3.201820000000298,1500,,,,-0.03125,0.060546875,-0.966796875,0.030455387667749297,1.1025258087557517,15.05279714733076,1.2039044998609894,2743,0,18.122130221166167,8.749606937327938,48.28133795831921,0.12600861006134,0.0608386428802962,0.1171875,,
3.2112600000007077,1500,,,,-0.09375,-0.041015625,-0.9375,0.04023489767436882,1.1025258087557517,15.052955215533483,1.1964525104031964,2745,0,18.010146056611926,11.565334934031783,64.21566431320467,0.09533021006693845,0.061216927685658035,0.1171875,,
3.218705000001006,1500,,,,-0.0625,0.095703125,-1.00390625,0.04023489767436882,1.6448318809322717,15.053529319997821,1.18628774382733,2746,0,17.857817333658776,11.5679752151439,64.7782144872786,0.14218839946847264,0.09210710638371572,0.1171875,,
3.2257600000007076,1500,,,,-0.0625,-0.1015625,-0.96875,0.04023489767436882,1.6448318809322717,15.053722623719247,1.1791087054896674,2743,0,17.749975395654122,11.555365176847282,65.10073912370876,0.14234356558699782,0.09266671329217673,0.1171875,,
3.233870000000112,1500,,,,-0.03125,0.119140625,-0.998046875,0.04023489767436882,1.6448318809322717,15.05382418899672,1.1726059167951368,2741,0,17.652203314411306,11.549778518883455,65.42967080746337,0.14241241754056436,0.09317997598574147,0.1171875,,
3.242160000000149,1500,,,,0.0625,0.078125,-0.99609375,0.04023489767436882,1.6448318809322717,15.053942207207278,1.1645790272863352,2740,0,17.53150537249416,11.545257801067784,65.85434368449373,0.14246818124582253,0.0938214857186714,0.1171875,,
3.249209999999963,1500,,,,-0.0625,0.033203125,-0.93359375,0.04023489767436882,1.6448318809322717,15.054204665738073,1.1583298411598644,2740,0,17.43773449925247,11.543805511273787,66.20014493149125,0.14248610471875273,0.09432600783105069,0.1171875,,
3.2564850000003354,1500,,,,-0.09375,0.05859375,-0.986328125,0.04023489767436882,1.6448318809322717,15.054455405616855,1.1523553480312294,2740,0,17.348082198360235,11.54317403137317,66.53861734909377,0.14249389955152597,0.0948134705683919,0.1171875,,
3.2645350000010804,1500,,,,-0.1875,0.12109375,-1.0625,0.04023489767436882,1.6448318809322717,15.054792118677732,1.1454625261299027,2740,0,17.244700210621144,11.54287966626787,66.93580940977172,0.1424975334135222,0.09538187737930098,0.1171875,,
3.272425000000745,1500,,,,-0.03125,-0.0390625,-0.939453125,0.04023489767436882,1.6448318809322717,15.055242927877327,1.139328328659644,2741,0,17.152864762583402,11.548123018791221,67.32474824836171,0.14243283330596537,0.09589254644624988,0.1171875,,
3.28081500000041,1500,,,,-0.0625,0.1328125,-0.99609375,0.04023489767436882,1.6448318809322717,15.055082289382018,1.1363322086257284,2741,0,17.107574908935554,11.550207876456783,67.515167625681,0.14240712362285646,0.09614640822488231,0.1171875,,
3.2887400000002236,1500,,,,0.03125,0.126953125,-0.990234375,0.04023489767436882,1.6448318809322717,15.055029704838258,1.1382856722000982,2739,0,17.136924607564264,11.542118774736439,67.35233444186206,0.14250692728379336,0.09598174226700165,0.1171875,,
3.2979550000000746,1500,,,,-0.03125,0.0546875,-0.951171875,0.04023489767436882,1.6448318809322717,15.05519405633368,1.1378777991755389,2739,0,17.13097107898162,11.538687784101006,67.35571340878677,0.14254930124711945,0.09601509881423789,0.1171875,,
3.308265000000596,1500,,,,-0.0625,0.0703125,-1.001953125,0.04023489767436882,1.6448318809322717,15.05516859290302,1.132818553598855,2743,0,17.05477430959931,11.558873554594546,67.77500156122626,0.14230036111766842,0.09644407196913038,0.1171875,,
3.3156600000010803,1500,,,,-0.0625,-0.22265625,-1,0.04023489767436882,1.6448318809322717,15.055651231823258,1.1242727726931323,2746,0,16.926658755102707,11.567936256557891,68.34152223379952,0.14218887833167412,0.09717404389903123,0.119140625,,
3.3235050000008197,1500,,,,-0.0625,0.09765625,-1.009765625,0.04023489767436882,1.6448318809322717,15.055863619426,1.1169665506750457,2746,0,16.81689605442417,11.570558316715461,68.80317437456891,0.14215665622254872,0.09780829206585664,0.1171875,,
3.3319700000006707,1500,,,,-0.0625,0.1015625,-0.982421875,0.04023489767436882,1.6448318809322717,15.056065758858956,1.1116067652709951,2746,0,16.736424555912595,11.5698056047936,69.1294939737069,0.14216590469340168,0.09827857051769101,0.1171875,,
3.341125,1500,,,,-0.125,-0.01953125,-0.921875,0.04023489767436882,1.6448318809322717,15.056302570970018,1.1045381594745076,2745,0,16.63026073023052,11.565507195918647,69.54495412627443,0.14221874173514124,0.09890595869866868,0.1171875,,
3.348885000000708,1500,,,,-0.09375,0.169921875,-1.017578125,0.04023489767436882,1.6448318809322717,15.056418750116865,1.1010378568831793,2743,0,16.57768703296439,11.558245661693142,69.7217026640074,0.14230809147651596,0.09921962440608012,0.119140625,,
3.356680000000633,1500,,,,-0.03125,0,-0.986328125,0.04023489767436882,1.6448318809322717,15.056578433854106,1.0945282767338191,2742,0,16.47985084671392,11.5526989497795,70.10196304102539,0.1423764168080971,0.09980866308994847,0.119140625,,
3.3646850000005215,1500,,,,0,0.0546875,-0.921875,0.040772722741310365,1.6448318809322717,15.05674472497555,1.0917615087308303,2740,0,16.438374337514276,11.699210634706022,71.17011934694216,0.14059340687933541,0.100060495469955,0.1171875,,
3.3723700000001116,1500,,,,0,0.0859375,-0.986328125,0.040772722741310365,1.9056664651630508,15.056806502414897,1.0888833327030008,2739,0,16.395105644213746,11.696043467994057,71.33862825776845,0.162932573769742,0.11623386311241059,0.1171875,,
3.378969999999739,1500,,,,-0.0625,0.021484375,-0.986328125,0.040772722741310365,1.9056664651630508,15.056940935382249,1.0862696654391157,2739,0,16.3558981924142,11.696563763272058,71.51281834645361,0.16292532608140545,0.11651249248096267,0.1171875,,
3.386730000000447,1500,,,,-0.125,0.1015625,-0.94140625,0.040772722741310365,1.9056664651630508,15.05698677778705,1.084539324928749,2739,0,16.329894275442264,11.69679884965748,71.62813581253694,0.16292205155078432,0.11669802835336723,0.1171875,,
3.3960250000003724,1500,,,,0,0,-1.0390625,0.040772722741310365,1.9056664651630508,15.057267259164801,1.079435821147221,2740,0,16.253353648129725,11.698120607739119,71.973580720587,0.16290364316318642,0.11724758510883297,0.1171875,,
3.4050600000005216,1500,,,,-0.0625,-0.0078125,-0.9453125,0.040772722741310365,1.9056664651630508,15.057591265105938,1.0771858693729055,2740,0,16.219824537565007,11.699357424517997,72.12998758045973,0.1628864215370839,0.11748995562495387,0.1171875,,
3.411775000001304,1500,,,,0,0.17578125,-1.04296875,0.040772722741310365,1.9056664651630508,15.057838264449705,1.073990482125625,2741,0,16.171974977406023,11.703338874078112,72.36802487283666,0.16283100794286476,0.117837584328783,0.1171875,,
3.419585000000894,1500,,,,0,0.046875,-0.962890625,0.040772722741310365,1.9056664651630508,15.058109696283466,1.070478195279628,2741,0,16.119378092000193,11.70483312808224,72.6134287642969,0.16281022072762188,0.11822208364904627,0.1171875,,
3.4276800000006333,1500,,,,-0.0625,0.1015625,-0.91796875,0.040772722741310365,1.9056664651630508,15.058202479234975,1.0692896833935723,2739,0,16.10158056149747,11.692837302731064,72.61918951417285,0.1629772497320175,0.11835275784788056,0.1171875,,
3.4358100000005214,1500,,,,-0.0625,0.140625,-0.9921875,0.040772722741310365,1.9056664651630508,15.058160143235582,1.0664752692954096,2737,0,16.05915539385057,11.68812427630732,72.78168739050236,0.16304296738408022,0.11866542283368,0.1171875,,
3.4445250000003726,1500,,,,-0.103515625,-0.01953125,-0.966796875,0.040772722741310365,1.9056664651630508,15.058052949365303,1.0664419860257248,2738,0,16.058539893001658,11.69109247158964,72.80296060219422,0.16300157318864633,0.11866997110948697,0.1171875,,
3.4529850000003353,1500,,,,-0.125,0.08984375,-1.0390625,0.040772722741310365,1.9056664651630508,15.058160045019623,1.0655719862600987,2739,0,16.04555350859402,11.69486979495709,72.88542454265166,0.16294892534714558,0.11876601602695559,0.1171875,,
3.4662950000008568,1500,,,,-0.03125,0.083984375,-0.98828125,0.040772722741310365,1.9056664651630508,15.058406346326118,1.064280390861218,2740,0,16.026366592015005,11.700048003139967,73.00499421353192,0.16287680739870664,0.11890820381661131,0.1171875,,
3.475515000000596,1500,,,,0,0.068359375,-0.90234375,0.040772722741310365,1.9056664651630508,15.05837210463349,1.0600154469691847,2740,0,15.96210703712137,11.698629641597352,73.29000873375361,0.1628965548569027,0.11938689928160771,0.1171875,,
3.4827150000007823,1500,,,,-0.0625,0.107421875,-0.96875,0.040772722741310365,1.9056664651630508,15.058442011720045,1.0592385949632606,2739,0,15.950482958830076,11.694338760326577,73.31651831804048,0.1629563247840986,0.1194739037107392,0.1171875,,
3.4904550000000745,1500,,,,0,-0.109375,-0.98828125,0.040772722741310365,1.9056664651630508,15.058420282811959,1.0579595150058518,2740,0,15.931199019158022,11.697755718665569,73.42671260712055,0.16290872463016703,0.11961852104611816,0.1171875,,
3.499085000000894,1500,,,,-0.09375,0.03125,-1.015625,0.040772722741310365,1.9056664651630508,15.058498013125313,1.057171626275199,2740,0,15.919416833797538,11.69909881035684,73.48949356938252,0.16289002221914944,0.11970705240390761,0.1171875,,
3.507550000000745,1500,,,,-0.0625,0.125,-1.015625,0.04053318597838708,1.9056664651630508,15.0587273328657,1.0544225574148538,2742,0,15.878261785733212,11.636655521473998,73.286709077499,0.1637641040113614,0.12001732248017931,0.1171875,,
3.514875,1500,,,,-0.03125,-0.025390625,-0.982421875,0.04053318597838708,1.9056664651630508,15.058954063360272,1.0515551394846305,2742,0,15.835320540589453,11.637513715272249,73.49086294428149,0.16375202743367676,0.12034277804976559,0.1171875,,
3.5228450000006704,1500,,,,-0.03125,0.171875,-0.9765625,0.04053318597838708,2.01079695896965,15.059005520249046,1.0512954831617503,2741,0,15.831464484345686,11.635511421444637,73.49611549171556,0.17281552018965698,0.12701269430619933,0.1171875,,
3.530690000001341,1500,,,,-0.0625,0.01171875,-1,0.04053318597838708,2.01079695896965,15.058922942689492,1.0489046935092114,2741,0,15.795374953780554,11.634720432148487,73.6590328890152,0.17282726909479618,0.12730289498372271,0.1171875,,
3.5389199999999255,1500,,,,-0.09375,0.07421875,-0.9453125,0.04053318597838708,2.01079695896965,15.059170624564251,1.048776360502449,2741,0,15.793702159815886,11.63441233692154,73.66488375678706,0.17283184579838487,0.12731637830208967,0.1171875,,
3.5468700000001117,1500,,,,-0.0625,0.0546875,-1.05859375,0.04053318597838708,2.01079695896965,15.058819861847077,1.0517346672961014,2741,0,15.83788289727166,11.634290053246602,73.45861898783708,0.17283366236932765,0.12696122152260916,0.1171875,,
3.5548600000003354,1500,,,,-0.09375,-0.03515625,-0.93359375,0.04053318597838708,2.01079695896965,15.058488092424547,1.0502019049499969,2741,0,15.814452880331103,11.632447698123473,73.55580231669657,0.1728610358844793,0.1271493218377815,0.1171875,,
3.56266000000108,1500,,,,-0.0625,0.08984375,-0.97265625,0.04053318597838708,2.01079695896965,15.058431351955042,1.0505422204149726,2741,0,15.819517908449287,11.635928649910076,73.55425568117514,0.17280932355881967,0.12710861169136342,0.1171875,,
3.5709450000012293,1500,,,,-0.0625,0.1640625,-0.9921875,0.04053318597838708,2.01079695896965,15.05850919335236,1.0449474227648845,2744,0,15.735350372274869,11.645774022156852,74.01026190478919,0.17266323003898035,0.12778850876511802,0.1171875,,
3.5790600000005215,1500,,,,0,-0.044921875,-0.94921875,0.04053318597838708,2.01079695896965,15.058873254097946,1.0437471062724881,2745,0,15.717655382688898,11.650782966834628,74.12545117681204,0.17258899806936825,0.12793237350045863,0.1171875,,
3.587015000000596,1500,,,,-0.125,0.0234375,-1.01953125,0.04053318597838708,2.01079695896965,15.05893423890783,1.0422391627342844,2746,0,15.695011012829944,11.655423281304477,74.26196306442033,0.17252028608819442,0.12811695113344723,0.1171875,,
3.595594999999739,1500,,,,0,0.11328125,-1.013671875,0.04053318597838708,2.01079695896965,15.058980685000398,1.0409968417975664,2746,0,15.676351333775967,11.656923200583753,74.35992567650591,0.17249808756301607,0.12826944970525286,0.1171875,,
3.6035600000005217,1500,,,,0.03125,-0.07421875,-0.9453125,0.04053318597838708,2.01079695896965,15.059155065081075,1.0390457244778601,2744,0,15.647150684621604,11.645914796520318,74.42834181923105,0.17266114290742157,0.12850882563212673,0.1171875,,
3.610605000000447,1500,,,,0,0.20703125,-1.05078125,0.04053318597838708,2.01079695896965,15.05935082668807,1.0363565344881502,2743,0,15.606856634387707,11.643604797383741,74.6057010079054,0.17269539751310228,0.1288406119230388,0.119140625,,
3.621245000001043,1500,,,,-0.09375,0.07421875,-0.984375,0.04053318597838708,2.01079695896965,15.05946624474494,1.03650493174655,2743,0,15.609211032148828,11.643344665920637,74.59278141566497,0.17269925581221784,0.12882117839448773,0.119140625,,
3.6408250000011178,1500,,,,-0.09375,0.0625,-0.97265625,0.04053318597838708,2.01079695896965,15.059315484286294,1.0302132427336554,2741,0,15.514306238415733,11.634376563958083,74.99127827675358,0.17283237721554073,0.1296092089500346,0.119140625,,
3.6481850000005216,1500,,,,-0.03125,-0.015625,-0.935546875,0.04053318597838708,2.01079695896965,15.059506355663354,1.0282154001979806,2741,0,15.484416354272428,11.635908350521417,75.14592790777587,0.1728096250328015,0.12985939624484685,0.12109375,,
3.656990000001155,1500,,,,0.03125,0.12890625,-0.9375,0.04053318597838708,2.01079695896965,15.05920358096436,1.0277763413629009,2742,0,15.477493160282645,11.636728826466339,75.18484231236987,0.17279744066875,0.1299174832866106,0.12109375,,
3.664875000000931,1500,,,,-0.0625,-0.03125,-0.94921875,0.03989045485982285,2.01079695896965,15.059308681836573,1.0284748620188857,2738,0,15.488120418651677,11.438272554274647,73.85190872160334,0.1757955101549129,0.1298283396962832,0.119140625,,
3.672340000000782,1500,,,,-0.0625,0.02734375,-0.98828125,0.03989045485982285,2.0373149283850993,15.059341800681432,1.0280802017269794,2738,0,15.482211156320101,11.437252700028546,73.87350931045573,0.17812974687356645,0.13159069514133534,0.119140625,,
3.6790100000007078,1500,,,,-0.0625,-0.04296875,-0.990234375,0.03989045485982285,2.0373149283850993,15.05928510559635,1.0269228417757812,2739,0,15.4647238557507,11.440941338257492,73.98089642579083,0.17807231661720868,0.13173949611958347,0.119140625,,
3.686165000000037,1500,,,,0,-0.0703125,-0.9921875,0.03989045485982285,2.0373149283850993,15.059316331307649,1.0254939566517483,2739,0,15.44323788906297,11.442605590493656,74.09460161587879,0.17804641716198535,0.13192278348751868,0.119140625,,
3.693665000000037,1500,,,,-0.125,0.1796875,-1.04296875,0.03989045485982285,2.0373149283850993,15.059346768860154,1.0252599865365,2738,0,15.439745665490046,11.43829975811098,74.08347265510437,0.1781134409369211,0.13195262231156946,0.12109375,,
3.7018400000007823,1500,,,,0.03125,0.142578125,-1.056640625,0.03989045485982285,2.0373149283850993,15.059378630583092,1.0262842758736694,2738,0,15.45520349299538,11.436368925301712,73.99688351230647,0.17814351230640726,0.13182064728610354,0.12109375,,
3.7092050000000745,1500,,,,0,-0.1171875,-0.8828125,0.03989045485982285,2.0373149283850993,15.059405007575979,1.0258434020166145,2739,0,15.448591265317782,11.440558719327056,74.05567616389209,0.17807827208153484,0.1318770684909561,0.12109375,,
3.716105000000447,1500,,,,-0.0625,0.1171875,-0.98046875,0.03989045485982285,2.0373149283850993,15.05933671683085,1.0243033238758892,2739,0,15.425328654416061,11.442556959598733,74.18031223809864,0.17804717385969157,0.13207594950022952,0.12109375,,
3.7233700000010432,1500,,,,-0.0625,-0.01171875,-0.953125,0.03989045485982285,2.0373149283850993,15.05927947339329,1.0224553749804088,2739,0,15.397441240903111,11.44165319658404,74.3087959718231,0.17806123760099188,0.13231516175382424,0.12109375,,
3.730995000000112,1500,,,,-0.09375,-0.0859375,-0.9375,0.03989045485982285,2.0373149283850993,15.059398244943088,1.021790368794528,2739,0,15.387548086524065,11.441252800685723,74.35396943263245,0.1780674689980624,0.13240023146828156,0.12109375,,
3.7391000000005588,1500,,,,-0.1875,0.11328125,-1.01953125,0.03989045485982285,2.0373149283850993,15.05949412402543,1.0221428404559734,2738,0,15.392954099761393,11.43573255428107,74.29199411734967,0.17815342556453997,0.13235373244026497,0.123046875,,
3.7470550000006333,1500,,,,0,0.125,-0.990234375,0.03989045485982285,2.0373149283850993,15.059421053960717,1.0236419064971374,2737,0,15.415454478419479,11.433584125171073,74.16962076062865,0.17818690150710867,0.1321605490929374,0.123046875,,
3.755210000000894,1500,,,,0,0.029296875,-0.935546875,0.03989045485982285,2.0373149283850993,15.059449692539781,1.025405300089406,2738,0,15.442039531160065,11.438656749774493,74.07477960856625,0.1781078821536684,0.13193302117081476,0.123046875,,
3.762980000000447,1500,,,,0,0.125,-0.9609375,0.03989045485982285,2.0373149283850993,15.05934643567642,1.0268473997280678,2739,0,15.463650729078479,11.44357421300143,74.00305667459538,0.17803134671599694,0.13174863840878462,0.12109375,,
3.7743100000005216,1500,,,,-0.09375,0.017578125,-0.974609375,0.03989045485982285,2.0373149283850993,15.059378430819852,1.026523740741934,2739,0,15.458809480053592,11.440806784450144,74.00833032590349,0.17807441090204676,0.13178989824629345,0.12109375,,
3.7825400000009686,1500,,,,-0.0625,-0.03125,-1.04296875,0.03989045485982285,2.0373149283850993,15.059423347420722,1.0266335455282087,2738,0,15.460509184772821,11.438802872933712,73.98723247873285,0.17810560694299202,0.13177540946656965,0.123046875,,
3.789895000000484,1500,,,,-0.0625,0.04296875,-0.974609375,0.03989045485982285,2.0373149283850993,15.059448451787643,1.0252231352254464,2739,0,15.439294956507723,11.443331649563415,74.11822678301775,0.1780351204330276,0.13195647431597018,0.123046875,,
3.797515000000596,1500,,,,0.0625,-0.0390625,-0.87890625,0.03989045485982285,2.0373149283850993,15.059214264343137,1.0241275765813567,2739,0,15.422556609761134,11.442774890848073,74.19505844838848,0.17804378289522615,0.13209968878283493,0.123046875,,
3.8047900000009687,1500,,,,0,0.08203125,-1,0.03989045485982285,2.0373149283850993,15.059248204675033,1.021712497181046,2739,0,15.386222088867711,11.44009576516125,74.3528573751605,0.17808547849655026,0.1324116418324121,0.123046875,,
3.813175000000745,1500,,,,0,0.07421875,-0.89453125,0.039615134682583875,2.0373149283850993,15.059285342454421,1.022496534311923,2738,0,15.398067071873987,11.359886820759305,73.77475866116471,0.179342889637075,0.13230978400571108,0.123046875,,
3.821675000000745,1500,,,,-0.03125,-0.041015625,-0.955078125,0.039615134682583875,2.0381283992539876,15.059116908468365,1.0265558851341736,2738,0,15.459025087311742,11.359386421639641,73.4806131530445,0.17942240219694885,0.13184068126823964,0.123046875,,
3.8295250000003724,1500,,,,-0.125,0.05078125,-1.00390625,0.039615134682583875,2.0381283992539876,15.058886756736165,1.034198709450835,2738,0,15.57388124958281,11.359195250322683,72.93747183687414,0.17942542181375837,0.13086836650360262,0.123046875,,
3.836455000001006,1500,,,,-0.125,0.171875,-0.9921875,0.039615134682583875,2.0381283992539876,15.058762939218099,1.0403029534649832,2741,0,15.66567556119762,11.368934365191603,72.57225723065123,0.1792717183322079,0.13010153256985846,0.123046875,,
3.84325,1500,,,,-0.03125,0.015625,-0.986328125,0.039615134682583875,2.0381283992539876,15.058987981501973,1.0366436336559854,2742,0,15.61080402032602,11.37320316386816,72.85469184713165,0.17920443079122808,0.13055883582935549,0.123046875,,
3.852205000001006,1500,,,,0,0.15234375,-0.97265625,0.039615134682583875,2.0381283992539876,15.059104280363938,1.0353995532230416,2745,0,15.592189843828015,11.38944111174531,73.04580835548052,0.1789489386930652,0.13071469881190273,0.123046875,,
3.8609550000000743,1500,,,,-0.0625,0.009765625,-0.943359375,0.039615134682583875,2.0381283992539876,15.058859357201866,1.0321680480156776,2747,0,15.543273468065673,11.396141815954572,73.31880146977043,0.17884372028440473,0.13112607221647427,0.123046875,,
3.869015000000596,1500,,,,0,0.056640625,-0.99609375,0.039615134682583875,2.0381283992539876,15.058915965272359,1.0302828325546738,2747,0,15.514942595903605,11.394849717144616,73.4443562823957,0.1788639999514371,0.13136551338527755,0.123046875,,
3.8769900000002235,1500,,,,-0.03125,0.056640625,-0.994140625,0.039615134682583875,2.0381283992539876,15.059032802714988,1.0302166439703746,2746,0,15.51406623545282,11.390266717808666,73.41896408679482,0.17893596785291926,0.13137293397629352,0.123046875,,
3.8850050000008194,1500,,,,0.0625,-0.08984375,-0.890625,0.039615134682583875,2.0381283992539876,15.059080719539423,1.0284325958086131,2743,0,15.487249474887367,11.380130226121672,73.4806412499172,0.17909534941662775,0.13160041120011792,0.123046875,,
3.893050000000745,1500,,,,-0.03125,0.1484375,-1.017578125,0.039615134682583875,2.0381283992539876,15.059027390956672,1.02802771129921,2743,0,15.481097463117301,11.378824061557747,73.50140446222917,0.17911590760416157,0.13165270770432747,0.123046875,,
3.9013600000003352,1500,,,,-0.125,0.15625,-0.99609375,0.039615134682583875,2.0381283992539876,15.05868321611535,1.0261564996760095,2743,0,15.4525656587788,11.38095805421014,73.65092830228144,0.1790823223797074,0.13189579285793882,0.123046875,,
3.909980000000447,1500,,,,-0.09375,-0.05078125,-0.9375,0.039615134682583875,2.0381283992539876,15.058682346742096,1.0246593427865462,2743,0,15.43001955664412,11.379370980940458,73.74826026089212,0.17910729887158885,0.13208851691807325,0.125,,
3.9181550000002607,1500,,,,-0.09375,0.072265625,-1.04296875,0.039615134682583875,2.0381283992539876,15.05834909134719,1.02378852682557,2742,0,15.416565032655498,11.374073529668811,73.77826062794243,0.17919071772638115,0.13220379474525012,0.125,,
3.929230000000447,1500,,,,-0.03125,0.015625,-0.931640625,0.039615134682583875,2.0381283992539876,15.058510924424484,1.0240663646123354,2741,0,15.420914538850518,11.371925036841814,73.7435189605135,0.1792245721503641,0.13216650634560295,0.125,,
3.9410250000003724,1500,,,,-0.125,0.1796875,-0.9453125,0.039615134682583875,2.0381283992539876,15.058872945344413,1.0221833981022608,2741,0,15.392929918862352,11.369379804320554,73.86105091265713,0.17926469467397554,0.13240678740156442,0.125,,
3.948344999999739,1500,,,,0,0.083984375,-0.97265625,0.039615134682583875,2.0381283992539876,15.059036248742869,1.0208912829147527,2739,0,15.373638835438873,11.36475258209738,73.92363450024386,0.17933768329146046,0.13257293351758415,0.125,,
3.956415000000969,1500,,,,-0.09375,0.0234375,-0.978515625,0.039615134682583875,2.0381283992539876,15.059280034945857,1.0202195468571775,2739,0,15.363771853247803,11.361901694933309,73.9525541218674,0.17938268205250044,0.1326580750301327,0.125,,
3.964395000000484,1500,,,,-0.0625,0.02734375,-1.0859375,0.03937986939164629,2.0381283992539876,15.059315472210558,1.0195800180766617,2738,0,15.354177141378592,11.292724979854752,73.54822649154887,0.18048154036247524,0.13274097208122948,0.125,,
3.9731600000010805,1500,,,,-0.0625,-0.0078125,-0.990234375,0.03937986939164629,2.0384720359179496,15.058953911071667,1.0205782851921643,2738,0,15.368841359349357,11.289423200675987,73.45656667741105,0.18056476399927057,0.1326366762630341,0.125,,
3.9812600000007077,1500,,,,0,0.134765625,-0.998046875,0.03937986939164629,2.0384720359179496,15.059006171750472,1.0212112192910874,2737,0,15.37842605396531,11.285478422539963,73.38513306197558,0.1806278794389969,0.1325540096733327,0.125,,
3.988950000000186,1500,,,,-0.0625,0.18359375,-0.9921875,0.03937986939164629,2.0384720359179496,15.059054368341855,1.0220048408994635,2738,0,15.390426463813588,11.290911544134863,73.36321427273232,0.18054096234389924,0.13245065305440776,0.125,,
3.9959000000003724,1500,,,,-0.0625,-0.013671875,-0.943359375,0.03937986939164629,2.0384720359179496,15.058924369620243,1.0219293056963477,2738,0,15.389156125579825,11.292923267903607,73.38234257778782,0.18050880073821374,0.1324615865407724,0.125,,
4.004090000000782,1500,,,,-0.0625,0.11328125,-1.0546875,0.03937986939164629,2.0384720359179496,15.059043031429225,1.0216321122082077,2737,0,15.38480194003333,11.288631562182887,73.37521539883035,0.1805774264745132,0.13249907563733856,0.125,,
4.012180000000633,1500,,,,-0.15625,0.009765625,-1.00390625,0.03937986939164629,2.0384720359179496,15.058893645566782,1.0228428047978873,2737,0,15.402881013584608,11.286946554619913,73.27815195524371,0.1806043845475261,0.1323435553465689,0.125,,
4.020045000000857,1500,,,,0,-0.08984375,-0.96484375,0.03937986939164629,2.0384720359179496,15.058817852103527,1.0225052136950008,2737,0,15.39771976585921,11.288893808729503,73.31536084816888,0.18057323157222321,0.13238791632237507,0.125,,
4.027395000000484,1500,,,,0,0.14453125,-1.017578125,0.03937986939164629,2.0384720359179496,15.05869428283581,1.0224054932061668,2738,0,15.396091755283631,11.292089378358632,73.3438690665338,0.18052213081351404,0.1324019152599806,0.126953125,,
4.036710000000894,1500,,,,-0.03125,0.017578125,-0.888671875,0.03937986939164629,2.0384720359179496,15.058546869172552,1.0226428361824094,2738,0,15.39951507907636,11.289943082634316,73.31362724514744,0.18055644931048728,0.13237248221456424,0.126953125,,
4.045900000000373,1500,,,,-0.0625,0.083984375,-0.962890625,0.03937986939164629,2.0384720359179496,15.058628315395575,1.0220213493043164,2737,0,15.390239629572772,11.287293636677976,73.34059708199169,0.180598830998243,0.1324522609772085,0.125,,
4.054250000000931,1500,,,,-0.125,0.03125,-1.0078125,0.03937986939164629,2.0384720359179496,15.058916881100968,1.021691880299989,2739,0,15.385573103533295,11.293702046239144,73.40449374385376,0.18049635341643974,0.1324924344514547,0.125,,
4.062875000000932,1500,,,,-0.09375,-0.08984375,-0.974609375,0.03937986939164629,2.0384720359179496,15.059196132452227,1.02113510300739,2739,0,15.377473793920094,11.296070608346087,73.45855866658864,0.18045850690874995,0.13256221816641398,0.126953125,,
4.07131500000041,1500,,,,-0.03125,0.103515625,-1.01953125,0.03937986939164629,2.0384720359179496,15.05923586510564,1.0220558985111303,2738,0,15.391380843001583,11.289858936491711,73.35182626986439,0.18055779504286687,0.13244244013654152,0.126953125,,
4.0809900000011545,1500,,,,0.03125,0.02734375,-0.9375,0.03937986939164629,2.0384720359179496,15.059336707751676,1.0207175846177936,2738,0,15.371329790282367,11.289186942062496,73.44313794633065,0.18056854283480644,0.13261520400184604,0.125,,
4.089850000000559,1500,,,,-0.1875,0.17578125,-1.04296875,0.03937986939164629,2.0384720359179496,15.059510422868932,1.022382374531928,2738,0,15.396578025421059,11.292870040535654,73.34662300863324,0.18050965154127097,0.13239773361017354,0.126953125,,
4.097700000001118,1500,,,,-0.0625,0.111328125,-0.984375,0.03937986939164629,2.0384720359179496,15.059604297258327,1.0209308172380807,2737,0,15.374814122482055,11.287916910670491,73.41823335714065,0.18058885904723285,0.1325851499522952,0.126953125,,
4.114395000000484,1500,,,,-0.0625,0.10546875,-1.046875,0.039377026771938425,2.0384720359179496,15.059644416585241,1.0204827055136958,2737,0,15.36810667831113,11.28654060020918,73.44132127959375,0.18061088052792448,0.13264301703441625,0.126953125,,
4.1213400000007825,1500,,,,0,0.06640625,-0.9140625,0.039377026771938425,2.0464211569554513,15.05965983804289,1.0182201579299008,2738,0,15.334049218662617,11.292207976710518,73.64139644841565,0.18122418230128853,0.13345601854889136,0.126953125,,
4.128940000001341,1500,,,,0,0.048828125,-0.947265625,0.039377026771938425,2.0464211569554513,15.059675781326,1.0192251605970077,2737,0,15.34920046676086,11.2862814756965,73.53009363671593,0.18131934431744823,0.13332428365809906,0.126953125,,
4.136575000001118,1500,,,,0,0.171875,-1,0.039377026771938425,2.0464211569554513,15.05987803549123,1.018866247033536,2736,0,15.34400141480373,11.283846500241033,73.53913881521477,0.18135847176862413,0.13336945830708058,0.126953125,,
4.143895000000485,1500,,,,-0.09375,-0.00390625,-0.92578125,0.039377026771938425,2.0464211569554513,15.059883510172657,1.0195102340422653,2738,0,15.353705362105377,11.288409138957045,73.52237699453367,0.18128516886344215,0.13328516528695689,0.126953125,,
4.151670000000856,1500,,,,-0.125,0.03125,-0.9921875,0.039377026771938425,2.0464211569554513,15.060016651451033,1.019959830163335,2739,0,15.360612026070992,11.293289654704537,73.52109170869532,0.18120682454141757,0.13322523565351024,0.126953125,,
4.158500000000931,1500,,,,-0.03125,0.068359375,-1.02734375,0.039377026771938425,2.0464211569554513,15.060015970689522,1.0186060078220318,2738,0,15.340222745640094,11.289784520019463,73.59596211357608,0.1812630837485571,0.13340231044148776,0.126953125,,
4.166735000000335,1500,,,,-0.125,-0.0078125,-0.94140625,0.039377026771938425,2.0464211569554513,15.060015188996598,1.0186877290473195,2737,0,15.341452672297082,11.285102118311839,73.55954067302882,0.18133829322065362,0.13339161555742296,0.126953125,,
4.174100000000559,1500,,,,0.03125,0.04296875,-0.978515625,0.039377026771938425,2.0464211569554513,15.059893559054517,1.018757772139845,2737,0,15.342383610885582,11.286739100381396,73.56574693109184,0.18131199266281436,0.1333835216780458,0.12890625,,
