Time (s),ESC signal (µs),Servo 1 (µs),Servo 2 (µs),Servo 3 (µs),AccX (g),AccY (g),AccZ (g),Torque (N·m),Thrust (N),Voltage (V),Current (A),Motor Electrical Speed (RPM),Motor Optical Speed (RPM),Electrical Power (W),Mechanical Power (W),Motor Efficiency (%),Propeller Mech. Efficiency (N/W),Overall Efficiency (N/W),Vibration (g),App message,90% settling time (s),Max acceleration (RPM/s),
0,1000,,,,-0.0625,0.048828125,-0.955078125,-0.0005336178376780659,0.014552088353712175,15.098934528652464,0.05219423581853044,0,0,0.7880773493970386,0,0,0,0,0.060546875,,
0,1200,,,,-0.0625,0.048828125,-0.95703125,-0.0005336178376780659,0.014552088353712175,15.098563071822857,0.05218105715210922,0,0,0.7878589825655142,0,0,0,0,0.060546875,,
0.007839999998919666,1200,,,,-0.0625,0.048828125,-0.95703125,-0.0005336178376780659,0.014552088353712175,15.098568275239666,0.0514304286486201,0,0,0.7765258383760327,0,0,0,0,0.060546875,,
0.015424999999813735,1200,,,,-0.0625,0.048828125,-0.955078125,-0.0005336178376780659,0.014552088353712175,15.098737967393605,0.052655867432948145,0,0,0.7950371448158986,0,0,0,0,0.060546875,,
0.023814999999478458,1200,,,,-0.0625,0.05078125,-0.95703125,-0.0005336178376780659,0.014552088353712175,15.098800341417576,0.05274795637464011,0,0,0.7964308617184954,0,0,0,0,0.060546875,,
0.03162999999988824,1200,,,,-0.0625,0.048828125,-0.95703125,-0.0005336178376780659,0.014552088353712175,15.09898712524275,0.05115658788235217,0,0,0.7724126618069846,0,0,0,0,0.060546875,,
0.03874500000011176,1200,,,,-0.0625,0.046875,-0.95703125,-0.0005336178376780659,0.014552088353712175,15.098651181732441,0.051735744544011544,0,0,0.7811399604972475,0,0,0,0,0.060546875,,
0.045744999999180434,1200,,,,-0.125,0.091796875,-0.990234375,-0.0005336178376780659,0.014552088353712175,15.097769591076126,0.08057516326320366,0,0,1.2165052497111903,0,0,0,0,0.060546875,,
0.05334499999973923,1200,,,,0.125,-0.03125,-1.09765625,-0.0005336178376780659,0.014552088353712175,15.096937451694249,0.1057216558700588,0,0,1.5960732259598218,0,0,0,0,0.0625,,
0.06167999999970198,1200,,,,-0.125,0.0859375,-0.91796875,-0.0005336178376780659,0.015193492598094717,15.096097734138155,0.12345419339076633,0,0,1.8636765691162012,0,0,0,0,0.064453125,,
0.0706699999999255,1200,,,,0.125,-0.109375,-1.08203125,-0.0005336178376780659,0.015193492598094717,15.095436400409346,0.1418810337603278,0,0,2.1417561215533594,0,0,0,0,0.06640625,,
0.07863499999977648,1200,,,,-0.09375,0.068359375,-0.96484375,-0.0005336178376780659,0.015193492598094717,15.094804452371287,0.1520566835518262,0,0,2.295265903890918,0,0,0,0,0.06640625,,
0.08728999999910593,1200,,,,-0.15625,0.1328125,-0.984375,-0.0005112274478327873,0.015193492598094717,15.094571131321999,0.1613313567084888,0,0,2.435227639548967,0,0,0,0,0.068359375,,
0.09516000000014901,1200,,,,0.03125,0.013671875,-1.013671875,-0.0005112274478327873,0.015193492598094717,15.094139730773747,0.167346159487625,0,0,2.5259463147145604,0,0,0,0,0.0703125,,
0.10175,1200,,,,-0.0625,0.12890625,-0.91796875,-0.0005112274478327873,0.015193492598094717,15.093963253977176,0.16956901849292344,0,0,2.5594685341451626,0,0,0,0,0.0703125,,
0.10888999999966473,1200,,,,0,0.04296875,-0.9921875,-0.0005112274478327873,0.015193492598094717,15.093614934837023,0.17402929107711174,0,0,2.626731106900593,0,0,0,0,0.072265625,,
0.11679000000003725,1200,,,,-0.0625,0.09765625,-0.82421875,-0.0005112274478327873,0.015193492598094717,15.093148013595982,0.18550975153577764,0,0,2.7999261378949067,0,0,0,0,0.072265625,,
0.12388999999966473,1200,,,,-0.09375,0.234375,-1.10546875,-0.0005112274478327873,0.015193492598094717,15.092753920379439,0.19777065542867164,1,0,2.984903835057095,0.00006805789769106049,0.002280070027440555,0,0.005090111252379458,0.07421875,,
0.1312849999992177,1200,,,,-0.0625,0.109375,-0.7890625,-0.0005112274478327873,0.015193492598094717,15.092546879574927,0.19701341564486752,2,0,2.9734342115253436,0.00008735382471362948,0.002937809229981846,0,0.005109745673606345,0.076171875,,
0.14280499999970198,1200,,,,-0.03125,0.0390625,-1.0546875,-0.0005112274478327873,0.015193492598094717,15.092718119021919,0.1945766578982729,2,0,2.9366906501999925,0.00009632348748105047,0.003280001163026508,0,0.005173678268448201,0.078125,,
0.1499550000000745,1200,,,,-0.03125,-0.001953125,-0.984375,-0.0005112274478327873,0.015193492598094717,15.09280448559693,0.19056627877467178,2,0,2.8761795870938816,0.0001003616615641783,0.0034894087286665106,0,0.005282525703983027,0.078125,,
0.15837000000011175,1200,,,,-0.0625,0.01171875,-0.98828125,-0.0005112274478327873,0.015193492598094717,15.092940936239971,0.1881744363972652,2,0,2.8401056542541685,0.00010133128648776939,0.0035678703127112956,0,0.005349622319626216,0.078125,,
0.16646499999985098,1200,,,,-0.03125,0.095703125,-0.994140625,-0.0005112274478327873,0.015193492598094717,15.093108207589816,0.1837150599071438,2,0,2.7728312785423666,0.00010181476509506148,0.003671870188531049,0,0.005479414746822135,0.078125,,
0.17373999999929218,1200,,,,-0.03125,0.06640625,-0.970703125,-0.0005112274478327873,0.015193492598094717,15.093232908828945,0.1802034624790558,2,0,2.719852830173807,0.00010196812000192239,0.003749030788382999,0,0.00558614511400744,0.078125,,
0.18143499999959023,1200,,,,-0.125,0.11328125,-0.9140625,-0.0005112274478327873,0.015193492598094717,15.093631641883661,0.1761534422998275,2,0,2.658795170523404,0.00010204012391915198,0.003837833205446383,0,0.00571442763494405,0.078125,,
0.18866999999992548,1200,,,,-0.0625,0.048828125,-0.98046875,-0.0005112274478327873,0.015193492598094717,15.09390678799028,0.17268233340275368,2,0,2.6064510443138245,0.00010206648880397861,0.003915918122714969,0,0.00582918778821513,0.078125,,
0.19656499999947846,1200,,,,-0.0625,0.02734375,-0.96875,-0.0005112274478327873,0.015193492598094717,15.093879236755264,0.16845861530335898,2,0,2.5426939957799126,0.00010207868860621951,0.004014588022610611,0,0.005975352371662193,0.078125,,
0.20383499999903143,1200,,,,-0.0625,0.078125,-0.99609375,-0.0005112274478327873,0.015193492598094717,15.0940792642739,0.16461146625917925,2,0,2.4846585195244,0.00010208360056003713,0.004108556558491483,0,0.006114921820726888,0.078125,,
0.21090000000037254,1200,,,,0,-0.01953125,-0.96875,-0.0005112274478327873,0.01816824250673356,15.094248790801448,0.16191597877940345,287,0,2.4440000669024435,0.015361884969786741,0.6285550142908378,0,0.007433814242795917,0.078125,,
0.218625,1200,,,,-0.0625,0.060546875,-0.9765625,-0.0005112274478327873,0.01816824250673356,15.094325476329336,0.15873699250135817,412,0,2.3960278299491495,0.022051901403046508,0.9203524736820153,0.8238855314410024,0.007582650868925483,0.078125,,
0.22682000000029803,1200,,,,0,0.05859375,-0.95703125,-0.0005112274478327873,0.01816824250673356,15.0943424677204,0.15615375344713425,470,0,2.3570382321510195,0.025140755234087396,1.0666248383737114,0.7226609677222395,0.0077080813789572366,0.078125,,
0.23418499999959022,1200,,,,-0.0625,0.060546875,-0.978515625,-0.0005112274478327873,0.01816824250673356,15.094421561323458,0.15327091226339484,492,0,2.313535762792303,0.026330597920753,1.138110693779529,0.6900049349967053,0.007853019952803991,0.078125,,
0.2424199999999255,1200,,,,-0.03125,0.02734375,-0.958984375,0.0007579276335844613,0.01816824250673356,15.094696828047745,0.15139657894956862,501,0,2.2852854600473336,0.039758242652306715,1.7397495125831337,0.45696794663733614,0.007950097624284213,0.078125,,
0.24912499999906867,1200,,,,-0.0625,0.015625,-1.02734375,0.0007579276335844613,0.01816824250673356,15.094810319528502,0.1485338265901008,504,0,2.242089938411311,0.040021116786816927,1.7849915875888054,0.45396640487349493,0.008103262137471222,0.078125,,
0.25673000000044705,1200,,,,-0.0625,0.109375,-0.9921875,0.0007579276335844613,0.01816824250673356,15.094687007364655,0.14536196113477837,506,0,2.194193306106185,0.040137080498063665,1.8292408597896472,0.4526548090016176,0.008280146720060375,0.078125,,
0.26476499999966474,1200,,,,-0.03125,0.03515625,-0.984375,0.0007579276335844613,0.01816824250673356,15.09484931399062,0.1413349815442942,506,0,2.133430249206766,0.040190170565354365,1.8838286642039286,0.4520568649289425,0.008515976800033053,0.078125,,
0.27300499999988825,1200,,,,-0.0625,0.05859375,-0.96484375,0.0007579276335844613,0.01816824250673356,15.09497245320529,0.1389674064494225,507,0,2.0977091722474155,0.0402112695744217,1.9169134647650268,0.45181966893903636,0.008660992070349156,0.078125,,
0.2816749999988824,1200,,,,0,0.0234375,-0.97265625,0.0007579276335844613,0.01816824250673356,15.094880463332817,0.13617527971844193,507,0,2.0555495694107906,0.04022005199579756,1.9566568763080896,0.45172100992390285,0.008838630202404392,0.076171875,,
0.29217999999970196,1200,,,,-0.0625,0.04296875,-0.955078125,0.0007579276335844613,0.01816824250673356,15.09531195431236,0.1336468896059347,520,0,2.0174414903251305,0.04126688987307606,2.045506155741126,0.4402619766746015,0.009005585834266533,0.076171875,,
0.30034999999962747,1200,,,,-0.03125,0.046875,-0.947265625,0.0007579276335844613,0.01816824250673356,15.095489555480142,0.1287765985421797,534,0,1.9439457982837332,0.042378216367093755,2.18001018364342,0.4287165450606602,0.009346064341286623,0.076171875,,
0.307785000000149,1200,,,,-0.03125,0.021484375,-1.02734375,0.0007579276335844613,0.01816824250673356,15.095599695039493,0.1259002133877779,537,0,1.900539222821947,0.042653829319884394,2.2443014491724824,0.42594634049102537,0.009559519892337238,0.076171875,,
0.31525499999988826,1200,,,,-0.03125,0.048828125,-0.98828125,0.0007579276335844613,0.01816824250673356,15.095717080277224,0.12283647369803155,539,0,1.8543046540843988,0.04278000178696208,2.3070643592859654,0.42469008293194216,0.009797873540744849,0.076171875,,
0.32307499999925493,1200,,,,-0.0625,0.0546875,-0.96484375,0.0007579276335844613,0.01816824250673356,15.095902001334151,0.12166719456796965,540,0,1.8366760459753246,0.04282656210251463,2.3317428349087312,0.4242283670410888,0.0098919145521309,0.076171875,,
0.33200499999895694,1200,,,,-0.0625,0.068359375,-0.970703125,0.0007579276335844613,0.01816824250673356,15.09605595613727,0.12010269006601387,540,0,1.8130769297191573,0.042849794771328366,2.363374331720482,0.4239983552707768,0.010020668295386555,0.076171875,,
0.3409699999997392,1200,,,,-0.03125,0.041015625,-0.958984375,0.0007579276335844613,0.01816824250673356,15.096125426704724,0.11795159927447138,540,0,1.7806121369278338,0.042857931641949495,2.4069212352946283,0.4239178562912826,0.010203368903280646,0.076171875,,
0.34894999999925497,1200,,,,-0.0625,0.03515625,-0.96875,0.0007579276335844613,0.01816824250673356,15.096184899669092,0.11632482835960739,540,0,1.756061117338904,0.04286072808787492,2.4407310010271805,0.42389019779328624,0.01034601946785617,0.076171875,,
0.356339999999851,1200,,,,-0.0625,0.0703125,-0.97265625,0.0007579276335844613,0.04956860127634842,15.096271882058725,0.11471546464192867,540,0,1.7317758433112496,0.04286181218238383,2.4750207913992908,0,0.028622989209487155,0.076171875,,
0.3644449999993667,1200,,,,0,0.07421875,-0.9765625,0.0007579276335844613,0.04956860127634842,15.095403789807973,0.1338033354123944,546,0,2.019815376473206,0.04335320146381097,2.1463942679508596,0,0.02454115453012345,0.07421875,,
0.372109999999404,1200,,,,-0.0625,0.03515625,-0.935546875,0.0007579276335844613,0.04956860127634842,15.094750867984562,0.15462601427674327,555,0,2.3340411632168636,0.04403241365142963,1.8865311522930683,0,0.021237243823082837,0.07421875,,
0.37977999999932943,1200,,,,-0.0625,0.072265625,-0.974609375,0.0007579276335844613,0.04956860127634842,15.094271259227213,0.1868538394236073,558,0,2.8204225380880126,0.04428899134638037,1.5702963207918568,0,0.017574884829119036,0.076171875,,
0.38800499999988824,1200,,,,-0.0625,-0.046875,-0.9921875,0.012768739010151627,0.04956860127634842,15.093056410757587,0.22404558152584422,559,0,3.3815326005505546,0.7480634061517191,22.122022600933235,0.06626256660694765,0.014658619960747398,0.076171875,,
0.3958449999997392,1200,,,,0.03125,0.044921875,-1.015625,0.012768739010151627,0.04956860127634842,15.092224000271045,0.24606272754347733,560,0,3.7136338022038236,0.7488299841856553,20.164346407587864,0.06619473354856878,0.013347735376313187,0.076171875,,
0.4038799999998882,1200,,,,-0.125,0.0859375,-0.921875,0.012768739010151627,0.04956860127634842,15.091290237284015,0.26791800703947916,560,0,4.043228404027482,0.7491356563877047,18.528155758934783,0.0661677239011233,0.012259658946542042,0.078125,,
0.41173499999940394,1200,,,,0,0.09375,-0.986328125,0.012768739010151627,0.04956860127634842,15.090933820219002,0.2822599308380757,560,0,4.259565936376993,0.7492547758944391,17.58993256791145,0.0661572042929921,0.01163700762395273,0.078125,,
0.4198950000004843,1200,,,,-0.0625,-0.00390625,-0.96484375,0.012768739010151627,0.04956860127634842,15.0903995959964,0.2917566965581364,625,0,4.402725135870146,0.8360966566626681,18.990435034219406,0.05928573076013075,0.01125861818456486,0.078125,,
0.4282399999992922,1200,,,,0,0.01171875,-1.00390625,0.012768739010151627,0.04956860127634842,15.090084815062879,0.2979143969769694,716,0,4.49555351801078,0.957683458297258,21.302904179884386,0.051758857111806444,0.011026139735131401,0.078125,,
0.43680499999970196,1200,,,,-0.03125,0.005859375,-0.91796875,0.012768739010151627,0.04956860127634842,15.089896653114659,0.30160146516373304,754,0,4.551134939748692,1.0083377433309357,22.155742615414844,0.04915872841633782,0.010891481340934605,0.078125,,
0.44935999999940396,1200,,,,-0.0625,0.03125,-0.978515625,0.012768739010151627,0.04956860127634842,15.09001206727328,0.30173765778101214,768,0,4.553224897066248,1.0264346837123097,22.543026248794916,0.048292017079034674,0.010886482086199313,0.078125,,
0.4582000000001863,1200,,,,-0.0625,0.09765625,-0.9765625,0.012768739010151627,0.04956860127634842,15.090286087826803,0.30211600605527694,773,0,4.559016963085743,1.0338874642177136,22.677859560275316,0.047943903946890666,0.01087265120478916,0.078125,,
0.46642999999970197,1200,,,,-0.03125,0.0703125,-0.966796875,0.012768739010151627,0.04956860127634842,15.090363211722057,0.29957113287536735,908,0,4.520637202836343,1.213885075969741,26.852079065493772,0.040834673938757636,0.010964958932171783,0.078125,,
0.4754500000001863,1200,,,,-0.03125,0.01171875,-0.962890625,0.012768739010151627,0.04956860127634842,15.090597802968704,0.297570360658134,971,0,4.490514630776242,1.2981094214635145,28.907809643170452,0.038185225726552224,0.011038512364846667,0.078125,,
0.4844349999995902,1200,,,,0,0.0390625,-0.96875,0.012768739010151627,0.04956860127634842,15.090601662822717,0.292778757445423,994,0,4.418207603945069,1.328716489536587,30.07365449170294,0.037305626645482766,0.011219165263327155,0.078125,,
0.4921150000002235,1200,,,,-0.0625,0.03125,-0.96484375,0.012768739010151627,0.04956860127634842,15.090800985303547,0.28854652974398265,1001,0,4.354398255366412,1.339006496248976,30.750666744796906,0.03701894009865325,0.011383570902192853,0.076171875,,
0.5008899999996648,1200,,,,-0.0625,0.064453125,-0.95703125,0.012768739010151627,0.04956860127634842,15.090718977620089,0.28249894775652484,1005,0,4.263112232067096,1.343345638246661,31.510914212908258,0.03689936518575034,0.011627327308789527,0.076171875,,
0.5096399999996647,1200,,,,-0.03125,0.009765625,-0.943359375,0.012768739010151627,0.07043449313365484,15.090781313806717,0.2781669615300065,1041,0,4.197756785175414,1.391682376856982,33.15300166440746,0.05061104049670174,0.01677907909824546,0.078125,,
0.517929999999702,1200,,,,-0.0625,0.046875,-0.984375,0.012768739010151627,0.07043449313365484,15.090848552689096,0.2734931242113981,1056,0,4.127243317675996,1.4121578943165563,34.215523186351085,0.04987720807788502,0.017065747694593326,0.076171875,,
0.5259699999997393,1200,,,,-0.03125,0.021484375,-0.955078125,0.012768739010151627,0.07043449313365484,15.090904932481694,0.2689353233346699,1061,0,4.058477397429729,1.4190400443326872,34.96483792743008,0.04963531044451753,0.01735490585170233,0.076171875,,
0.5343999999994412,1200,,,,-0.0625,0.1171875,-0.9921875,0.012768739010151627,0.07043449313365484,15.090958736191963,0.2643743036564631,1063,0,3.9896617073891685,1.4217665410624498,35.63626806827321,0.04954012568126758,0.01765425198913597,0.076171875,,
0.54275,1200,,,,-0.0625,0.048828125,-0.9609375,0.015111505236840673,0.07043449313365484,15.091345581218437,0.2611893626158262,1071,0,3.9416989333736088,1.6948718257746322,42.99851039927168,0.04155741576591677,0.017869069739776294,0.078125,,
0.549839999999851,1200,,,,-0.0625,0.03125,-0.9453125,0.015111505236840673,0.07043449313365484,15.091373775489217,0.25883018402598396,1080,0,3.906103051514782,1.7083077764895909,43.734324311467184,0.04123056401369956,0.01803190858119845,0.076171875,,
0.5582199999997393,1200,,,,-0.0625,0.03125,-0.99609375,0.015111505236840673,0.07043449313365484,15.091502456245047,0.2549878402580206,1083,0,3.848149617566538,1.7146000209525887,44.556480161934395,0.04107925596228747,0.018303470533506866,0.078125,,
0.566,1200,,,,0,0.08203125,-1,0.015111505236840673,0.07043449313365484,15.091788400619956,0.2500550976601197,1085,0,3.7737786223828844,1.717088361188343,45.500505806143934,0.04101972544086743,0.01866418255588619,0.076171875,,
0.5742050000000745,1200,,,,-0.03125,0.0234375,-0.970703125,0.015111505236840673,0.07043449313365484,15.091996114177963,0.24726178498686988,1086,0,3.731673898206547,1.7180728312591376,46.04027249232169,0.040996220795852384,0.01887477176596429,0.078125,,
0.582644999999553,1200,,,,-0.03125,0.0078125,-0.955078125,0.015111505236840673,0.07043449313365484,15.091851582108344,0.2424536859577989,1091,0,3.6590750440102067,1.726945379071072,47.19622741539637,0.04078559402471763,0.01924926170862605,0.076171875,,
0.5907549999989569,1200,,,,0,0.04296875,-0.94140625,0.015111505236840673,0.07043449313365484,15.091925046156366,0.2387308881847017,1096,0,3.602908670685854,1.7340559637409156,48.12933444163098,0.04061835062214775,0.019549341815607787,0.076171875,,
0.6009950000001117,1200,,,,-0.0625,0.076171875,-0.984375,0.015111505236840673,0.07043449313365484,15.091928330449528,0.234519796986082,1097,0,3.539355968185523,1.7366363512654883,49.06645070108017,0.040557997696137806,0.019900369944920688,0.076171875,,
0.6215249999994412,1200,,,,0,0.001953125,-0.927734375,0.015111505236840673,0.07043449313365484,15.092427505850766,0.2240246894701809,1099,0,3.3810763853494348,1.739631422552998,51.45200002256698,0.04048817020693304,0.020831973344008145,0.076171875,,
0.6302249999996274,1200,,,,-0.03125,0.060546875,-1.041015625,0.015111505236840673,0.07043449313365484,15.092604983706366,0.219270311752368,1100,0,3.309360199932638,1.7411962987310703,52.61428776373489,0.04045178202192671,0.0212834169985753,0.078125,,
0.6379799999995157,1200,,,,-0.0625,0.107421875,-0.955078125,0.015111505236840673,0.07043449313365484,15.092705408299423,0.21716604184876925,1101,0,3.2776230943098987,1.7418003140209721,53.142178459897224,0.04043775429748073,0.02148950355394197,0.078125,,
0.6456599999992176,1200,,,,0,-0.05859375,-0.94921875,0.015111505236840673,0.07043449313365484,15.092997076950436,0.21430328256352035,1101,0,3.234478817312096,1.7420406425198443,53.858465023663626,0.04043217558447549,0.021776149145470998,0.078125,,
0.6529000000003725,1200,,,,-0.03125,0.037109375,-0.966796875,0.015111505236840673,0.07043449313365484,15.093301531305206,0.21226424200493163,1101,0,3.2037682088943735,1.7421296123819001,54.37751731056449,0.04043011072945047,0.021984890460587322,0.078125,,
0.6607649999996648,1200,,,,-0.0625,0.078125,-0.99609375,0.015111505236840673,0.1990276318756096,15.093433098893236,0.20975688784633106,1101,0,3.1659515537406495,1.742819416791823,55.04883404588548,0.11419865417954722,0.06286502762193362,0.078125,,
0.6688250000001863,1200,,,,-0.03125,0.03125,-0.9453125,0.015111505236840673,0.1990276318756096,15.093559249985978,0.20724768247521913,1101,0,3.1281051748620006,1.7430940480252697,55.72363941062717,0.11418066173829552,0.06362562022371575,0.078125,,
0.6770849999990314,1200,,,,-0.03125,0.03125,-0.974609375,0.015111505236840673,0.1990276318756096,15.093580892484649,0.2046564092000472,1102,0,3.088998067426352,1.7432020867988212,56.43260528975331,0.11417358514129572,0.06443112864794784,0.078125,,
0.6852899999991059,1200,,,,-0.125,0.109375,-1,0.011887188264570218,0.1990276318756096,15.093502653531013,0.2028109435037626,1102,0,3.0611275139391694,1.371291645481154,44.79694619831522,0.14513880583424357,0.06501775276244329,0.078125,,
0.6932749999994412,1200,,,,0,0.005859375,-0.921875,0.011887188264570218,0.1990276318756096,15.09362516350091,0.2023498388587983,1102,0,3.054192619629512,1.37130478427516,44.89909298652898,0.14513741522517254,0.0651653830201949,0.078125,,
0.701089999999851,1200,,,,-0.0625,0.046875,-0.986328125,0.011887188264570218,0.1990276318756096,15.093741948907438,0.1996698112321452,1102,0,3.0137646057250596,1.3719088491826357,45.52143344495143,0.14507350979927527,0.06603954120953218,0.078125,,
0.7089900000002235,1200,,,,-0.0625,0.08984375,-0.97265625,0.011887188264570218,0.1990276318756096,15.093721963805923,0.19659558039251906,1102,0,2.967359029757738,1.372146368417476,46.241332938046966,0.1450483975008819,0.0670723124096846,0.078125,,
0.7170250000003725,1200,,,,0,-0.04296875,-0.890625,0.011887188264570218,0.1990276318756096,15.093833514058813,0.19452860376560205,1102,0,2.9361823589603118,1.3722399461415018,46.73551497759851,0.1450385061557495,0.06778449276770546,0.078125,,
0.7259449999993667,1200,,,,-0.03125,0.005859375,-0.9609375,0.011887188264570218,0.1990276318756096,15.093873984948658,0.19215849886200967,1102,0,2.900416166960074,1.3722767538745073,47.313098358322506,0.14503461587735267,0.06862037046366709,0.078125,,
0.7333349999999628,1200,,,,-0.0625,0.078125,-0.99609375,0.011887188264570218,0.1990276318756096,15.094134455264786,0.1893961298417404,1102,0,2.858770649138017,1.3719922201767552,47.992385139061135,0.14506469420793702,0.06962000674507444,0.078125,,
0.7465249999994412,1200,,,,-0.03125,0.078125,-0.984375,0.011887188264570218,0.1990276318756096,15.094446455107676,0.1865685531539083,1101,0,2.816149035788579,1.3711678392952023,48.68946287536403,0.14515191078133244,0.07067368571275838,0.078125,,
0.7550499999998137,1200,,,,-0.03125,0.015625,-0.994140625,0.011887188264570218,0.1990276318756096,15.094575430354665,0.18642222199234673,1101,0,2.8139642917578,1.3710162838438518,48.721879231360774,0.14516795622412704,0.07072855631415384,0.078125,,
0.763070000000298,1200,,,,-0.0625,0.078125,-0.970703125,0.011887188264570218,0.1990276318756096,15.094540499107694,0.18447230524960428,1101,0,2.7845246825539087,1.3709317507683272,49.233959366843784,0.14517690743107103,0.07147633961465392,0.078125,,
0.7708199999993667,1200,,,,-0.03125,0.01171875,-0.953125,0.011887188264570218,0.1990276318756096,15.09448711600133,0.1831391250491193,1101,0,2.764391163489688,1.3709081630063913,49.59168518234577,0.14517940533605364,0.07199691364385741,0.078125,,
0.7788849999997765,1200,,,,-0.0625,0.025390625,-0.96484375,0.011887188264570218,0.1990276318756096,15.094463048735383,0.18107099248029004,1101,0,2.7331694051915805,1.3710688509272058,50.16406404677654,0.1451623904525394,0.0728193545184437,0.078125,,
0.7871500000003725,1200,,,,0,0.0625,-0.95703125,0.011887188264570218,0.1990276318756096,15.094537080268832,0.17999259004412554,1101,0,2.7169048245946796,1.3711309065453037,50.466652130512344,0.14515582058979246,0.07325528302424117,0.078125,,
0.7963299999991432,1200,,,,-0.03125,0.017578125,-0.966796875,0.011887188264570218,0.1990276318756096,15.094765437876672,0.1800144552173276,1101,0,2.7172759769327146,1.3711575723983165,50.46074024273719,0.14515299764379871,0.0732452770955837,0.076171875,,
0.8038899999996647,1200,,,,-0.03125,0.029296875,-1.015625,0.011887188264570218,0.25377352526883046,15.094728189801838,0.17812974753892982,1101,0,2.6888201216181686,1.3711664918201987,50.995099329850746,0.18507856396924544,0.09438099753437805,0.076171875,,
0.81125,1200,,,,-0.0625,0.078125,-1.01171875,0.011887188264570218,0.25377352526883046,15.094609055786872,0.1782283970453135,1101,0,2.6902879760385674,1.3711698180593606,50.96739941121098,0.1850781149981848,0.09432950209386522,0.078125,,
0.8199599999999627,1200,,,,-0.03125,0.03515625,-0.970703125,0.011887188264570218,0.25377352526883046,15.094685463750771,0.17715601863211528,1102,0,2.6741143792621513,1.371623707182428,51.29263422011478,0.18501687010800422,0.09490002643000346,0.076171875,,
0.828125,1200,,,,0,0.03125,-1.03515625,0.011887188264570218,0.25377352526883046,15.094750004577111,0.17560976775030052,1102,0,2.6507855425526343,1.3717775674717634,51.749850957417664,0.18499611838422494,0.09573521554084435,0.076171875,,
0.8362949999999255,1200,,,,-0.0625,0.046875,-0.96875,0.011887188264570218,0.25377352526883046,15.094713306972,0.17265481484572592,1102,0,2.606174931164566,1.3718381057637532,52.637990234628994,0.184987954630073,0.09737394149341774,0.076171875,,
0.8455099999997765,1200,,,,-0.03125,0.052734375,-0.9765625,0.009452913844020718,0.25377352526883046,15.094783876342918,0.17117535998790193,1102,0,2.583855063972577,1.0909313967631973,42.22107547649877,0.23262097508768992,0.09821507746594096,0.076171875,,
0.854160000000149,1200,,,,-0.03125,0.0078125,-1,0.009452913844020718,0.25377352526883046,15.094704323398153,0.17072820414019077,1102,0,2.57709176116094,1.0912745385424325,42.34519526967989,0.23254782944701033,0.09847283247473866,0.076171875,,
0.8614299999997019,1200,,,,-0.0625,0.11328125,-0.96875,0.009452913844020718,0.25377352526883046,15.094702595391094,0.17056668402375272,1103,0,2.5746533680205927,1.0915467512663473,42.39587219096349,0.23248983607382606,0.09856609375883982,0.076171875,,
0.8693549999995157,1200,,,,-0.03125,0.021484375,-0.939453125,0.009452913844020718,0.25377352526883046,15.094668026463657,0.1704091990068982,1103,0,2.5722702876647086,1.091657101794705,42.43943986095604,0.23246633475990033,0.09865741033739665,0.076171875,,
0.8774599999999627,1200,,,,-0.03125,0.064453125,-1.015625,0.009452913844020718,0.25377352526883046,15.094726520723182,0.16998991116244536,1103,0,2.5659512202791417,1.0916978790518606,42.54554297151051,0.23245765164372467,0.09890037007064509,0.076171875,,
0.8858299999991431,1200,,,,-0.0625,0.0625,-0.96875,0.009452913844020718,0.25377352526883046,15.094796176719932,0.16913470034515474,1103,0,2.553053828120713,1.0917175973009283,42.761244799312934,0.23245345306903453,0.09939999011130587,0.076171875,,
0.8930449999999255,1200,,,,-0.03125,0.052734375,-0.958984375,0.009452913844020718,0.25377352526883046,15.094673569250311,0.1693425982575708,1102,0,2.556171242066728,1.0913405017315045,42.6943423731318,0.23253377370875283,0.09927876548037848,0.076171875,,
0.9012049999991432,1200,,,,0,0.078125,-1.05078125,0.009452913844020718,0.25377352526883046,15.094803040158801,0.169246426890146,1102,0,2.55474147915739,1.0909652329685713,42.70354718350585,0.23261376036548842,0.09933432691300358,0.076171875,,
0.913179999999702,1200,,,,-0.09375,0.083984375,-0.982421875,0.009452913844020718,0.25377352526883046,15.094666120171189,0.1678812742115732,1102,0,2.534111782052603,1.0908159677060296,43.0452979790213,0.23264559080713915,0.10014298779798762,0.076171875,,
0.9313349999990315,1200,,,,-0.0625,0.05859375,-0.9765625,0.009452913844020718,0.25377352526883046,15.094769063909428,0.1639894953641646,1102,0,2.47538356142911,1.0911026022707528,44.07812265024609,0.23258447440294672,0.10251886989276107,0.076171875,,
0.9388149999994785,1200,,,,-0.03125,0.0234375,-0.947265625,0.009452913844020718,0.25377352526883046,15.09482821457021,0.1641517170290643,1103,0,2.477841969680465,1.0914102024145418,44.046804266346605,0.2325189234143165,0.10241715507852034,0.076171875,,
0.9461699999989942,1200,,,,-0.03125,0.01953125,-0.94140625,0.009452913844020718,0.25377352526883046,15.094704456472176,0.16486194644305188,1103,0,2.4885423576766126,1.091527359758744,43.86211696946284,0.23249396636738545,0.10197677547500619,0.076171875,,
0.955554999999702,1200,,,,0,0.01953125,-1.0234375,0.009452913844020718,0.25377352526883046,15.094405579016366,0.16596804581250166,1103,0,2.5051889966506686,1.0915847908816887,43.57295167514671,0.2324817342534188,0.10129915371978518,0.076171875,,
0.9644199999989942,1200,,,,-0.09375,0.0625,-0.962890625,0.009452913844020718,0.27955395540397077,15.094492022892382,0.1648677940382942,1103,0,2.488595601942896,1.0916048766357018,43.86429341044661,0.2560944544930478,0.11233402292671313,0.076171875,,
0.9724900000002236,1200,,,,-0.03125,0.056640625,-0.97265625,0.009452913844020718,0.27955395540397077,15.09456547073076,0.16562338999357146,1107,0,2.5000131037423383,1.095361315844895,43.81422298168032,0.25521620250788196,0.1118209960521802,0.076171875,,
0.9804249999998137,1200,,,,-0.0625,0.0703125,-0.98828125,0.009452913844020718,0.27955395540397077,15.094635985636007,0.16378983178527576,1108,0,2.472347888947292,1.0968576146970295,44.36501916257682,0.2548680445466828,0.11307225680242065,0.076171875,,
0.9895499999998137,1200,,,,-0.03125,0.056640625,-0.990234375,0.00784978885724978,0.27955395540397077,15.095042563829312,0.1632688085828888,1109,0,2.464549614904407,0.911360513647542,36.9787854192942,0.3067435457403249,0.11343003756684929,0.076171875,,
0.9967749999994412,1200,,,,-0.03125,0.0546875,-0.935546875,0.00784978885724978,0.27955395540397077,15.094895438217382,0.16262708155702968,1109,0,2.4548387915258134,0.9115340063298455,37.132133053970456,0.3066851631016518,0.11387874281969167,0.076171875,,
1.0052049999991433,1200,,,,0,-0.046875,-0.94921875,0.00784978885724978,0.27955395540397077,15.094765523808276,0.16225566217929477,1109,0,2.449211175506701,0.9116003702914672,37.22016212435713,0.3066628366052425,0.11414040495962366,0.076171875,,
1.0252050000000745,1200,,,,-0.01953125,0.04296875,-0.982421875,0.00784978885724978,0.27955395540397077,15.094844320200822,0.16031622696534034,1110,0,2.4199484880437936,0.9124104470025708,37.70371359185969,0.30639056832629963,0.11552062235421919,0.076171875,,
1.0327250000005588,1200,,,,-0.0625,0.01953125,-0.9765625,0.00784978885724978,0.27955395540397077,15.094901514216511,0.15937636569544167,1110,0,2.405770543866447,0.9124644521776006,37.928157966018176,0.30637243427600275,0.11620142083653753,0.07421875,,
1.0396349999997765,1200,,,,0,0.07421875,-0.98046875,0.00784978885724978,0.27955395540397077,15.095005243469421,0.15860628777517374,1110,0,2.3941627456134675,0.912483922982451,38.11286115174434,0.30636589682615945,0.11676480887365047,0.07421875,,
1.046804999999702,1200,,,,-0.0625,0.02734375,-0.99609375,0.00784978885724978,0.27955395540397077,15.094961095483368,0.15670212030346195,1109,0,2.3654124095605127,0.911874462694846,38.550337311550244,0.30657065949386286,0.11818402333312826,0.076171875,,
1.0539349999995902,1200,,,,0,-0.001953125,-0.916015625,0.00784978885724978,0.27955395540397077,15.095006351367724,0.15659956740283315,1108,0,2.3638714645672043,0.9109989892133905,38.53843167315289,0.3068652750595847,0.11826106435747075,0.076171875,,
1.062804999999702,1200,,,,-0.0625,0.12109375,-1.05859375,0.00784978885724978,0.27955395540397077,15.095134627821526,0.15678182685515588,1108,0,2.3666427835743824,0.9106232537589127,38.47742718415588,0.3069918918169671,0.11812258163513613,0.076171875,,
1.0749950000001118,1200,,,,-0.03125,0.005859375,-0.955078125,0.00784978885724978,0.27955395540397077,15.094983630109231,0.15694163424776117,1108,0,2.3690313998525454,0.9104011266815412,38.4292553799923,0.30706679419758554,0.1180034825293455,0.076171875,,
1.0901500000003725,1200,,,,-0.03125,0.08203125,-1,0.00784978885724978,0.27955395540397077,15.09502960126681,0.15805687494308227,1105,0,2.385873205949553,0.9086191131746146,38.08329423830356,0.30766902363217985,0.11717049954995876,0.076171875,,
1.0976749999998137,1200,,,,-0.0625,0.05859375,-0.978515625,0.00784978885724978,0.27955395540397077,15.095074001406129,0.15689496926899352,1105,0,2.3683411715637974,0.9080306953407178,38.340366930375666,0.3078683978839224,0.11803787341136475,0.076171875,,
1.1178549999995158,1200,,,,-0.03125,0.041015625,-0.98828125,0.00784978885724978,0.289248375304553,15.09539886859059,0.15623111337333687,1104,0,2.3583709720545176,0.9076566278594973,38.486592593564,0.31867599092696514,0.12264753032156406,0.076171875,,
1.1260249999994412,1200,,,,-0.0625,0.044921875,-0.978515625,0.00784978885724978,0.289248375304553,15.09562865953471,0.1561370490765554,1104,0,2.356986912855227,0.9075421686386002,38.50433634946297,0.3187161823438498,0.12271955084984362,0.076171875,,
1.134429999999702,1200,,,,0,0.021484375,-0.939453125,0.00784978885724978,0.289248375304553,15.095743991062887,0.15541684196380187,1104,0,2.3461328581850327,0.9074136976938296,38.6769954023748,0.3187613059398055,0.12328729564288843,0.076171875,,
1.157714999999851,1200,,,,-0.041015625,0.0546875,-0.978515625,0.007052795266390151,0.289248375304553,15.096465654782113,0.15466086588749342,1104,0,2.334832450009407,0.8152139797780552,34.91530965208106,0.3548128251962777,0.12388399660257744,0.07421875,,
1.166269999999553,1200,,,,-0.0625,0.046875,-0.96484375,0.007052795266390151,0.289248375304553,15.096541617879243,0.15432330028011193,1103,0,2.329748125287185,0.8148527477115193,34.97600186333763,0.35497011713698606,0.12415435478412401,0.07421875,,
1.1744449999993667,1200,,,,-0.0625,0.056640625,-1.015625,0.007052795266390151,0.289248375304553,15.096515104460586,0.15368585290893405,1103,0,2.320120799781631,0.8147117484863144,35.11505730921402,0.35503155053546126,0.12466953243631837,0.076171875,,
1.1825449999999256,1200,,,,0,0.01171875,-0.943359375,0.007052795266390151,0.289248375304553,15.096392322081257,0.15403603679973718,1103,0,2.3253884432673786,0.8146562698912543,35.033126282617516,0.35505572840329797,0.12438712170519484,0.076171875,,
1.1916699999989941,1200,,,,-0.0625,0.09765625,-0.98046875,0.007052795266390151,0.289248375304553,15.096239969974269,0.15405148727409962,1103,0,2.325598219621245,0.8146340637000599,35.02901132392224,0.35506540690281196,0.12437590159131656,0.076171875,,
1.2003799999989568,1200,,,,-0.0625,0.025390625,-0.951171875,0.007052795266390151,0.289248375304553,15.096065125103708,0.15459181900899663,1103,0,2.3337281675680583,0.8146058850586941,34.90577421909349,0.35507768923583455,0.12394261650703484,0.076171875,,
1.20825,1200,,,,0,0.013671875,-0.966796875,0.007052795266390151,0.289248375304553,15.09606198142998,0.15426230736346455,1103,0,2.3287533533572633,0.8145637311218489,34.97853175165706,0.35509606462122845,0.12420738971242105,0.076171875,,
1.2202000000001862,1200,,,,-0.125,0.12109375,-1,0.007052795266390151,0.289248375304553,15.096058969118166,0.1542664368758273,1103,0,2.328815228033234,0.8145469430092153,34.976881514860615,0.35510338328196345,0.12420408962579367,0.076171875,,
1.2293349999999628,1200,,,,-0.041015625,0.033203125,-0.9765625,0.007052795266390151,0.289248375304553,15.096204214888717,0.15159502427673383,1103,0,2.2885094444425866,0.8145389902141484,35.592555328629906,0.35510685035286943,0.12639160218760004,0.076171875,,
1.2386749999998137,1200,,,,-0.03125,0.01171875,-0.943359375,0.007052795266390151,0.289248375304553,15.096348268416092,0.14997894678152093,1103,0,2.264134413544083,0.8144402350692062,35.97137299787564,0.35514990891869974,0.1277522984387611,0.076171875,,
1.2470949999997392,1200,,,,-0.03125,0.01953125,-0.9921875,0.007052795266390151,0.289248375304553,15.096403121934594,0.14925511206382738,1102,0,2.2532153397250614,0.8141234185811396,36.131629508632734,0.35528811566268076,0.12837138563944234,0.076171875,,
1.2553449999997393,1200,,,,-0.0625,0.13671875,-1,0.007052795266390151,0.29758374300308893,15.096316967233365,0.14972272879122736,1102,0,2.260261771031485,0.8140175293109312,36.01430328751032,0.3655741213030076,0.13165897278671604,0.076171875,,
1.263839999999851,1200,,,,-0.03125,0.0078125,-0.921875,0.007052795266390151,0.29758374300308893,15.096503326267277,0.14995679561940684,1102,0,2.2638232638647575,0.8139757211194197,35.955798056859585,0.3655928982670847,0.13145184421113307,0.076171875,,
1.2725750000001863,1200,,,,-0.0625,0.0859375,-0.98828125,0.007052795266390151,0.29758374300308893,15.096406937918605,0.14973139201115876,1102,0,2.2604060251814673,0.8139593339609137,36.00943038079048,0.3656002586210024,0.1316505706001198,0.076171875,,
1.2841849999995902,1200,,,,-0.0625,0.095703125,-0.970703125,0.007052795266390151,0.29758374300308893,15.09646791311105,0.14889247349479667,1102,0,2.2477504486179356,0.8140302000066725,36.21532810758381,0.36556843100004116,0.13239180674441103,0.076171875,,
1.2915449999999256,1200,,,,-0.01953125,-0.0078125,-0.98046875,0.006822819879793983,0.29758374300308893,15.096368788220115,0.1487147358499641,1102,0,2.245052496633797,0.7875405586503378,35.078937344724274,0.3778646569175797,0.1325509062479751,0.076171875,,
1.298839999999851,1200,,,,-0.0625,0.05078125,-0.9765625,0.006822819879793983,0.29758374300308893,15.096179168256134,0.150937673336411,1102,0,2.2785821599261773,0.7875575706033593,34.56349235301987,0.37785649470057875,0.13060040065122347,0.076171875,,
1.306964999999851,1200,,,,-0.0625,0.06640625,-0.95703125,0.006822819879793983,0.29758374300308893,15.09603938793528,0.15494605731543742,1102,0,2.339071784239121,0.7875654821024568,33.670000527950656,0.3778526989383409,0.12722300572741518,0.076171875,,
1.3153999999994412,1200,,,,-0.03125,0,-0.98046875,0.006822819879793983,0.29758374300308893,15.096037436030956,0.15786811334471965,1103,0,2.383182949007466,0.788318572941571,33.07839095063538,0.37749173141090686,0.12486819072242224,0.076171875,,
1.3233899999996648,1200,,,,-0.0625,0.03125,-0.9609375,0.006822819879793983,0.29758374300308893,15.096035678020845,0.1579072539495957,1106,0,2.383773539441395,0.7900599250637541,33.14324586591787,0.37665971094417344,0.12483725407608294,0.076171875,,
1.3316749999998136,1200,,,,-0.09375,0.111328125,-0.986328125,0.006822819879793983,0.29758374300308893,15.09592945367085,0.15636105330599961,1107,0,2.3604154300090374,0.7907942038764372,33.50233157361666,0.37630996983076886,0.126072613837281,0.076171875,,
1.3397399999992923,1200,,,,0,0.06640625,-0.98046875,0.006822819879793983,0.29758374300308893,15.095868172304353,0.15499765704796153,1107,0,2.339824197812068,0.7910589101409026,33.808476332564176,0.37618404797448474,0.12718209482633552,0.076171875,,
1.3467050000000744,1200,,,,-0.03125,0.00390625,-0.97265625,0.006822819879793983,0.29758374300308893,15.095874274209459,0.15436802222324653,1107,0,2.330320255440501,0.7911612005758749,33.950749847742344,0.37613541056674915,0.12770079233029563,0.076171875,,
1.3536850000005216,1200,,,,0,0.03515625,-1.01953125,0.006822819879793983,0.29758374300308893,15.096049721067367,0.15344454719728487,1108,0,2.316406513916881,0.7920047044446308,34.19109295740178,0.3757348173982886,0.12846784068997272,0.076171875,,
1.361855000000447,1200,,,,-0.09375,0.0703125,-0.9765625,0.006822819879793983,0.29758374300308893,15.095959787760677,0.15291296658307052,1110,0,2.308367994565225,0.793201180938363,34.361990064229786,0.37516805339478326,0.12891520923167973,0.076171875,,
1.370839999999851,1200,,,,0,0.025390625,-0.96875,0.006822819879793983,0.29758374300308893,15.09606005422387,0.15234330155232934,1111,0,2.2997836290927003,0.7937498323654613,34.51410916767886,0.3749087317804614,0.1293964089658688,0.076171875,,
1.3784799999995156,1200,,,,-0.125,0.1015625,-0.9921875,0.006822819879793983,0.29758374300308893,15.096291273316432,0.1524607535115892,1111,0,2.3015919427602514,0.7939857194661993,34.49724100589216,0.3747973492560496,0.1292947448565548,0.076171875,,
1.3862999999988823,1200,,,,-0.03125,0.013671875,-0.99609375,0.006822819879793983,0.29758374300308893,15.096156244477385,0.1525468570789103,1111,0,2.302871189067191,0.794056006176472,34.481129901934075,0.374764173670835,0.12922292154935042,0.076171875,,
1.3943349999999628,1200,,,,-0.0625,0.1171875,-0.9453125,0.006822819879793983,0.29758374300308893,15.09614866582849,0.15136591504071845,1110,0,2.2850423563938502,0.7933261690533369,34.71822598095416,0.3751089458679911,0.13023117150122418,0.078125,,
1.402589999999851,1200,,,,-0.0625,0,-0.96875,0.006822819879793983,0.29758374300308893,15.096010552214683,0.1517251633268164,1109,0,2.2904446666181166,0.792653884179547,34.60698683238285,0.37542709238233185,0.1299240044259514,0.078125,,
1.410964999999851,1200,,,,-0.03125,0.056640625,-1.01171875,0.006822819879793983,0.3012633624595043,15.095813551243452,0.14993471383510026,1109,0,2.2633864849137155,0.7923886349171178,35.00898499653828,0.3801964707520267,0.13310292540294505,0.078125,,
1.4187649999996648,1200,,,,-0.125,0.08203125,-0.96484375,0.006822819879793983,0.3012633624595043,15.095822728152683,0.15057679337833815,1109,0,2.2730805798130675,0.792284253234958,34.855088740413834,0.38024656078853347,0.132535276195215,0.078125,,
1.4264900000002234,1200,,,,0,0.025390625,-0.96875,0.006822819879793983,0.3012633624595043,15.095929208503396,0.14916865372215227,1109,0,2.251839436717367,0.7922431423357342,35.182044039988554,0.38026629245575205,0.13378545448101434,0.078125,,
1.4345249999994412,1200,,,,-0.125,0.11328125,-0.984375,0.006822819879793983,0.3012633624595043,15.095932708981062,0.14899707306883073,1108,0,2.249249788882203,0.7915096885385904,35.189941661923754,0.38061866686148105,0.13393948682294707,0.078125,,
1.4426299999998882,1200,,,,-0.03125,0.017578125,-0.990234375,0.0066570473364378335,0.3012633624595043,15.095837213745169,0.1502261989653296,1106,0,2.2677902448203087,0.7712914643680941,34.01070562543179,0.3905960021304322,0.1328444564692866,0.078125,,
1.4520800000000744,1200,,,,-0.03125,0.05078125,-0.94140625,0.0066570473364378335,0.3012633624595043,15.095919826827991,0.15021404211949133,1106,0,2.267619136699604,0.7708822674678804,33.99522675531207,0.3908033368688907,0.13285448053590548,0.078125,,
1.4606650000000372,1200,,,,-0.03125,0.033203125,-1.005859375,0.0066570473364378335,0.3012633624595043,15.095704140334291,0.15091944587287603,1106,0,2.2782353039201317,0.7707364454255766,33.83041444838379,0.3908772762045217,0.1322354025245435,0.078125,,
1.468035000000149,1200,,,,-0.09375,0.1015625,-0.99609375,0.0066570473364378335,0.3012633624595043,15.095520315245203,0.1510895577648891,1106,0,2.280775488661297,0.7706869103206694,33.7905644002262,0.39090239943760546,0.13208812702399353,0.078125,,
1.4757050000000744,1200,,,,0,0.0390625,-0.9765625,0.0066570473364378335,0.3012633624595043,15.095479985452348,0.1504218669506808,1105,0,2.270690281928378,0.7704319790162886,33.929417197399594,0.3910317466886132,0.13267479270825835,0.078125,,
1.4827199999997391,1200,,,,0,0.01171875,-0.9921875,0.0066570473364378335,0.3012633624595043,15.095502449150306,0.15059117989860932,1105,0,2.2732495249798914,0.7703337710290221,33.88689902116383,0.391081598379197,0.13252542633311193,0.078125,,
1.4904849999994039,1200,,,,-0.0625,0.060546875,-0.984375,0.0066570473364378335,0.3012633624595043,15.095524228042896,0.15075533134481525,1105,0,2.275730756822293,0.7702906131803019,33.848055657335046,0.39110350990216153,0.13238093370947454,0.078125,,
1.4985849999990315,1200,,,,-0.0625,0.09375,-0.974609375,0.0066570473364378335,0.3012633624595043,15.095251003038165,0.14996691632040762,1105,0,2.2637882440081736,0.7702706621375953,34.0257382366199,0.3911136400073471,0.1330793033566158,0.078125,,
1.5065899999998509,1200,,,,-0.0625,0.0390625,-0.93359375,0.0066570473364378335,0.3012633624595043,15.095092535670146,0.14996882604348583,1105,0,2.2637933065922375,0.7702629087691258,34.02531964937329,0.39111757690750143,0.13307900574766077,0.078125,,
1.5145099999997764,1200,,,,-0.03125,0.056640625,-1.017578125,0.0066570473364378335,0.3012633624595043,15.095136937674997,0.14954648235588483,1104,0,2.2574246297096794,0.7698280251904286,34.1020477520631,0.39133852315259926,0.13345445003771791,0.078125,,
1.5251149999992921,1200,,,,-0.125,0.12109375,-0.98828125,0.0066570473364378335,0.3012633624595043,15.095179478151854,0.15021082128161492,1104,0,2.267459306806569,0.769655374359698,33.94351431354509,0.3914263090933853,0.13286384525409448,0.078125,,
1.5328999999994413,1200,,,,-0.041015625,0.03125,-0.935546875,0.0066570473364378335,0.3012633624595043,15.095146304205104,0.14963409236195402,1104,0,2.2587485163006353,0.7695780481962263,34.07099296988744,0.39146563908055815,0.1333762303706619,0.078125,,
1.5404699999997393,1200,,,,-0.0625,0.04296875,-0.9765625,0.0066570473364378335,0.3012633624595043,15.095124567081715,0.14787548580311563,1104,0,2.2321988786157543,0.7695579985747345,34.475333087343806,0.3914758381011715,0.13496259914184963,0.078125,,
1.550054999999702,1200,,,,-0.03125,0.099609375,-0.998046875,0.0066570473364378335,0.3012633624595043,15.09510007540532,0.14798993887909778,1104,0,2.2339229375330976,0.7692977891215844,34.437078208754755,0.3916082519923775,0.13485844001055244,0.078125,,
1.5577399999992922,1200,,,,-0.0625,0,-0.947265625,0.0066570473364378335,0.2968849072888695,15.09493083520261,0.14940364499081937,1103,0,2.2552376876635836,0.7686953899248818,34.08489464900912,0.3862191853627242,0.1316424024451458,0.078125,,
1.5655949999997392,1200,,,,0,0.0078125,-1.0234375,0.0066570473364378335,0.2968849072888695,15.094919386452412,0.14999752578593797,1102,0,2.2642005599060506,0.768502943988344,33.94146956752947,0.3863159010791927,0.13112129399932146,0.078125,,
1.573539999999106,1200,,,,-0.0625,0.107421875,-1.009765625,0.0066570473364378335,0.2968849072888695,15.09487362438147,0.1485924734829403,1102,0,2.2429846087592384,0.7684133138768685,34.2585192460119,0.38636096216370697,0.1323615445819303,0.078125,,
1.5816349999997765,1200,,,,-0.0625,0.05859375,-0.9296875,0.0066570473364378335,0.2968849072888695,15.094863663215422,0.1473971467292523,1102,0,2.2249398342250224,0.7683788862808208,34.534816378459865,0.38637827325771473,0.13343502719581568,0.078125,,
1.5892249999996275,1200,,,,-0.03125,0.0390625,-1.015625,0.00639883218859193,0.2968849072888695,15.095113895334256,0.14773588152257938,1102,0,2.2300899580109435,0.7386839362608213,33.123503991725364,0.4019106044077323,0.13312687509416274,0.078125,,
1.5978849999988451,1200,,,,-0.09375,0.072265625,-0.955078125,0.00639883218859193,0.2968849072888695,15.095059306743885,0.14965652704809154,1103,0,2.2590741514322623,0.7387887170064439,32.70316366277967,0.4018536023287426,0.1314188412543445,0.080078125,,
1.6066849999995902,1200,,,,0,0.00390625,-0.984375,0.00639883218859193,0.2968849072888695,15.095257933617244,0.14919786999114046,1103,0,2.252180330662557,0.7388325485686217,32.80521273140097,0.4018297621890642,0.13182110830420515,0.080078125,,
1.6148699999991805,1200,,,,0,0.015625,-1.01171875,0.00639883218859193,0.2968849072888695,15.095295755245711,0.14968077394225626,1103,0,2.259475551532434,0.738847627869159,32.699961164353105,0.4018215611588107,0.13139549444892845,0.080078125,,
1.6236199999991805,1200,,,,-0.0625,0.060546875,-0.978515625,0.00639883218859193,0.2968849072888695,15.095333329043997,0.15039215716551826,1103,0,2.270219742487471,0.738853542670439,32.5454637206564,0.40181834442565995,0.13077364350799534,0.080078125,,
1.6327750000003725,1200,,,,0,0.005859375,-0.966796875,0.00639883218859193,0.2968849072888695,15.095370603320774,0.1527961221968797,1103,0,2.3065140913121867,0.7389048935822958,32.035568148726526,0.40179041967030066,0.12871584370853345,0.080078125,,
1.6408149999994786,1200,,,,-0.03125,0.03515625,-1.03515625,0.00639883218859193,0.2968849072888695,15.095139539430642,0.15265912464294865,1103,0,2.304410788452645,0.7389219079648219,32.06554628487006,0.4017811680622188,0.12883332640888234,0.080078125,,
1.649789999999106,1200,,,,-0.125,0.12109375,-0.96875,0.00639883218859193,0.2968849072888695,15.095040522583407,0.15251353624941547,1103,0,2.30219800992742,0.7389289949417015,32.09667421113778,0.4017773146285761,0.1289571557305921,0.080078125,,
1.657734999999404,1200,,,,0,0.02734375,-0.98046875,0.00639883218859193,0.2968849072888695,15.095086980151828,0.15302223488816702,1103,0,2.309883945534105,0.7389313820220893,31.98997869354987,0.40177601670731933,0.12852806214046483,0.080078125,,
1.665804999999702,1200,,,,-0.0625,0.0546875,-1.001953125,0.00639883218859193,0.2968849072888695,15.095132308345244,0.15341090630531068,1103,0,2.3157579282218204,0.7389632698317933,31.91021223877291,0.40175867923238995,0.12820204723074652,0.080078125,,
1.6768499999996274,1200,,,,-0.125,0.109375,-0.96875,0.00639883218859193,0.2968849072888695,15.095179883580363,0.1534621292761046,1103,0,2.316538446740063,0.7389925794322121,31.900725864151124,0.4017427448554005,0.12815885171543742,0.080078125,,
1.684609999999404,1200,,,,-0.01953125,0.03125,-0.953125,0.00639883218859193,0.2968849072888695,15.095390848877765,0.1529904828899023,1103,0,2.3094511353816216,0.7390036161066464,31.999101638690046,0.4017367450148251,0.12855214935725895,0.080078125,,
1.693359999999404,1200,,,,-0.0625,0.046875,-0.98046875,0.00639883218859193,0.2968849072888695,15.095421120348874,0.15219598630548778,1103,0,2.297462506108188,0.7390069207441488,32.16622333463007,0.40173494855761155,0.12922296076630252,0.080078125,,
1.7011200000001117,1200,,,,-0.03125,0.048828125,-0.966796875,0.00639883218859193,0.2968849072888695,15.095236480349826,0.15090548673232979,1103,0,2.277954008406811,0.739008267148925,32.4417553831907,0.4017342166336567,0.13032963185086832,0.080078125,,
1.709519999999553,1200,,,,0,-0.05078125,-0.88671875,0.00639883218859193,0.2950330529419053,15.09526967904064,0.15143171389251395,1103,0,2.285902559166823,0.7388796024088726,32.32332014529014,0.399297872048501,0.12906632951556796,0.080078125,,
1.7178499999996275,1200,,,,-0.03125,0.0703125,-1.005859375,0.00639883218859193,0.2950330529419053,15.095309793176261,0.15183005282019552,1103,0,2.2919216832351665,0.7388163165805084,32.235670266779394,0.3993320752679339,0.12872737105285847,0.080078125,,
1.7248899999996647,1200,,,,-0.0625,0.056640625,-0.943359375,0.00639883218859193,0.2950330529419053,15.09514989042281,0.15226627871549714,1103,0,2.2984823004673256,0.7387950454529038,32.142733720537784,0.3993435726968649,0.12835994120203553,0.080078125,,
1.7336150000002235,1200,,,,0,-0.0390625,-0.88671875,0.00639883218859193,0.2950330529419053,15.095192579819566,0.15411289815915571,1103,0,2.3263638767465755,0.7387863855506833,31.757129352604867,0.39934825372017496,0.12682154150128466,0.080078125,,
1.7416699999999254,1200,,,,-0.03125,0.083984375,-1.02734375,0.006372764893803525,0.2950330529419053,15.095232476296868,0.15508811699276448,1103,0,2.3410911803169063,0.7358040907468851,31.429962956303203,0.40096685605869503,0.12602373432630143,0.080078125,,
1.7498600000003353,1200,,,,-0.0625,0.068359375,-0.97265625,0.006372764893803525,0.2950330529419053,15.09526985256677,0.15378497894294074,1103,0,2.321425756414989,0.7358756256284696,31.699296158619905,0.400927877846116,0.12709131538091015,0.080078125,,
1.7577800000002608,1200,,,,0,-0.03125,-0.96875,0.006372764893803525,0.2950330529419053,15.09524012163628,0.15359818520931426,1103,0,2.318601487982161,0.7359042678800258,31.739144121764134,0.4009122732659629,0.12724612421372483,0.080078125,,
1.7666749999998137,1200,,,,-0.03125,0.037109375,-1.001953125,0.006372764893803525,0.2950330529419053,15.095209137324156,0.15293272073710912,1103,0,2.308551403466653,0.7359160356330267,31.877827564416933,0.4009058624305165,0.12780007952123862,0.080078125,,
1.7743349999999627,1200,,,,-0.0625,0.0625,-0.962890625,0.006372764893803525,0.2950330529419053,15.095248169087665,0.15396554601529097,1103,0,2.3241481265899036,0.7359201017821229,31.664079124849003,0.40090364732182976,0.12694244810238978,0.080078125,,
1.782554999999702,1200,,,,0,-0.05859375,-0.88671875,0.006372764893803525,0.2950330529419053,15.095415845474632,0.1527070643913201,1103,0,2.305176639528648,0.7359675685246214,31.926732030180066,0.4008777907610138,0.12798717802477483,0.080078125,,
1.790804999999702,1200,,,,-0.03125,0.041015625,-0.986328125,0.006372764893803525,0.2950330529419053,15.095444509555943,0.15214922095541386,1103,0,2.296760122104616,0.7360321472432069,32.04653982622923,0.400842618147788,0.12845618926523084,0.080078125,,
1.7989849999994039,1200,,,,-0.0625,0.0625,-1,0.006372764893803525,0.2950330529419053,15.095406283118127,0.1522571059586907,1103,0,2.2983828739382024,0.7360576602530992,32.025023706859116,0.4008287242611617,0.12836549396853797,0.080078125,,
1.8067800000002607,1200,,,,0,0.03515625,-0.947265625,0.006372764893803525,0.2950330529419053,15.095236789755957,0.15171283382649267,1103,0,2.290141150655804,0.736067785613395,32.14071697731884,0.40082321045478486,0.12882745365167544,0.080078125,,
1.8147849999992176,1200,,,,-0.0625,0.05859375,-0.98046875,0.006372764893803525,0.2950330529419053,15.095177466354219,0.15246420129085475,1103,0,2.3014741757514043,0.7360716591757624,31.98261648690643,0.4008211011306658,0.12819307557321621,0.080078125,,
1.8407649999996647,1200,,,,-0.03125,0.029296875,-0.94921875,0.006372764893803525,0.2950330529419053,15.095249228498897,0.15317931826425102,1102,0,2.3122799858504224,0.735742872791291,31.818935305998234,0.4010002187620207,0.12759400018479877,0.080078125,,
1.8482900000000373,1200,,,,-0.041015625,0.08203125,-1.02734375,0.006372764893803525,0.2950330529419053,15.095222375022065,0.15363488891582813,1102,0,2.319152812746238,0.7357151528457015,31.723444388923223,0.4010153274684303,0.12721587440050583,0.080078125,,
1.8550449999989942,1200,,,,0,0.01171875,-0.93359375,0.006372764893803525,0.29694671833807285,15.095422045356964,0.15284842087077696,1102,0,2.307311422010726,0.7357043432629818,31.885784304827226,0.40362235326905976,0.12869815296944015,0.080078125,,
1.8630949999997393,1200,,,,-0.0625,0.078125,-0.998046875,0.006372764893803525,0.29694671833807285,15.09544765161285,0.15233849193804105,1102,0,2.299617730376345,0.7353963547804413,31.979069610847432,0.40379139277448384,0.1291287305779626,0.080078125,,
1.871804999999702,1200,,,,-0.0625,0.03125,-0.95703125,0.006372764893803525,0.29694671833807285,15.095256923845646,0.15244950982271135,1102,0,2.3012645186881584,0.735248189146539,31.94974689679173,0.40387276394758964,0.129036325866332,0.080078125,,
1.8800599999995902,1200,,,,-0.03125,0.076171875,-0.9765625,0.006372764893803525,0.29694671833807285,15.095228007663536,0.15360965341173213,1102,0,2.3187727424282674,0.7351984040233508,31.706358737572344,0.4039001128308236,0.1280620187156004,0.080078125,,
1.887570000000298,1200,,,,-0.0625,0.013671875,-0.943359375,0.006231518316672613,0.29694671833807285,15.095265255091533,0.1533313232346974,1102,0,2.3145769961419367,0.7188844351961501,31.058998529512127,0.41306600031902196,0.1282941629649996,0.080078125,,
1.8948799999998882,1200,,,,-0.0625,0.0234375,-0.98828125,0.006231518316672613,0.29694671833807285,15.095384576165273,0.1525235886896567,1102,0,2.30240222820722,0.7188772522777795,31.222922019039995,0.41307012761523637,0.12897256382925423,0.080078125,,
1.9028049999997019,1200,,,,-0.03125,0.060546875,-0.953125,0.006231518316672613,0.29694671833807285,15.095414496859236,0.15176943276169225,1102,0,2.291022495490952,0.7188294519970447,31.375922908299682,0.41309759569964544,0.12961318316276027,0.080078125,,
1.911160000000149,1200,,,,-0.0625,0,-0.93359375,0.006231518316672613,0.29694671833807285,15.095443629427495,0.15125006453180787,1102,0,2.2831868230871764,0.718810188677563,31.48275828368853,0.4131086662591456,0.13005800284733637,0.078125,,
1.9190300000002607,1200,,,,-0.03125,0.037109375,-1.029296875,0.006231518316672613,0.29694671833807285,15.095470665556892,0.15171632803876825,1102,0,2.2902293793952326,0.7188027715572455,31.385623554748715,0.4131129290093785,0.12965806875487984,0.078125,,
1.9268299999991432,1200,,,,-0.03125,0.0625,-0.982421875,0.006231518316672613,0.29694671833807285,15.095398623815155,0.152164329031656,1102,0,2.2969812030582166,0.7187998062597021,31.2932385037669,0.4131146332429396,0.129276947474675,0.078125,,
1.9348349999999628,1200,,,,-0.0625,0.03515625,-0.98046875,0.006231518316672613,0.29694671833807285,15.095362658373753,0.15184445940032104,1102,0,2.2921471823125557,0.7187986319175498,31.359183104129958,0.4131153081717806,0.12954958592077942,0.078125,,
1.9424199999999254,1200,,,,-0.03125,0.001953125,-1.013671875,0.006231518316672613,0.29694671833807285,15.095002906059342,0.15260342242563513,1101,0,2.3035491049895636,0.718798172039333,31.20394396986773,0.4131155724778663,0.12890835176679172,0.078125,,
1.9504249999998138,1200,,,,-0.125,0.109375,-0.96484375,0.006231518316672613,0.29694671833807285,15.095051660581731,0.15268858863628224,1101,0,2.304842133445993,0.7187979902894592,31.18643050900744,0.4131156769351744,0.12883603350920386,0.078125,,
1.9587999999998138,1200,,,,0,0.021484375,-0.966796875,0.006231518316672613,0.29694671833807285,15.095093059395335,0.15219323768852563,1101,0,2.297371085918968,0.7187979227319192,31.287845796335244,0.41311571576260836,0.1292550081082315,0.078125,,
1.966480000000447,1200,,,,-0.0625,0.09375,-1,0.006231518316672613,0.29694671833807285,15.094997949176301,0.15324904800450062,1101,0,2.3132940653411573,0.7187978899480444,31.07248234097892,0.41311573460453055,0.12836531368279808,0.078125,,
1.9748199999993667,1200,,,,-0.041015625,0.03125,-0.958984375,0.006231518316672613,0.29694671833807285,15.095145473112773,0.15394270717441133,1101,0,2.3237875593225406,0.7187978785685214,30.93216829072251,0.4131157411447001,0.1277856562863442,0.078125,,
1.9843199999993666,1200,,,,-0.0625,0.05859375,-0.984375,0.006231518316672613,0.29694671833807285,15.095056480753032,0.1546022851791335,1101,0,2.3337302268325075,0.7187978741021375,30.800384116279684,0.4131157437116714,0.12724123590802033,0.078125,,
1.9913449999997392,1200,,,,-0.03125,0.064453125,-1.02734375,0.006231518316672613,0.29694671833807285,15.095109777810519,0.15262889801607565,1101,0,2.303949970818908,0.7187978722144105,31.198501760822673,0.41311574479660745,0.12888592291460527,0.078125,,
1.9997999999998137,1200,,,,-0.03125,0.04296875,-1,0.006231518316672613,0.29694671833807285,15.09495833369715,0.15176057861697959,1101,0,2.2908196109210777,0.7187978716005837,31.37732312809974,0.41311574514939303,0.12962466224858207,0.078125,,
2.007299999999814,1200,,,,-0.0625,0.05859375,-0.984375,0.006231518316672613,0.3034170506864405,15.09491217511929,0.15125754113767667,1101,0,2.2832192992977225,0.7187978713583905,31.48177100550437,0.42211734727739286,0.13289001664437847,0.078125,,
2.015049999999814,1200,,,,0,0.08203125,-1.0546875,0.006231518316672613,0.3034170506864405,15.0951895981523,0.15045398975817828,1102,0,2.2711315011981656,0.7189021533029722,31.653920212180836,0.42205611611037863,0.13359730624420857,0.078125,,
2.0229449999993667,1200,,,,-0.09375,0.076171875,-0.982421875,0.006231518316672613,0.3034170506864405,15.09513140336139,0.15192025417600444,1102,0,2.293256199618849,0.7190627804347212,31.35553631357164,0.4219618355201263,0.13230839656592663,0.078125,,
2.0309399999994784,1200,,,,0,0.001953125,-0.9609375,0.006231518316672613,0.3034170506864405,15.095369657172053,0.15076560518881918,1102,0,2.2758625419124825,0.7191261474679406,31.597960519339413,0.42192465362965703,0.1333195854752586,0.078125,,
2.039875,1200,,,,-0.0625,0.09765625,-0.9609375,0.00609306083282859,0.3034170506864405,15.095183996253086,0.14952770405303803,1102,0,2.2571482052178875,0.7031739939279917,31.153204397586858,0.4314964053086295,0.13442495711403715,0.078125,,
2.04825,1200,,,,-0.03125,0.041015625,-0.951171875,0.00609306083282859,0.3034170506864405,15.094958462096788,0.14998535771124707,1102,0,2.2640227445740027,0.7031828568461639,31.059001440309046,0.4314909667270506,0.13401678557055807,0.078125,,
2.0560549999997018,1200,,,,0,-0.02734375,-0.916015625,0.00609306083282859,0.3034170506864405,15.09500895250267,0.15019649839585653,1102,0,2.267217487920007,0.7033603362971697,31.02306417645213,0.43138208828176916,0.13382794209337265,0.078125,,
2.0655149999996647,1200,,,,-0.03125,0.064453125,-0.998046875,0.00609306083282859,0.3034170506864405,15.095063639104014,0.150784657001234,1103,0,2.2761039932340976,0.7035289197190038,30.909348685749865,0.43127871816218755,0.133305442804183,0.078125,,
2.0737249999996274,1200,,,,-0.125,0.05859375,-0.953125,0.00609306083282859,0.3034170506864405,15.095188170670326,0.1497897578764113,1103,0,2.2611045811835764,0.7035890330144046,31.117049554873333,0.43124187053698526,0.1341897465563564,0.078125,,
2.0818300000000747,1200,,,,-0.03125,0.044921875,-0.947265625,0.00609306083282859,0.3034170506864405,15.095228309082064,0.1500149947249426,1103,0,2.26451059515875,0.7036094907078574,31.07115030559316,0.4312293320279003,0.1339879139161943,0.078125,,
2.089274999999441,1200,,,,-0.0625,0.068359375,-0.962890625,0.00609306083282859,0.3034170506864405,15.09516957619317,0.15022224176254403,1103,0,2.26763021352149,0.7036173801890337,31.028753100637136,0.4312244967640289,0.13380358441037551,0.078125,,
2.0967599999997764,1200,,,,-0.0625,0.02734375,-0.95703125,0.00609306083282859,0.3034170506864405,15.095031827134989,0.1512499005271896,1103,0,2.283122062308928,0.7040719128910924,30.838119630759575,0.43094610810497397,0.13289567636151436,0.078125,,
2.1043999999994414,1200,,,,-0.03125,0.068359375,-0.951171875,0.00609306083282859,0.3034170506864405,15.094949838160167,0.1516092890609441,1104,0,2.288534613374076,0.7042811782469003,30.774329307982416,0.4308180596870521,0.13258136840635365,0.078125,,
2.111234999999404,1200,,,,-0.0625,0,-0.8984375,0.00609306083282859,0.3034170506864405,15.09499608894198,0.15001048256252625,1104,0,2.2644076475816326,0.7043605005773315,31.105728746746735,0.4307695426386682,0.13399400545678566,0.078125,,
2.118569999999367,1200,,,,-0.03125,0.05859375,-1.005859375,0.00609306083282859,0.3034170506864405,15.095039338594553,0.1501971528189229,1104,0,2.267231930346539,0.7043941455928052,31.06846441974469,0.43074896715828076,0.13382708959998818,0.078125,,
2.126174999999814,1200,,,,-0.125,0.1171875,-1.03125,0.00609306083282859,0.3034170506864405,15.095168159124164,0.15037753159561384,1104,0,2.269974126789798,0.7044089251896306,31.031583879143465,0.43073992937377814,0.1336654224845873,0.078125,,
2.137899999999441,1200,,,,-0.03125,0.005859375,-0.9140625,0.00609306083282859,0.3034170506864405,15.095215176890337,0.14888579938371055,1104,0,2.2474631784804373,0.7044791990754734,31.34552796330075,0.43069696179054157,0.13500423659514096,0.078125,,
2.155114999999292,1200,,,,-0.0625,0.072265625,-0.92578125,0.00609306083282859,0.30047881185361974,15.095464289689712,0.1503252454343869,1104,0,2.269229374293629,0.7045559291730958,31.048246473206863,0.4264797149692255,0.13241447306187523,0.078125,,
2.1627749999994412,1200,,,,-0.0625,0.0546875,-0.9609375,0.00609306083282859,0.30047881185361974,15.095620219174636,0.151365591257791,1104,0,2.2849574798784333,0.7045616702958891,30.834782550674593,0.4264762397980436,0.13150302117202028,0.078125,,
2.1708650000002234,1200,,,,0,0.01171875,-1.046875,0.00609306083282859,0.30047881185361974,15.095638991214503,0.15172682230227827,1103,0,2.290413334759346,0.7040649360674878,30.739645346217127,0.4267771287289579,0.13118977579005017,0.078125,,
2.1791500000003725,1200,,,,-0.0625,0.09375,-0.99609375,0.00609306083282859,0.30047881185361974,15.095558699324762,0.15121671293750846,1103,0,2.282700766467101,0.7036218588064592,30.824095262185562,0.4270458742758737,0.1316330271000285,0.078125,,
2.187169999998994,1200,,,,-0.0625,-0.015625,-0.890625,0.00609306083282859,0.30047881185361974,15.095514743574729,0.1517997975792398,1102,0,2.2914960824290738,0.7034465066652483,30.698132633051156,0.42715232644777307,0.13112778771810105,0.078125,,
2.195070000000298,1200,,,,-0.03125,0.017578125,-0.994140625,0.006111770947555953,0.30047881185361974,15.095441490993858,0.1522380268072006,1102,0,2.2981002263724513,0.7055382680116342,30.7009354907608,0.4258859164371576,0.1307509604696072,0.078125,,
2.2037900000000374,1200,,,,-0.09375,0.13671875,-0.970703125,0.006111770947555953,0.30047881185361974,15.095325038021135,0.1528339215410823,1102,0,2.3070777224980574,0.7055091085389399,30.58020549801975,0.4259035187736845,0.13024217126428983,0.080078125,,
2.2123849999997764,1200,,,,0,-0.03125,-0.97265625,0.006111770947555953,0.30047881185361974,15.095353902275647,0.15289858151858693,1103,0,2.3080581991790123,0.7058805325783017,30.583307337284083,0.4256794145548819,0.13018684362487112,0.080078125,,
2.2210449999989943,1200,,,,-0.0625,0.037109375,-0.9609375,0.006111770947555953,0.30047881185361974,15.095089387244052,0.1525911185102985,1104,0,2.303376573612506,0.7063038079504818,30.66384437707242,0.4254243124152688,0.1304514491012484,0.080078125,,
2.228179999999702,1200,,,,-0.0625,0.09375,-0.978515625,0.006111770947555953,0.30047881185361974,15.094939674473103,0.1526762575567855,1104,0,2.3046388975439953,0.7064282264528725,30.652447427043693,0.4253493852622343,0.13037999669875988,0.080078125,,
2.2358699999991805,1200,,,,0,0.01171875,-0.98828125,0.006111770947555953,0.30047881185361974,15.095160134347935,0.15359921704723295,1104,0,2.3186047778384467,0.7064748581803898,30.469826722215736,0.42532130956158687,0.1295946660360743,0.080078125,,
2.2440499999998136,1200,,,,-0.0625,0.0390625,-0.9375,0.006111770947555953,0.30047881185361974,15.095201833363983,0.15428224620995173,1104,0,2.3289216458439768,0.706496568491744,30.335780929019496,0.42530823963532255,0.12902057584884072,0.080078125,,
2.2521749999998137,1200,,,,-0.0625,0.05859375,-0.99609375,0.006111770947555953,0.30047881185361974,15.094844995172236,0.15364023703879578,1104,0,2.3191755631221427,0.7062835631546979,30.454079216145157,0.4254365067077253,0.12956277076717138,0.080078125,,
2.2610449999989943,1200,,,,0,0.06640625,-0.953125,0.006111770947555953,0.30047881185361974,15.09505292568254,0.15273418154440055,1103,0,2.3055305539735316,0.7061961929322212,30.630528479230414,0.42548914148912564,0.1303295726598596,0.078125,,
2.2692599999997767,1200,,,,-0.03125,-0.009765625,-0.98828125,0.006111770947555953,0.30047881185361974,15.094804067297186,0.15313423436687046,1103,0,2.311531263763477,0.7061661562631351,30.54971253615682,0.425507239604462,0.12999123851969915,0.078125,,
2.2771349999997765,1200,,,,-0.0625,0.0546875,-0.986328125,0.006111770947555953,0.30047881185361974,15.094797469937767,0.1536155597609605,1103,0,2.31879576282282,0.7061544244189987,30.453498136435748,0.42551430885793023,0.12958399211831725,0.078125,,
2.2850750000001865,1200,,,,0,0.0703125,-0.94140625,0.006111770947555953,0.30047881185361974,15.094857124822012,0.15236064400553206,1103,0,2.299862152709376,0.7061497195741264,30.704001922125617,0.4255171439207485,0.13065079204840066,0.078125,,
2.2952199999997394,1200,,,,-0.03125,0.017578125,-0.982421875,0.006111770947555953,0.30047881185361974,15.094718329786764,0.1524570809254892,1104,0,2.301296693951766,0.7063232194907118,30.69240143381164,0.42541262068416413,0.13056934929048206,0.078125,,
2.303605000000447,1200,,,,-0.0625,0.0703125,-0.98828125,0.006111770947555953,0.30592706799350594,15.09489256282532,0.15258303353770053,1104,0,2.303224498161562,0.7064032446483656,30.670186306728585,0.4330770991090092,0.13282555314850875,0.078125,,
2.312540000000037,1200,,,,-0.03125,0.064453125,-0.9921875,0.006111770947555953,0.30592706799350594,15.094949484968868,0.15311952301347023,1104,0,2.3113314650508614,0.7064246507465161,30.56353713987842,0.4330639759954819,0.1323596691428133,0.078125,,
2.321375,1200,,,,-0.03125,0.03515625,-1.005859375,0.006111770947555953,0.30592706799350594,15.095005984332314,0.15225233518048226,1104,0,2.298249910677949,0.7064329676922867,30.737865556313658,0.4330588774655884,0.13311305553505368,0.078125,,
2.3294099999992177,1200,,,,-0.125,0.0546875,-0.96484375,0.006111770947555953,0.30592706799350594,15.095059033207747,0.1521326049312894,1104,0,2.2964506523134856,0.7064359919663643,30.762080223874527,0.4330570235272952,0.13321734899258972,0.078125,,
2.338344999999739,1200,,,,-0.03125,0.064453125,-0.96875,0.006111770947555953,0.30592706799350594,15.095012235112907,0.15194259226859616,1104,0,2.293575289329231,0.7064369992316503,30.800689321964736,0.4330564060577868,0.133384358218725,0.078125,,
2.3632949999999253,1200,,,,-0.041015625,0.08203125,-0.9921875,0.006135039413674666,0.30592706799350594,15.094879194946234,0.15361887498512958,1104,0,2.318858359964079,0.7090064340982414,30.57566802438181,0.43148701236061854,0.131930036467706,0.078125,,
2.3712099999990315,1200,,,,-0.03125,0.015625,-0.994140625,0.006135039413674666,0.30592706799350594,15.094798910448231,0.15298006128054037,1102,0,2.3092032623378045,0.7083082755916132,30.673275373538665,0.43191231633991695,0.13248165416317215,0.078125,,
2.3783100000005217,1200,,,,-0.0625,-0.01171875,-0.9453125,0.006135039413674666,0.30592706799350594,15.094938671075642,0.15474369215125094,1102,0,2.3358465427589423,0.7080694134805513,30.31318198858338,0.43205801884550527,0.1309705335489059,0.078125,,
2.385660000000149,1200,,,,-0.03125,0.046875,-0.97265625,0.006135039413674666,0.30592706799350594,15.094898266028146,0.1564094814591186,1102,0,2.360985210467611,0.7079669411872447,29.98608115156412,0.4321205556300031,0.1295760204838025,0.078125,,
2.393389999999665,1200,,,,-0.0625,0.05859375,-0.984375,0.006135039413674666,0.30592706799350594,15.094946687395963,0.15803461964387608,1102,0,2.385524158287208,0.7079217190309218,29.675730449915267,0.4321481595624602,0.12824312297602541,0.078125,,
2.401540000000037,1200,,,,-0.03125,0.021484375,-1.02734375,0.006135039413674666,0.30592706799350594,15.094998283389105,0.15689794858394648,1102,0,2.368374264541944,0.7079010411687493,29.889745542631164,0.4321607826546184,0.12917175827050872,0.078125,,
2.4093499999996273,1200,,,,-0.0625,0.107421875,-0.98828125,0.006135039413674666,0.30592706799350594,15.09491751671217,0.15614167393582984,1104,0,2.356945688982718,0.7092124789508969,30.090319105189067,0.43136165405048815,0.12979809820121363,0.078125,,
2.417144999999553,1200,,,,0,-0.0234375,-0.953125,0.006135039413674666,0.30592706799350594,15.094773609822807,0.15605309119190902,1105,0,2.3555860826549004,0.7097383724051374,30.13001212866802,0.4310420288490118,0.12987301557186398,0.078125,,
2.4253249999992548,1200,,,,-0.03125,0.0546875,-1.015625,0.006135039413674666,0.30592706799350594,15.094899280251871,0.1549036922481762,1105,0,2.3382556326253523,0.709944278014124,30.362132698767887,0.43091701344400396,0.13083559544343593,0.078125,,
2.4333149999994785,1200,,,,-0.0625,0.046875,-1,0.006135039413674666,0.30592706799350594,15.095019506380023,0.15423291700533343,1105,0,2.3281488907213994,0.7100256598654737,30.497433505872788,0.43086762251869737,0.1314035666759747,0.078125,,
2.4413250000001865,1200,,,,-0.03125,0.052734375,-0.9375,0.006135039413674666,0.30592706799350594,15.095067566940013,0.15423847094585025,1105,0,2.3282401403491235,0.7100574566567828,30.49760393488914,0.43084832801267303,0.13139841663739704,0.078125,,
2.452445000000298,1200,,,,0,0.04296875,-1.01953125,0.006135039413674666,0.30592706799350594,15.094820559573325,0.15487881319631264,1106,0,2.337867893678016,0.7104240848092013,30.38769156847169,0.43062598036167204,0.13085729472601237,0.078125,,
2.4675849999990316,1200,,,,0,0.0546875,-0.9453125,0.006135039413674666,0.2889905804821719,15.094890256651164,0.15462637302364535,1106,0,2.3340681315759326,0.7106355727159277,30.446222331826956,0.40666495117560647,0.12381411518054068,0.078125,,
2.4744799999995157,1200,,,,-0.03125,0.03125,-0.958984375,0.006135039413674666,0.2889905804821719,15.094765778827494,0.15433382516188418,1106,0,2.329632942569155,0.7106519920655482,30.504891095926478,0.406655555333357,0.1240498342899756,0.078125,,
2.4831150000002236,1200,,,,-0.03125,0.015625,-1.013671875,0.006135039413674666,0.2889905804821719,15.095024530067,0.1543344453073998,1106,0,2.3296822377494837,0.7104219979480587,30.494373285617684,0.4067872072048379,0.12404720944318234,0.078125,,
2.4913899999996647,1200,,,,0,0.06640625,-0.98828125,0.006093076351743376,0.2889905804821719,15.094872727148115,0.15400837210029156,1105,0,2.3247367757691695,0.705353600209607,30.34122432963326,0.4097102224987492,0.12431109770978506,0.078125,,
2.499464999999851,1200,,,,-0.03125,0.056640625,-0.9609375,0.006093076351743376,0.2889905804821719,15.094927910059305,0.15444985992165164,1105,0,2.3314095012360894,0.7052735940745961,30.25095306940575,0.4097566999674252,0.12395530700589152,0.078125,,
2.5070849999990314,1200,,,,0,0.04296875,-1.015625,0.006093076351743376,0.2889905804821719,15.094915306375864,0.15296933322144907,1105,0,2.3090591294505614,0.7052421193030156,30.54240189469844,0.40977498730191936,0.1251551234857017,0.078125,,
2.514239999999292,1200,,,,-0.09375,0.044921875,-0.955078125,0.006093076351743376,0.2889905804821719,15.094789924494926,0.15414894965551115,1105,0,2.3268460121314853,0.7052304223676765,30.308426887332214,0.4097817838203026,0.12419841234678217,0.078125,,
2.523234999999404,1200,,,,0,0.013671875,-1.00390625,0.006093076351743376,0.2889905804821719,15.095083269306585,0.1548931280109255,1104,0,2.3381246651682845,0.7043760645608818,30.125684701683124,0.4102788198266402,0.12359930365876023,0.078125,,
2.5315,1200,,,,0,0.078125,-1.03515625,0.006093076351743376,0.2889905804821719,15.094933346356871,0.15338922624854281,1103,0,2.3154001462710077,0.7040977398528638,30.409332960733614,0.41044100005570616,0.12481237031430453,0.078125,,
2.5402399999992924,1200,,,,-0.0625,0.05859375,-0.9921875,0.006093076351743376,0.2889905804821719,15.094847110047198,0.15507829984027846,1103,0,2.3408832261750603,0.703981178061305,30.073314644216197,0.41050895888725825,0.1234536508488613,0.078125,,
2.548339999999851,1200,,,,-0.03125,0.03125,-0.9375,0.006093076351743376,0.2889905804821719,15.0951053769466,0.15700045907565452,1103,0,2.3699384739759974,0.703940212363344,29.702889762465347,0.4105328483962317,0.12194011939784172,0.078125,,
2.5563149999994783,1200,,,,0,0.037109375,-1.03125,0.006093076351743376,0.2889905804821719,15.095277928760419,0.15729223513577398,1104,0,2.374370005410443,0.7042888328417197,29.66213484995459,0.4103296360899691,0.12171252998633457,0.078125,,
2.5642799999993295,1200,,,,-0.125,0.02734375,-0.96484375,0.006093076351743376,0.2889905804821719,15.095248016950583,0.156508228558345,1105,0,2.362530526781806,0.7051623522474817,29.847756219600697,0.4098213405198192,0.12232247465425529,0.078125,,
2.572040000000037,1200,,,,0,0.07421875,-0.984375,0.006093076351743376,0.2889905804821719,15.09518699022146,0.1544926221935368,1106,0,2.3320950206210758,0.7055062193899541,30.252035751187616,0.40962159161695255,0.12391887034054422,0.078125,,
2.579464999999851,1200,,,,0,-0.015625,-0.96484375,0.006093076351743376,0.2889905804821719,15.09504685777875,0.1524817366831382,1106,0,2.301718960187452,0.7056343270028151,30.65684122206424,0.40954722499068413,0.12555424249476424,0.078125,,
2.5868599999994037,1200,,,,-0.03125,0.03125,-0.955078125,0.006093076351743376,0.2889905804821719,15.094806892726902,0.1528799602865442,1106,0,2.3076934782931424,0.705691910052692,30.579967256944734,0.40951380675540655,0.12522918801847127,0.078125,,
2.5944050000002608,1200,,,,-0.0625,0.01953125,-0.94921875,0.006093076351743376,0.2889905804821719,15.094800170393436,0.15316178884597573,1107,0,2.3119465963699977,0.7060672526970468,30.539946459215262,0.40929611078587924,0.12499881309365792,0.078125,,
2.6038099999995903,1200,,,,-0.03125,0.0390625,-0.919921875,0.006093076351743376,0.2889905804821719,15.094939010947778,0.15321317938563048,1108,0,2.3127435984994933,0.7068685405014514,30.564068622222855,0.4088321433532216,0.12495573684418317,0.078125,,
2.612160000000149,1200,,,,-0.03125,0.048828125,-0.984375,0.006093076351743376,0.3012338808898635,15.095077897339412,0.1525235085180366,1108,0,2.3023542422552734,0.707273252036399,30.719566913542756,0.42590877008644584,0.1308373296173527,0.078125,,
2.618964999999851,1200,,,,-0.125,0.03515625,-0.99609375,0.006093076351743376,0.3012338808898635,15.095182288490975,0.1530097328180978,1109,0,2.309709808802486,0.7073968187867944,30.627086402406455,0.4258343731407899,0.13042066139297562,0.078125,,
2.6270299999993294,1200,,,,-0.03125,0.076171875,-0.978515625,0.006093076351743376,0.3012338808898635,15.095124416254857,0.15339410584774643,1109,0,2.315503112491899,0.7074494301606972,30.552730693562058,0.4258027048257545,0.13009435369131572,0.078125,,
2.6348149999994783,1200,,,,-0.0625,0.0390625,-0.9765625,0.006093076351743376,0.3012338808898635,15.09510186076609,0.15322653222236665,1108,0,2.312970111668582,0.7071592469922279,30.573643966461873,0.425977433189351,0.1302368238007852,0.078125,,
2.6426349999997765,1200,,,,-0.03125,0.025390625,-0.962890625,0.005813510258368812,0.3012338808898635,15.095145001260118,0.15359253542078227,1107,0,2.318501593287889,0.6740223188817723,29.07146239765723,0.4469197420489303,0.12992610475746144,0.076171875,,
2.6509799999995156,1200,,,,-0.03125,0.029296875,-0.94921875,0.005813510258368812,0.3012338808898635,15.095355933158775,0.15390811531932472,1107,0,2.323297781746853,0.6737598771866011,29.000151529435502,0.4470938253962477,0.1296578868436616,0.076171875,,
2.6574749999996277,1200,,,,-0.0625,0.04296875,-0.890625,0.005813510258368812,0.3012338808898635,15.095387148596865,0.15245747657691244,1107,0,2.3014046326266318,0.6736388898066561,29.27077143482677,0.44717412466540035,0.13089131594649667,0.076171875,,
2.6654000000003726,1200,,,,0,0.0625,-0.984375,0.005813510258368812,0.3012338808898635,15.095236891332835,0.15196351211108014,1106,0,2.293925214155681,0.6735929857714013,29.364208633075638,0.4472045987012311,0.13131809137933814,0.076171875,,
2.6731949999993665,1200,,,,-0.0625,0.02734375,-0.99609375,0.005813510258368812,0.3012338808898635,15.09517638138473,0.1508060416212623,1106,0,2.2764437976514014,0.6733342920212769,29.578340247888107,0.4473764138546871,0.1323265178787394,0.076171875,,
2.681464999999851,1200,,,,0,0.02734375,-0.94921875,0.005813510258368812,0.3012338808898635,15.095216757711668,0.15002227837919277,1105,0,2.2646188106196754,0.6727556894624398,29.707237540712267,0.4477611792931281,0.1330174771477041,0.076171875,,
2.689284999999218,1200,,,,-0.03125,0.05859375,-1.021484375,0.005813510258368812,0.3012338808898635,15.095254875349024,0.15002149145312182,1105,0,2.264612650264869,0.6725282882731659,29.697276847522115,0.44791258024749303,0.13301783899097766,0.076171875,,
2.698089999999851,1200,,,,-0.0625,0,-0.92578125,0.005813510258368812,0.3012338808898635,15.095421815304269,0.15002073819294245,1105,0,2.264626324065794,0.6724376887238946,29.69309689541339,0.4479729288546039,0.1330170358300188,0.076171875,,
2.7063199999993666,1200,,,,-0.03125,0.046875,-0.9609375,0.005813510258368812,0.3012338808898635,15.095307626299109,0.15049474820458886,1104,0,2.271764520290694,0.6723997431294683,29.598126791918915,0.44799820935068674,0.13259907802914261,0.076171875,,
2.714304999999702,1200,,,,-0.03125,0.080078125,-0.982421875,0.005813510258368812,0.3012338808898635,15.095144865659268,0.1510044786209864,1104,0,2.2794344801471373,0.6723167900967203,29.494894279800587,0.4480534850937274,0.132152901745357,0.076171875,,
2.7217249999996276,1200,,,,-0.0625,0.05078125,-0.98828125,0.005813510258368812,0.3012338808898635,15.095252306467936,0.15159481169549816,1104,0,2.288361930895041,0.6721442712925481,29.372288632229342,0.44816848667114906,0.1316373414637442,0.076171875,,
2.7292999999998138,1200,,,,-0.0625,0.0625,-0.98828125,0.005813510258368812,0.3012338808898635,15.095284974955106,0.15171500855139763,1104,0,2.290181289061098,0.6720805408851149,29.34617202992898,0.44821098449472335,0.1315327665668598,0.076171875,,
2.73581500000041,1200,,,,-0.03125,0.05078125,-0.94921875,0.005813510258368812,0.3012338808898635,15.09523088569373,0.1523742849258778,1104,0,2.300125011998607,0.672053583994452,29.21813294880422,0.4482289627851316,0.13096413426160594,0.076171875,,
2.743344999999739,1200,,,,-0.0625,0.115234375,-1.02734375,0.005813510258368812,0.3012338808898635,15.095265367149915,0.1530458718832566,1104,0,2.3102680494245864,0.6720411825191313,29.089316397139076,0.4482372341538581,0.1303891472528009,0.076171875,,
2.7515049999989567,1200,,,,-0.125,0.09375,-0.9296875,0.005813510258368812,0.2808393967535156,15.09503810143607,0.15353924445648492,1104,0,2.317680745136347,0.6719304663067888,28.991502290245748,0.4179590163504961,0.12117259779754269,0.076171875,,
2.7616699999999255,1200,,,,0,-0.0078125,-0.951171875,0.005813510258368812,0.2808393967535156,15.095087174699113,0.1532486518184781,1103,0,2.313301758605039,0.6717794180073755,29.039852475297913,0.4180529936248095,0.12140197261721127,0.076171875,,0.2809750000005588,4626,
2.782824999999255,1200,,,,-0.0625,0.029296875,-0.943359375,0.005813510258368812,0.2808393967535156,15.09510366898941,0.1515556709622072,1103,0,2.2877485647977656,0.6716945549277387,29.360506012911248,0.4181058111803935,0.12275798183195079,0.078125,,
2.800299999999814,1500,,,,-0.0625,0.0703125,-0.9921875,0.005678164737645851,0.2808393967535156,15.095210861200869,0.15025255850026925,1104,0,2.2680940529964833,0.6562785942262901,28.935246021180216,0.4279271017282028,0.12382175967636165,0.078125,,
2.8078499999996276,1500,,,,-0.03125,0.025390625,-0.900390625,0.005678164737645851,0.2808393967535156,15.095254905669695,0.15120697169158767,1104,0,2.2825077811988974,0.6563482240018168,28.75557443475908,0.42788170438126794,0.12303984199607128,0.078125,,
2.814950000000186,1500,,,,-0.0625,0.03515625,-0.9609375,0.005678164737645851,0.2808393967535156,15.095118337676267,0.15270494306307206,1104,0,2.3050991862851893,0.6563693654159648,28.474669086745237,0.4278679224700525,0.12183397505167912,0.078125,,
2.822929999999702,1500,,,,-0.21875,0.359375,-0.626953125,0.005678164737645851,0.2808393967535156,15.082461932542328,0.6172338655985936,1104,0,9.309406281366735,0.6563797115724779,7.050715069620028,0.42786117822062686,0.03016727256985554,0.083984375,,
2.83155999999959,1500,,,,0.25,-0.24609375,-1.17578125,0.005678164737645851,0.2808393967535156,15.07040795298522,0.9461575924759634,1154,0,14.258980906427109,0.6862464062655194,4.812731083440893,0.4092398797129066,0.019695614896779175,0.08984375,,
2.8395999999996273,1500,,,,-0.0625,0.435546875,-0.900390625,0.005678164737645851,0.2808393967535156,15.061576572007954,1.17826847128373,1172,0,17.746580802622653,0.69680845767808,3.926437804712799,0.403036722156523,0.015824986225629004,0.09375,,
2.8537399999992923,1500,,,,0.375,-0.1875,-1.16015625,0.005678164737645851,0.2808393967535156,15.050226648361267,1.4750369848334357,1508,0,22.19964093645863,0.8965437404613432,4.038550637046309,0.313246731954206,0.012650627888863331,0.1015625,,
2.8605750000001864,1500,,,,-0.1875,0.15234375,-1.140625,0.005678164737645851,0.2808393967535156,15.047214882139915,1.5726018039909175,1651,0,23.663277268692212,0.9816032621966705,4.148213499976118,0.2861027541056069,0.011868153069612265,0.103515625,,
2.8752399999992924,1500,,,,0.15625,0.0703125,-0.939453125,0.005678164737645851,0.2808393967535156,15.041895560805692,1.7052239037524957,1738,0,25.649799868034417,1.0332810963564767,4.028417771961582,0.2717938010709793,0.010948989785433237,0.103515625,,
2.883589999999851,1500,,,,-0.33203125,-0.076171875,-1.0234375,0.005678164737645851,0.2808393967535156,15.039635053213129,1.7608532784460271,2003,0,26.482590690082127,1.190999196071322,4.497291107238076,0.23580149984979315,0.01060467988347875,0.111328125,,
2.8913050000006333,1500,,,,-0.0625,0.08203125,-0.841796875,0.005678164737645851,0.2808393967535156,15.03841653751404,1.7927894950407064,2206,0,26.960715190501606,1.3114349661571192,4.864243981996235,0.21414664394411842,0.010416615240698686,0.11328125,,
2.8984050000002606,1500,,,,-0.0625,-0.03125,-1.21875,0.005678164737645851,0.2808393967535156,15.037711794399295,1.8051901212187025,2280,0,27.145928776983574,1.3558618351244327,4.994715215911262,0.20712980443744244,0.010345543858924179,0.11328125,,
2.906464999999851,1500,,,,-0.0625,-0.005859375,-0.998046875,0.005678164737645851,0.30290553977859375,15.03772587380561,1.8102548526920053,2363,0,27.22211623650873,1.404890895402034,5.160843790380542,0.21560787444060703,0.011127185599639544,0.115234375,,
2.9215149999996646,1500,,,,0.0625,-0.0625,-1.02734375,0.005678164737645851,0.30290553977859375,15.037706665248791,1.805788439537094,2443,0,27.15491685325617,1.4525470658409287,5.349112551846213,0.20853406192606327,0.011154721681361807,0.115234375,,
2.9425049999998882,1500,,,,-0.03125,0.109375,-1.021484375,0.005678164737645851,0.30290553977859375,15.039027938200082,1.7537940679859643,2557,0,26.375357986290492,1.5205358498533401,5.764986585750576,0.19920973241624645,0.011484414351306224,0.115234375,,
2.9607149999989195,1500,,,,-0.041015625,0.109375,-1.013671875,0.005736627732319384,0.30290553977859375,15.040522486377451,1.7076918674267285,2629,0,25.684577931835612,1.579495790787003,6.14958826646415,0.19177356568178466,0.01179328469334695,0.1171875,,
2.9684599999999626,1500,,,,-0.125,-0.1796875,-0.95703125,0.005736627732319384,0.30290553977859375,15.041154818134327,1.6881295604247957,2645,0,25.3914180714184,1.5887359388846445,6.2569799544712685,0.1906582033961197,0.01192944556805027,0.119140625,,
2.9765099999997764,1500,,,,0,0.037109375,-0.970703125,0.005736627732319384,0.30290553977859375,15.042265712970025,1.665150200574289,2666,0,25.04763176904379,1.6017507456049986,6.394819120522972,0.18910903622784522,0.01209318080733496,0.119140625,,
2.9842199999997394,1500,,,,0,0.23828125,-1.0546875,0.005736627732319384,0.30290553977859375,15.043123291070819,1.643290656748789,2675,0,24.72022395253677,1.6069071853055203,6.500374706923401,0.18850220009502447,0.01225334933697111,0.119140625,,
2.9917849999992177,1500,,,,-0.0625,-0.03515625,-0.970703125,0.005736627732319384,0.30290553977859375,15.043872189740847,1.6220132947449093,2689,0,24.401360696202865,1.6153745826561463,6.62001846031282,0.1875141177970801,0.01241346921385943,0.119140625,,
3.000089999999851,1500,,,,0,0.15234375,-0.962890625,0.005736627732319384,0.30290553977859375,15.044794226196554,1.5976826121484646,2695,0,24.03680613854585,1.6192712648688767,6.736632377594395,0.18706287596792626,0.012601738268914565,0.119140625,,
3.007495000000112,1500,,,,-0.0625,0.0859375,-0.99609375,0.005736627732319384,0.30290553977859375,15.045700551493072,1.5746461208843545,2706,0,23.69165400939616,1.625331177235051,6.860353340422923,0.1863654275640517,0.012785326835283885,0.119140625,,
3.0157799999993293,1500,,,,0,0.02734375,-0.951171875,0.005736627732319384,0.30290553977859375,15.046224748343606,1.5484187744587088,2710,0,23.2978568850605,1.6278979456684801,6.987329150915817,0.18607157812599157,0.013001433619966507,0.119140625,,
3.0237499999990685,1500,,,,0,0.125,-0.96875,0.005736627732319384,0.30290553977859375,15.04705452488604,1.5261936749867009,2716,0,22.964719443061092,1.6317634307865518,7.105523038643511,0.1856307930816819,0.013190038769235572,0.119140625,,
3.031604999999516,1500,,,,-0.125,-0.025390625,-0.994140625,0.005736627732319384,0.30290553977859375,15.048068652669032,1.5032590764511167,2719,0,22.62114578518425,1.6333822136742193,7.2205989439491844,0.18544682147433297,0.013390371232963017,0.119140625,,
3.041104999999516,1500,,,,-0.03125,0.013671875,-0.994140625,0.005736627732319384,0.30290553977859375,15.048949056041488,1.4792173677976792,2725,0,22.26066681079906,1.6367476250723423,7.352644190686713,0.18506551354562417,0.013607208730676869,0.119140625,,
3.0481949999993665,1500,,,,-0.125,0.17578125,-0.95703125,0.005736627732319384,0.30290553977859375,15.0496867545433,1.4569202565897632,2727,0,21.926193488024786,1.6382575884060064,7.471691743032174,0.18489494077260163,0.013814780022990707,0.119140625,,
3.0562999999998137,1500,,,,-0.03125,-0.05078125,-0.94140625,0.005736627732319384,0.9422088603864684,15.050390907033304,1.438000707779036,2730,0,21.64247277666506,1.6399949159405969,7.577668840636553,0.5745193788275114,0.04353517595283101,0.119140625,,
3.0669449999993668,1500,,,,-0.03125,-0.021484375,-0.998046875,0.005736627732319384,0.9422088603864684,15.051058795512333,1.4187775863001477,2731,0,21.354104869158597,1.6408470146243468,7.683988744450707,0.5742210285229891,0.04412307919997556,0.119140625,,
3.07468499999959,1500,,,,0,0.12890625,-0.9453125,0.005736627732319384,0.9422088603864684,15.051873003683216,1.3943191593485977,2733,0,20.987114913117434,1.6416059177893667,7.82197040701066,0.5739555700769364,0.0448946348408073,0.119140625,,
3.083299999999814,1500,,,,0,0.056640625,-0.91015625,0.005736627732319384,0.9422088603864684,15.051879731042408,1.3916524829202597,2735,0,20.9469858003223,1.6428811483314913,7.843043213912969,0.5735100566120531,0.04498064157622006,0.119140625,,
3.0919550000000746,1500,,,,0,0.06640625,-0.978515625,0.015428250145721223,0.9422088603864684,15.051885786959835,1.387084506961699,2736,0,20.87823757564899,4.42103343815631,21.17531914337786,0.21311959603259525,0.0451287546169797,0.1171875,,
3.1006899999994784,1500,,,,-0.0625,-0.064453125,-0.978515625,0.015428250145721223,0.9422088603864684,15.052424517872524,1.3697581301005388,2749,0,20.61818086108057,4.440683749008305,21.537708777163065,0.21217652812967885,0.0456979627220657,0.119140625,,
3.109644999999553,1500,,,,-0.03125,0.119140625,-1.033203125,0.015428250145721223,0.9422088603864684,15.053337847070868,1.3448433902355488,2753,0,20.24438190461588,4.447203888690993,21.967595304438486,0.21186545163410572,0.0465417450049012,0.119140625,,
3.1176550000002607,1500,,,,-0.0625,0.09375,-0.984375,0.015428250145721223,0.9422088603864684,15.053819526123835,1.326054422848714,2756,0,19.962183963382845,4.453104948122135,22.307704188532586,0.21158469682682773,0.047199688276332225,0.119140625,,
3.125729999999516,1500,,,,-0.0625,-0.07421875,-0.9453125,0.015428250145721223,0.9422088603864684,15.054510781516994,1.3092535547703712,2758,0,19.710171756030004,4.455372398546628,22.60443213633377,0.21147701608373368,0.047803178584591224,0.119140625,,
3.133769999999553,1500,,,,-0.0625,0.1015625,-0.998046875,0.015428250145721223,0.9422088603864684,15.055167939278842,1.2926266421822143,2754,0,19.460711180839336,4.4500552179944926,22.866868413195178,0.2117297009206762,0.04841595210118273,0.119140625,,
3.14143499999959,1500,,,,0.0625,-0.11328125,-0.94140625,0.015428250145721223,0.9422088603864684,15.05573127356645,1.2763074771057537,2753,0,19.21574239774779,4.447939281240561,23.147371510152475,0.21183042321649673,0.049033175033450775,0.119140625,,
3.1484749999996273,1500,,,,-0.0625,0.099609375,-0.96484375,0.015428250145721223,0.9422088603864684,15.056089793040718,1.265495621695682,2751,0,19.053415712950077,4.44522404891921,23.330326256923655,0.21195981350266305,0.04945091602373821,0.119140625,,
3.1567399999992922,1500,,,,-0.0625,0.1015625,-0.97265625,0.015428250145721223,0.9422088603864684,15.056481280416318,1.2537799120876842,2751,0,18.877513776110234,4.443953356208262,23.54098854814318,0.21202042075220934,0.04991170296900259,0.119140625,,
3.1647249999996276,1500,,,,-0.03125,-0.03515625,-0.9296875,0.015428250145721223,0.9422088603864684,15.056652818255241,1.2424027561571092,2749,0,18.706426959901016,4.441396520456169,23.74262348430686,0.21214247726967092,0.050368189628419234,0.119140625,,
3.1728649999992924,1500,,,,0,0.021484375,-1.025390625,0.015428250145721223,0.9422088603864684,15.056916190336523,1.2333788605602498,2748,0,18.570882134388437,4.4403772604987015,23.910427239620883,0.21219117320690187,0.0507358160785342,0.1171875,,
3.180789999999106,1500,,,,-0.0625,0.1875,-1.00390625,0.015428250145721223,0.9422088603864684,15.057328285555919,1.22549426065735,2748,0,18.452669394782355,4.439977854105628,24.06143934579497,0.2122102612550673,0.05106084329744106,0.1171875,,
3.188,1500,,,,-0.0625,0.01953125,-0.9375,0.015428250145721223,0.9422088603864684,15.057458902557974,1.2196035799612106,2748,0,18.364130782678505,4.439820211162655,24.176587847819082,0.21221779612101285,0.05130702190790226,0.119140625,,
3.196394999999553,1500,,,,-0.0625,0.05078125,-0.9609375,0.015428250145721223,0.9422088603864684,15.057680498322007,1.21370284118119,2750,0,18.275549602412017,4.442313382049386,24.30741334018807,0.2120986925852125,0.05155570589582242,0.1171875,,
3.205149999999441,1500,,,,-0.0625,0.080078125,-0.970703125,0.015428250145721223,1.5801985769390703,15.058252959391247,1.195748524967011,2751,0,18.00588376477221,4.444313595978038,24.682562955744274,0.355555147676595,0.08776012316766509,0.119140625,,
3.2125099999997766,1500,,,,-0.03125,-0.048828125,-0.90625,0.015428250145721223,1.5801985769390703,15.058531384237796,1.1855696634670188,2752,0,17.852937985518345,4.446351920057416,24.90543530518134,0.3553921518921662,0.08851196246919527,0.119140625,,
3.222780000000261,1500,,,,0,0.1484375,-1.03515625,0.015428250145721223,1.5801985769390703,15.05880338861861,1.1734624243541159,2752,0,17.67093993228037,4.446015112487212,25.160037493905225,0.35541907460028127,0.08942357242992176,0.119140625,,
3.231199999999255,1500,,,,-0.03125,-0.02734375,-0.95703125,0.015428250145721223,1.5801985769390703,15.05920915098797,1.161294600799256,2750,0,17.488178279349075,4.443226593139174,25.407029378159763,0.3556421316389916,0.09035810086663222,0.119140625,,
3.238324999999255,1500,,,,-0.0625,0.064453125,-0.990234375,0.030382183256165676,1.5801985769390703,15.059420491913013,1.1536427927769763,2749,0,17.373191913893354,8.74676045056899,50.346306504415,0.18066100996698453,0.09095614581194976,0.119140625,,
3.2458600000003353,1500,,,,-0.0625,0.05859375,-0.994140625,0.030382183256165676,1.5801985769390703,15.05962072426346,1.1483765383981464,2748,0,17.294115116918658,8.744590040455028,50.563963413775845,0.18070585008886753,0.09137203992548759,0.119140625,,
3.253745000000112,1500,,,,-0.0625,-0.0234375,-0.953125,0.030382183256165676,1.5801985769390703,15.059833802740188,1.1419344806553247,2748,0,17.19734349228762,8.742245729389909,50.83486140350972,0.1807543079722316,0.09188620193855707,0.119140625,,
3.261445000000298,1500,,,,-0.0625,0.09765625,-1,0.030382183256165676,1.5801985769390703,15.059841944260057,1.135669513025227,2747,0,17.103003367074706,8.739957576848349,51.101887716831044,0.18080163010458158,0.09239304600624346,0.119140625,,
3.269945000000298,1500,,,,-0.0625,0.1640625,-0.94921875,0.030382183256165676,1.5801985769390703,15.060113273548957,1.130395594501252,2746,0,17.02388569710957,8.736326362714083,51.31805110861028,0.180876779476008,0.09282243813510607,0.119140625,,
3.2790049999998883,1500,,,,-0.0625,-0.015625,-0.939453125,0.030382183256165676,1.5801985769390703,15.060107060458591,1.1228928636796345,2745,0,16.91088674444023,8.731948863299724,51.63507387435207,0.18096745659844915,0.09344267990314524,0.119140625,,
3.2868149999994785,1500,,,,0,0.072265625,-1.017578125,0.030382183256165676,1.5801985769390703,15.060230966149744,1.1187655586735563,2744,0,16.84886771059731,8.73048142635027,51.8164281203248,0.1809978739740202,0.09378663326706424,0.119140625,,
3.2959799999995156,1500,,,,0.0625,-0.16796875,-0.96875,0.030382183256165676,1.5801985769390703,15.060368160692107,1.1115115205546595,2744,0,16.739772714403866,8.729850291880542,52.1503513866044,0.18101095942146697,0.09439785138655891,0.12109375,,
3.3047799999993295,1500,,,,-0.03125,0.0703125,-0.974609375,0.030382183256165676,1.5801985769390703,15.060783840154953,1.1077201645591934,2745,0,16.683133953806884,8.732488738245976,52.343215384021605,0.1809562685169259,0.094718329380703,0.12109375,,
3.3131049999995157,1500,,,,-0.03125,0.1171875,-0.958984375,0.030382183256165676,1.5801985769390703,15.0609383553441,1.1041436982458595,2745,0,16.629440174722546,8.733829812679938,52.52028763996355,0.18092848278826185,0.09502415958301706,0.119140625,,
3.322049999999814,1500,,,,-0.0625,-0.064453125,-0.96875,0.030382183256165676,1.5801985769390703,15.061107282339487,1.099514033552569,2746,0,16.55989881777306,8.735366051951363,52.75011730492009,0.18089666392240944,0.09542320241975802,0.119140625,,
3.3295250000003724,1500,,,,-0.0625,0.080078125,-1.037109375,0.030382183256165676,1.5801985769390703,15.061444948279783,1.094995496740498,2745,0,16.492214392771285,8.734979900525214,52.964263576114135,0.18090466090758336,0.09581482142456796,0.119140625,,
3.3377249999996277,1500,,,,-0.0625,-0.12890625,-0.87890625,0.030382183256165676,1.5801985769390703,15.061439440372517,1.0882841112234578,2745,0,16.391125235111737,8.733010530203781,53.278895774017,0.18094545649221805,0.09640574117230812,0.12109375,,
3.345834999999963,1500,,,,-0.03125,0.033203125,-1.00390625,0.030382183256165676,1.5801985769390703,15.061466861567634,1.0862300632703943,2744,0,16.36021810198556,8.731344399580472,53.36936430279491,0.18097998482513145,0.09658786741646734,0.119140625,,
3.353665000000037,1500,,,,-0.125,0.21875,-1.03125,0.030382183256165676,1.860649188961233,15.061593821561042,1.0822698540266842,2744,0,16.300708946670078,8.728850254506707,53.5488995175872,0.21316085563509118,0.11414529239486411,0.12109375,,
3.3607450000001116,1500,,,,0,-0.060546875,-0.931640625,0.030382183256165676,1.860649188961233,15.061865227227113,1.079919320606237,2744,0,16.265599263249808,8.729217437890574,53.66674351564289,0.21315188929591625,0.11439167772718643,0.12109375,,
3.368579999999143,1500,,,,-0.0625,-0.02734375,-1.03125,0.030382183256165676,1.860649188961233,15.061905045152898,1.0763122642868463,2745,0,16.21131312362199,8.732119507044034,53.86435657898805,0.21308104950468015,0.11477473630745096,0.12109375,,
3.379040000000037,1500,,,,0,0.0859375,-0.94921875,0.030382183256165676,1.860649188961233,15.062006087858004,1.0739226676240896,2745,0,16.175429757642746,8.73323645920644,53.99075381647936,0.21305379714066558,0.1150293511108781,0.119140625,,
3.3864399999994785,1500,,,,-0.03125,0.041015625,-0.916015625,0.030382183256165676,1.860649188961233,15.062046414233896,1.071178494992993,2743,0,16.13414020951367,8.727720670358885,54.09473673231431,0.21318844395196748,0.11532372749953426,0.119140625,,
3.3948149999994786,1500,,,,0,0,-0.97265625,0.03644322933831684,1.860649188961233,15.062011479818997,1.06846871200948,2743,0,16.093288006114207,10.466896956655397,65.03889666722415,0.17776511956374383,0.11561647242343083,0.119140625,,
3.411989999999292,1500,,,,-0.0625,0.05078125,-0.99609375,0.03644322933831684,1.860649188961233,15.061922671673466,1.0612651662941788,2742,0,15.984693868863603,10.462766665348228,65.4549079962584,0.17783529428440198,0.11640192825873068,0.12109375,,
3.419910000000149,1500,,,,-0.09375,0.099609375,-1.015625,0.03644322933831684,1.860649188961233,15.062024804266485,1.0583943622420964,2741,0,15.941562136786263,10.461254244305675,65.62251650461283,0.17786100457065476,0.1167168670796481,0.12109375,,
3.427889999999665,1500,,,,0,0.03125,-0.96484375,0.03644322933831684,1.860649188961233,15.062319489495895,1.0568335490167098,2742,0,15.918364562507502,10.463909208087987,65.73482575423367,0.1778158766441762,0.11688695667541231,0.119140625,,
3.4364099999992175,1500,,,,0,0.0390625,-0.8828125,0.03644322933831684,1.860649188961233,15.062551561709052,1.053953988219484,2742,0,15.875236291224871,10.464996142590227,65.92025435473244,0.1777974080075196,0.11720450359467832,0.119140625,,
3.4430049999998884,1500,,,,0,0.052734375,-0.970703125,0.03644322933831684,1.860649188961233,15.062442495713873,1.053069590399005,2743,0,15.861800149369975,10.468355763434301,65.99727436264604,0.17774034729125593,0.11730378465493006,0.119140625,,
3.450179999999702,1500,,,,-0.125,0.03515625,-0.9140625,0.03644322933831684,1.860649188961233,15.06259505347245,1.0505435381272739,2743,0,15.823911900853322,10.46983539924659,66.16464667426511,0.17771522836883621,0.11758465293660385,0.12109375,,
3.457784999999218,1500,,,,-0.03125,0,-0.998046875,0.03644322933831684,1.860649188961233,15.062479340052118,1.048029410418967,2743,0,15.785921342202691,10.467417236155274,66.30856070574276,0.17775628380747124,0.11786763335674948,0.12109375,,
3.467914999999106,1500,,,,-0.0625,0.0546875,-1.01953125,0.03644322933831684,1.860649188961233,15.061900372292268,1.0561334566945906,2742,0,15.907376904578573,10.464713598849391,65.78528730175096,0.17780220847762274,0.11696769367586231,0.12109375,,
3.47625,1500,,,,-0.0625,0.029296875,-0.970703125,0.03644322933831684,1.860649188961233,15.06178593706838,1.0619414620420846,2746,0,15.994734978975305,10.479713644161688,65.51977046157388,0.17754771286120136,0.1163288539264334,0.12109375,,
3.484089999999851,1500,,,,-0.03125,0.1328125,-1.0234375,0.03644322933831684,1.860649188961233,15.062088690033518,1.0573695945973258,2748,0,15.926194611969708,10.489046183428684,65.86034165088874,0.17738974129991103,0.11682948967374909,0.12109375,,
3.491534999999218,1500,,,,-0.0625,-0.03515625,-0.9296875,0.03644322933831684,1.860649188961233,15.06224970563741,1.0527280154214083,2753,0,15.856452240397362,10.505930844722934,66.25650356992881,0.17710464845633608,0.11734334772698218,0.12109375,,
3.499109999999404,1500,,,,0,-0.046875,-1.00390625,0.03644322933831684,1.860649188961233,15.062412895485624,1.0493317753741778,2755,0,15.805468465038839,10.512072863264343,66.50908757634545,0.17700116933773236,0.11772186272598792,0.12109375,,
3.506804999999702,1500,,,,0,0.111328125,-0.96484375,0.03644322933831684,1.9790949701705238,15.06249078478092,1.0453503126336239,2753,0,15.745579450911814,10.505106046177398,66.71781168122749,0.1883936212991089,0.12569210147778437,0.12109375,,
3.514839999999851,1500,,,,-0.125,0.05078125,-0.921875,0.03644322933831684,1.9790949701705238,15.06269380102138,1.042865716915336,2752,0,15.708366969478348,10.502371102208091,66.85845271258556,0.18844268126789243,0.1259898609458222,0.12109375,,
3.523139999999665,1500,,,,-0.0625,0.048828125,-0.986328125,0.03644322933831684,1.9790949701705238,15.062758460208226,1.0404581861120084,2750,0,15.672170345351558,10.49471995444431,66.96404979771737,0.18858006490515408,0.1262808485716551,0.12109375,,
3.533770000000484,1500,,,,-0.0625,-0.015625,-1,0.03644322933831684,1.9790949701705238,15.06301289777385,1.0380003903108674,2749,0,15.635413267146888,10.491752415298244,67.10249506064225,0.1886334038234417,0.12657772048334634,0.12109375,,
3.5431199999991803,1500,,,,-0.0625,0.1015625,-0.96875,0.03760275208423278,1.9790949701705238,15.063159497457741,1.0352503932849328,2748,0,15.594141793856798,10.822087531183424,69.39841688143883,0.18287552789310182,0.12691272122138675,0.12109375,,
3.552364999999292,1500,,,,-0.03125,0.14453125,-0.998046875,0.03760275208423278,1.9790949701705238,15.063132750938692,1.0344333586973655,2747,0,15.581807004057799,10.818885658184707,69.43280490746203,0.18292965030768196,0.12701318721603533,0.12109375,,
3.5597449999991806,1500,,,,-0.0625,-0.013671875,-0.94921875,0.03760275208423278,1.9790949701705238,15.063367713256257,1.0328052003268924,2747,0,15.55752450868727,10.816686732366536,69.52704285522118,0.18296683810288422,0.12721143193863546,0.12109375,,
3.567219999999739,1500,,,,-0.0625,0.072265625,-1.005859375,0.03760275208423278,1.9790949701705238,15.063463116576782,1.0313523256798371,2746,0,15.535737718073912,10.814136167247549,69.60812781144365,0.18300999169629004,0.12738982892766598,0.12109375,,
3.575419999998994,1500,,,,-0.03125,0.06640625,-0.9375,0.03760275208423278,1.9790949701705238,15.06349004581282,1.0307953279571187,2746,0,15.527375161952419,10.813105926754329,69.63898156624873,0.1830274283426511,0.12745843708471788,0.12109375,,
3.5830200000004844,1500,,,,0,0.04296875,-0.90625,0.03760275208423278,1.9790949701705238,15.063511893604186,1.0303440343684211,2744,0,15.520599616212833,10.8034279704674,69.60702703252605,0.18319138847231098,0.1275140792951813,0.119140625,,
3.5920049999998884,1500,,,,-0.09375,0.1484375,-0.994140625,0.03760275208423278,1.9790949701705238,15.063686240571244,1.03098447525684,2742,0,15.530426654169025,10.798555601396504,69.53160941330427,0.18327404545794815,0.12743339344378224,0.12109375,,
3.599959999999963,1500,,,,-0.0625,-0.01171875,-0.98046875,0.03760275208423278,1.9790949701705238,15.063701709558517,1.0287433949253455,2744,0,15.496683636833959,10.80363070604258,69.71575957299343,0.1831879507935787,0.12771087134194484,0.12109375,,
3.607875,1500,,,,-0.0625,-0.0390625,-0.908203125,0.03760275208423278,1.9790949701705238,15.063911008424713,1.0286459712866314,2744,0,15.495431370636418,10.805609732419171,69.73416534176403,0.18315440027718285,0.127721192320007,0.12109375,,
3.616105000000447,1500,,,,-0.125,0.0859375,-1.01171875,0.03760275208423278,1.9790949701705238,15.064111949528526,1.0292988068161417,2744,0,15.505472455394495,10.80472243832882,69.68328420440848,0.18316944109085626,0.12763848221096794,0.12109375,,
3.6239749999996276,1500,,,,-0.03125,-0.044921875,-0.984375,0.03760275208423278,1.9790949701705238,15.064106528885508,1.0291738851076242,2744,0,15.503585042008226,10.80437423083372,69.68952149814632,0.18317534434549174,0.127654020976955,0.12109375,,
3.6319399999994784,1500,,,,0,0.068359375,-1.009765625,0.03760275208423278,1.9790949701705238,15.0642978635927,1.0274550489927985,2742,0,15.477888899479746,10.799208571194086,69.7718444765234,0.1832629638665912,0.12786595013206528,0.12109375,,
3.6400349999992176,1500,,,,0.03125,0.052734375,-0.94921875,0.03760275208423278,1.9790949701705238,15.064479908102902,1.0270999364327447,2742,0,15.47272635600485,10.797173142429378,69.78196921474718,0.18329751167861932,0.12790861317097174,0.12109375,,
3.647924999999814,1500,,,,-0.125,0.109375,-0.96484375,0.03760275208423278,1.9790949701705238,15.064390552563731,1.026546895969484,2743,0,15.464303361406317,10.799727563671274,69.83649577532053,0.1832541569685437,0.12797828158943628,0.12109375,,
3.6560649999994785,1500,,,,-0.03125,0.091796875,-1.052734375,0.03760275208423278,2.010815943305541,15.064273112386065,1.0262368073472663,2743,0,15.459511543862341,10.80072884588787,69.86461904209335,0.18617409732224813,0.1300698238492448,0.12109375,,
3.6639449999993667,1500,,,,0.0625,-0.02734375,-0.97265625,0.03760275208423278,2.010815943305541,15.064260058912199,1.024288096519094,2744,0,15.43014226121179,10.804424216454514,70.02154635744752,0.18611042134417347,0.13031739495755132,0.12109375,,
3.671644999999553,1500,,,,-0.0625,0.041015625,-0.9453125,0.03760275208423278,2.010815943305541,15.0641482882515,1.0244094820045713,2744,0,15.431856344807768,10.804815868983471,70.01630670712457,0.186103675221142,0.13030292003606578,0.12109375,,
3.6789599999990314,1500,,,,-0.09375,0.16015625,-0.9921875,0.03760275208423278,2.010815943305541,15.064227548124894,1.023673699474453,2743,0,15.42085354391398,10.802887687788804,70.05375971586403,0.1861368924142843,0.13039589135447907,0.12109375,,
3.6895099999997765,1500,,,,-0.0625,-0.11328125,-0.9375,0.03760275208423278,2.010815943305541,15.064085018620661,1.0232906434486824,2743,0,15.414937251669992,10.801972749299928,70.07471112559791,0.18615265840546222,0.1304459376302487,0.12109375,,
3.7059349999995903,1500,,,,-0.0625,0.111328125,-1.01171875,0.03843772799075654,2.010815943305541,15.064377087847657,1.0232291353893932,2742,0,15.414309542778142,11.037157331148752,71.60331963308627,0.1821860360394314,0.1304512497121638,0.123046875,,
3.714910000000149,1500,,,,0,-0.00390625,-0.953125,0.03843772799075654,2.010815943305541,15.064259316063676,1.023080526000258,2742,0,15.411950344882714,11.03791422762454,71.61919147559088,0.18217354310229014,0.13047121865229727,0.123046875,,
3.7232249999996276,1500,,,,-0.03125,0.17578125,-0.98828125,0.03843772799075654,2.010815943305541,15.064245177482794,1.0203222533142728,2742,0,15.370384583967914,11.038224768944843,71.81488991796776,0.18216841796543312,0.1308240488271792,0.123046875,,
3.732214999999851,1500,,,,-0.0625,-0.0703125,-0.99609375,0.03843772799075654,2.010815943305541,15.064157450000911,1.0195926418248378,2742,0,15.35930409131174,11.038337943281483,71.86743538416896,0.18216655022139722,0.13091842777193233,0.123046875,,
3.740290000000037,1500,,,,-0.0625,0.00390625,-0.978515625,0.03843772799075654,2.010815943305541,15.06414961336267,1.0196246543808056,2742,0,15.359778343065658,11.03607004347265,71.85045120429753,0.18220398523973214,0.13091438550695922,0.123046875,,
3.747964999999851,1500,,,,-0.09375,0.0078125,-0.982421875,0.03843772799075654,2.010815943305541,15.064142617386054,1.0196530864905797,2741,0,15.36019951515197,11.034110600227171,71.83572446010642,0.1822363411206103,0.13091079587358123,0.123046875,,
3.7552799999993294,1500,,,,-0.125,0.109375,-0.9296875,0.03843772799075654,2.010815943305541,15.064200385684256,1.019260349633966,2744,0,15.35434215206866,11.04349933802363,71.92427541765937,0.18208141113226176,0.13096073562712862,0.123046875,,
3.7633099999995903,1500,,,,-0.0625,-0.00390625,-1.00390625,0.03843772799075654,2.010815943305541,15.064279742292607,1.0210247837917261,2744,0,15.381002966852389,11.047046186012384,71.8226646846105,0.18202295070075908,0.13073373353084006,0.123046875,,
3.771054999999702,1500,,,,-0.03125,0.18359375,-0.986328125,0.03843772799075654,2.010815943305541,15.064364308851996,1.0206661688177807,2743,0,15.375687004791281,11.040095919924138,71.80229355920088,0.18213754281578362,0.13077893317410416,0.123046875,,
3.7791399999996647,1500,,,,-0.0625,0.0234375,-0.943359375,0.03843772799075654,2.010815943305541,15.064444573866172,1.0200062898598339,2742,0,15.36582821858834,11.03735859293166,71.83054786190797,0.18218271395053434,0.13086284154036146,0.123046875,,
3.787230000000447,1500,,,,0.0625,-0.0546875,-0.97265625,0.03843772799075654,2.010815943305541,15.064554903289467,1.0191556841253522,2742,0,15.353126758505907,11.036272164376038,71.88289615508936,0.18220064831277447,0.13097110282057126,0.123046875,,
3.7951100000003355,1500,,,,-0.03125,0.04296875,-0.990234375,0.03843772799075654,2.010815943305541,15.06452790774708,1.019525486827695,2742,0,15.35867014897524,11.035851390360747,71.85421187717273,0.18220759524379657,0.1309238315427789,0.123046875,,
3.8031699999989943,1500,,,,-0.0625,0.00390625,-0.8984375,0.03843772799075654,2.013445330173037,15.06450226041554,1.0185052343066818,2742,0,15.343274404458068,11.035685037594346,71.92522760583536,0.18244860407976493,0.13122657374804036,0.123046875,,
3.812320000000298,1500,,,,-0.0625,0.111328125,-1.025390625,0.03843772799075654,2.013445330173037,15.06454747627494,1.019306201921449,2742,0,15.355386671707159,11.03561497189938,71.86803698165993,0.18244976245546699,0.13112306275444569,0.123046875,,
3.8199900000002236,1500,,,,-0.0625,-0.04296875,-0.953125,0.03843772799075654,2.013445330173037,15.064618801626967,1.0199910085741286,2741,0,15.36577572525627,11.03217080225524,71.79703126944634,0.18250672204616702,0.13103440829632806,0.125,,
3.8282700000004843,1500,,,,-0.0625,-0.00390625,-0.978515625,0.03843772799075654,2.013445330173037,15.064786884856826,1.0200029746688362,2740,0,15.366127435306032,11.030805204989043,71.78650086972517,0.1825293161067145,0.13103140909445002,0.125,,
3.83675,1500,,,,-0.125,0.1328125,-1.0859375,0.03843772799075654,2.013445330173037,15.064549142838391,1.0167806405032762,2741,0,15.3173419263483,11.033713852180389,72.03412906256679,0.18248119872849128,0.1314487422070004,0.125,,
3.8480300000002607,1500,,,,0,-0.04296875,-0.927734375,0.03900937674186285,2.013445330173037,15.064158767701665,1.01720196104371,2741,0,15.32329183997993,11.199010109499449,73.08488428237177,0.17978779467884862,0.13139770169486464,0.125,,
3.8558749999990685,1500,,,,-0.03125,0.169921875,-1.017578125,0.03900937674186285,2.013445330173037,15.064215477308524,1.017406167754243,2742,0,15.32642573899262,11.199492304045972,73.07308628099022,0.1797800539088412,0.13137083390881826,0.125,,
3.862889999999665,1500,,,,-0.03125,-0.01953125,-0.9296875,0.03900937674186285,2.013445330173037,15.06420632446443,1.0164150362402644,2742,0,15.311485817211334,11.200410756901526,73.15038455844285,0.17976531163666312,0.13149901676490228,0.125,,
3.8744199999999256,1500,,,,-0.0625,0.02734375,-0.99609375,0.03900937674186285,2.013445330173037,15.064471493141063,1.0139529914739431,2742,0,15.27466593544432,11.201943500483537,73.33674954219343,0.1797407146435014,0.1318159977234532,0.125,,
3.8830949999997393,1500,,,,-0.08203125,0.015625,-0.970703125,0.03900937674186285,2.013445330173037,15.064286394626468,1.0155039715493719,2742,0,15.297842662300347,11.200523423222602,73.21635913294439,0.17976350337328525,0.1316162922197471,0.125,,
3.891415000000037,1500,,,,-0.0625,0.08984375,-0.96875,0.03900937674186285,2.013445330173037,15.064272671792832,1.0151066702959564,2742,0,15.291843672293991,11.200029155025208,73.24184967518077,0.17977143651181016,0.13166792528889304,0.126953125,,
3.9003100000005215,1500,,,,-0.03125,0.150390625,-0.998046875,0.03900937674186285,2.013445330173037,15.064147701451876,1.0161046073725337,2742,0,15.306749885585615,11.20165593486547,73.18115222758087,0.1797453288942871,0.13153970276009413,0.126953125,,
3.9086199999991806,1500,,,,-0.03125,-0.03515625,-0.97265625,0.03900937674186285,2.013445330173037,15.064074815877497,1.0152385227563168,2743,0,15.293629062762104,11.203948983747683,73.25892983129665,0.17970854143424936,0.13165255427016345,0.126953125,,
3.917195000000298,1500,,,,-0.03125,0.03515625,-0.986328125,0.03900937674186285,2.013445330173037,15.063925692801062,1.0143295787893727,2744,0,15.27978540289331,11.208559002729954,73.35547396239971,0.17963462829455976,0.1317718329860693,0.126953125,,
3.926129999999888,1500,,,,-0.0625,0.12109375,-1.01953125,0.03900937674186285,2.013445330173037,15.063830575068087,1.0133346693179812,2743,0,15.264701774448714,11.206658979066109,73.4155121053509,0.1796650842980166,0.13190204171189926,0.126953125,,
3.933489999999292,1500,,,,-0.03125,-0.037109375,-0.931640625,0.03900937674186285,2.013445330173037,15.06405558377068,1.0125363306577442,2743,0,15.252903565615465,11.204054714305812,73.45522553202952,0.17970684555852662,0.1320040687015117,0.126953125,,
3.9413449999997394,1500,,,,-0.03125,0.12890625,-1.001953125,0.03900937674186285,2.013445330173037,15.064052877390717,1.0129121289917473,2744,0,15.258561871282089,11.210088089330997,73.4675271752139,0.17961012564114442,0.1319551178648436,0.126953125,,
3.948924999999814,1500,,,,-0.0625,-0.078125,-0.96875,0.03900937674186285,2.0145504035970845,15.064050538713476,1.0117728017350582,2745,0,15.241396619032647,11.2123771493595,73.56528689344701,0.17967201573416253,0.13217623384207594,0.126953125,,
3.9563700000001116,1500,,,,-0.0625,-0.02734375,-0.970703125,0.03900937674186285,2.0145504035970845,15.06388047349353,1.0126749568340463,2743,0,15.254814508248293,11.205338687382453,73.45444076900257,0.17978487396061743,0.13205997375502765,0.126953125,,
3.9644749999996276,1500,,,,-0.125,0.13671875,-1.0546875,0.03900937674186285,2.0145504035970845,15.063886381068002,1.0136909029571157,2742,0,15.27012458766822,11.201910573249338,73.35834432088214,0.17983989342031714,0.13192756824158372,0.126953125,,
3.9722699999995528,1500,,,,0,-0.0390625,-0.9453125,0.03900937674186285,2.0145504035970845,15.06398951675499,1.0108345314973515,2743,0,15.227200785650044,11.204038012856648,73.57910472563819,0.17980574515057743,0.1322994575270575,0.126953125,,
3.981359999999404,1500,,,,0.03125,0.103515625,-1.013671875,0.03900937674186285,2.0145504035970845,15.064063514022893,1.0113513390255715,2743,0,15.235060806073308,11.20677458924037,73.55910640522615,0.1797618384803827,0.13223120204377548,0.126953125,,
3.9893649999992924,1500,,,,-0.0625,0.265625,-0.98828125,0.039280590481158034,2.0145504035970845,15.064255316206035,1.0081876312480773,2743,0,15.187595883762018,11.283293988931705,74.29282471885732,0.1785427558276199,0.13264445663523106,0.126953125,,
3.99975,1500,,,,-0.03125,-0.0078125,-0.91015625,0.039280590481158034,2.0145504035970845,15.0642428630792,1.0084585275153184,2743,0,15.191664175833994,11.281573163454278,74.26160184214933,0.1785699896999342,0.13260893476053223,0.126953125,,
4.0079049999993295,1500,,,,-0.0625,0.068359375,-1.01171875,0.039280590481158034,2.0145504035970845,15.064316202627044,1.0080828967248747,2743,0,15.186079514723735,11.284836541312515,74.31040072173498,0.17851835037415406,0.13265770152486478,0.12890625,,
4.015794999998994,1500,,,,-0.0625,-0.015625,-0.98046875,0.039280590481158034,2.0145504035970845,15.06449217191216,1.0082485419945257,2744,0,15.188752268218382,11.285667637522211,74.30279616276869,0.1785052039720871,0.13263435784731437,0.12890625,,
4.023424999999814,1500,,,,0,-0.0625,-0.98828125,0.039280590481158034,2.0145504035970845,15.064368920764634,1.0085190704493383,2743,0,15.19270334087545,11.284250778795109,74.27414677699403,0.17852761721520255,0.13259986444788963,0.12890625,,
4.030879999998957,1500,,,,-0.09375,0.1953125,-1.0078125,0.039280590481158034,2.0145504035970845,15.064528553913819,1.0087478867154744,2743,0,15.196311343125487,11.283730629713562,74.2530892855002,0.17853584684945853,0.13256838176775232,0.12890625,,
4.038334999999031,1500,,,,0,-0.0703125,-0.90625,0.039280590481158034,2.0145504035970845,15.064448781567078,1.0101696133737386,2742,0,15.217648401364102,11.278647146030156,74.11557192384038,0.1786163160806182,0.13238250421244463,0.12890625,,
4.045994999999181,1500,,,,-0.03125,0.021484375,-0.974609375,0.039280590481158034,2.0145504035970845,15.064427146084666,1.0109709996543104,2741,0,15.229698971096745,11.276262152566535,74.04126748642157,0.17865409444552183,0.13227775594385302,0.12890625,,
4.053599999999627,1500,,,,-0.0625,0.107421875,-0.974609375,0.039280590481158034,2.0145504035970845,15.06440633980036,1.0101520272560371,2741,0,15.217340603558032,11.275305765467628,74.09511332638044,0.17866924813400248,0.132385181884281,0.130859375,,
4.060579999999143,1500,,,,-0.0625,0.015625,-0.953125,0.039280590481158034,2.0145504035970845,15.064388766060421,1.0104005041034294,2742,0,15.221066003237489,11.278215457009782,74.09609454824603,0.1786231528628029,0.13235278023028046,0.12890625,,
4.067629999999888,1500,,,,-0.03125,0.06640625,-0.986328125,0.039280590481158034,2.0145504035970845,15.064371970573339,1.0085700287777346,2744,0,15.19347407187965,11.28601300826618,74.28197761007492,0.1784997414163508,0.13259313795293534,0.12890625,,
4.075484999999404,1500,,,,-0.0625,0.12109375,-0.8984375,0.039280590481158034,2.0145504035970845,15.064267868877536,1.008510418284495,2745,0,15.192471089591363,11.289427428033106,74.30935600573693,0.17844575523774536,0.13260189153674212,0.12890625,,
4.083474999999628,1500,,,,-0.09375,-0.046875,-0.970703125,0.039280590481158034,2.0145504035970845,15.064254657539342,1.0078008448640605,2744,0,15.181768571115507,11.28572020674083,74.3373221234105,0.1785043724895658,0.1326953703819411,0.130859375,,
4.091329999999143,1500,,,,-0.0625,-0.02734375,-0.9453125,0.039280590481158034,2.0145504035970845,15.064370876711449,1.008190141174038,2743,0,15.18775020088978,11.28429248312958,74.29864419595526,0.17852695741526634,0.13264310888383332,0.12890625,,
4.099299999999814,1500,,,,-0.09375,0.04296875,-1,0.039280590481158034,2.029554555424039,15.064452230321788,1.0104170700915605,2743,0,15.221379685096014,11.283709285784033,74.13066042122618,0.179865902605361,0.13333578147395359,0.130859375,,
4.107105000000447,1500,,,,-0.0625,0.02734375,-0.90234375,0.039280590481158034,2.029554555424039,15.064495174443884,1.0113175045152543,2743,0,15.234987666600679,11.283485448921413,74.06297724584276,0.17986947070668166,0.13321668516170745,0.130859375,,
4.114459999999963,1500,,,,0,0.115234375,-1.001953125,0.039280590481158034,2.029554555424039,15.06464557290068,1.0125370226040222,2743,0,15.253511374969719,11.281779513751752,73.96185203798132,0.17989666904499813,0.13305490818031843,0.130859375,,
4.122384999999777,1500,,,,0,0.1171875,-0.99609375,0.039280590481158034,2.029554555424039,15.064614381184388,1.0129088854303445,2742,0,15.259081762283417,11.28098090407609,73.92961830743849,0.17990940439325728,0.1330063359671211,0.130859375,,
4.130129999999888,1500,,,,-0.03125,0.001953125,-0.927734375,0.039280590481158034,2.029554555424039,15.06458426667794,1.0135885535042168,2742,0,15.269290176004477,11.278909515680546,73.86662631773957,0.17994244502116474,0.13291741345078775,0.130859375,,
4.138449999999255,1500,,,,-0.09375,0.09765625,-1.021484375,0.039280590481158034,2.029554555424039,15.064457463140876,1.0158300934796525,2742,0,15.302929233002644,11.278094376731095,73.69892525156885,0.1799554505955727,0.13262523302055498,0.12890625,,
4.14631500000041,1500,,,,0.0625,-0.14453125,-0.94921875,0.03932630705131754,2.029554555424039,15.064500466722917,1.0158331043731679,2741,0,15.303018274942177,11.287401515863259,73.7593154047639,0.17980706653978,0.13262446132913,0.130859375,,
