Time (s),ESC signal (µs),Servo 1 (µs),Servo 2 (µs),Servo 3 (µs),AccX (g),AccY (g),AccZ (g),Torque (N·m),Thrust (N),Voltage (V),Current (A),Motor Electrical Speed (RPM),Motor Optical Speed (RPM),Electrical Power (W),Mechanical Power (W),Motor Efficiency (%),Propeller Mech. Efficiency (N/W),Overall Efficiency (N/W),Vibration (g),App message,90% settling time (s),Max acceleration (RPM/s),
0,1000,,,,-0.0625,0.05078125,-0.95703125,0.02994930421359891,0.09988400191124606,22.969756860776815,0.06784414766739633,0,0,1.558363576346732,0,0,0,0,0.07421875,,
0,1200,,,,-0.0625,0.046875,-0.95703125,0.02994930421359891,0.09988400191124606,22.969786631511443,0.06804116128226928,0,0,1.5628909568139828,0,0,0,0,0.07421875,,
0.008165000000502914,1200,,,,-0.0625,0.046875,-0.955078125,0.02994930421359891,0.09988400191124606,22.9698523526695,0.06866054851086799,0,0,1.5771226617479392,0,0,0,0,0.07421875,,
0.016365000000223517,1200,,,,-0.0625,0.046875,-0.953125,0.02994930421359891,0.09988400191124606,22.969761307025447,0.0683922843793365,0,0,1.5709544474355646,0,0,0,0,0.07421875,,
0.024055000000167637,1200,,,,-0.0625,0.05078125,-0.95703125,0.02994930421359891,0.09988400191124606,22.969675368320353,0.0689865608950744,0,0,1.5845989085367227,0,0,0,0,0.072265625,,
0.0331750000002794,1200,,,,-0.0625,0.05078125,-0.955078125,0.02994930421359891,0.09988400191124606,22.969693336879427,0.06866750022016428,0,0,1.5772714222672741,0,0,0,0,0.072265625,,
0.04020000000018627,1200,,,,-0.1875,0.08984375,-0.953125,0.029433578709708932,0.09988400191124606,22.96827091620534,0.11300710437643643,3,0,2.5955777887738862,0.009463256138642025,0.3645915055819742,0,0.03848237658037205,0.07421875,,
0.04758000000007451,1200,,,,1.5,-0.15625,-1.23828125,0.029433578709708932,0.09988400191124606,22.96546875895145,0.19668685733517124,5,0,4.5170058774272155,0.014896775834410483,0.32979314702365076,0,0.022112878446848012,0.0859375,,
0.055020000000484286,1200,,,,-0.34375,0.0546875,-0.841796875,0.029433578709708932,0.09988400191124606,22.962915257469547,0.27001863571803225,6,0,6.200415049930714,0.017206979877396847,0.2775133557807412,0,0.01610924447910341,0.10546875,,
0.06321500000031664,1200,,,,-0.875,0.04296875,-0.81640625,0.029433578709708932,0.09988400191124606,22.96182980051623,0.335582838683014,6,0,7.7055960258134615,0.01822892053664868,0.2365673009016106,0,0.01296252769761591,0.115234375,,
0.07126500000013039,1200,,,,0.15625,0.16015625,-1.14453125,0.029433578709708932,0.09988400191124606,22.960425496536406,0.38354759539576844,6,0,8.80641598846023,0.018652407561068084,0.21180475218874356,0,0.01134218529332844,0.1171875,,
0.08040500000026077,1200,,,,-0.125,-0.169921875,-0.88671875,0.029433578709708932,0.09988400191124606,22.959301015226433,0.410475452835926,6,0,9.424229481021406,0.018828405265630836,0.19978721128923738,0,0.010598638553145733,0.123046875,,
0.0882550000003539,1200,,,,-0.1875,0.4609375,-1.07421875,0.029433578709708932,0.09988400191124606,22.957648314161936,0.44882463352251384,6,0,10.303958091142489,0.018887578641339418,0.18330410968553532,0,0.009693750792436607,0.126953125,,
0.09668000000016763,1200,,,,0.0625,-0.328125,-0.892578125,0.029433578709708932,0.09988400191124606,22.95521346464294,0.5234189145465672,6,0,12.015192914848152,0.018911145721573475,0.15739360870522048,0,0.008313141754703855,0.12890625,,
0.108875,1200,,,,-0.125,0.255859375,-1.076171875,0.029433578709708932,0.09988400191124606,22.954743795186715,0.5435694339463282,6,0,12.477497091132632,0.01892100459307632,0.1516410258794842,0,0.008005131252022533,0.13671875,,
0.11899000000022351,1200,,,,-0.041015625,-0.017578125,-0.93359375,0.029433578709708932,0.10148111020736994,22.954961965781354,0.5502688611050608,343,0,12.631400777620494,1.057549155985651,8.372382244884106,0.09595876431179987,0.008034034545651315,0.13671875,,
0.12692000000039116,1200,,,,0.125,0.2421875,-1.0859375,0.029433578709708932,0.10148111020736994,22.955354555074667,0.5488179329245954,497,0,12.598310236467272,1.533426781029635,12.171686140820322,0.06617929950279688,0.0080551366256739,0.138671875,,
0.14318500000005588,1200,,,,-0.09375,0.10546875,-1.025390625,0.029433578709708932,0.10148111020736994,22.955802946655027,0.5274972982080967,583,0,12.10912403255799,1.7970354353041336,14.840342129392816,0.056471401850901784,0.008380549239938091,0.138671875,,
0.15084000000031664,1200,,,,0.125,-0.03515625,-0.9921875,0.029433578709708932,0.10148111020736994,22.956135296971276,0.5152097245341593,592,0,11.82722414272146,1.8260287582026848,15.439199732478503,0.05557476011892349,0.008580298215606404,0.140625,,
0.15828000000026077,1200,,,,-0.09375,0.048828125,-0.96484375,0.029433578709708932,0.10148111020736994,22.956480063715798,0.5035297985728854,596,0,11.559271782425276,1.8369656234196505,15.891707176680233,0.055243880948874356,0.008779195793428951,0.138671875,,
0.16708000000054016,1200,,,,-0.03125,0.060546875,-0.94140625,0.029433578709708932,0.10148111020736994,22.956888974153383,0.4887918710846917,636,0,11.22114071595996,1.9608292068073672,17.47441954825909,0.0517541812693631,0.009043742768775028,0.138671875,,
0.17541500000050292,1200,,,,0.0625,-0.12109375,-0.94921875,0.029433578709708932,0.10148111020736994,22.957172022890518,0.47496931133962017,723,0,10.903952186017504,2.2280953066082394,20.433832326093647,0.04554612628391175,0.009306819075885393,0.140625,,
0.18422500000009312,1200,,,,-0.09375,0.123046875,-1.052734375,0.029433578709708932,0.10148111020736994,22.95776849309274,0.4601770955804402,759,0,10.564639226159557,2.340201699979834,22.151269436491123,0.04336425796470639,0.009605733620897172,0.140625,,
0.19220000000018628,1200,,,,0.0625,-0.01953125,-0.96875,0.0292144260825999,0.10148111020736994,22.958143719982726,0.44607297002796686,772,0,10.24100735550161,2.3605364114924363,23.04984587501857,0.042990698941690574,0.009909289846652916,0.140625,,
0.2003000000002794,1200,,,,-0.0625,0.060546875,-0.9609375,0.0292144260825999,0.10148111020736994,22.958428164590487,0.4331699687874248,776,0,9.944901611463996,2.3751318116035884,23.882909096512858,0.04272651720278808,0.010204335263647805,0.138671875,,
0.20843999999994411,1200,,,,-0.0625,0.015625,-0.990234375,0.0292144260825999,0.10148111020736994,22.958898472428896,0.4205369277449645,778,0,9.655064628003807,2.380966690590456,24.660287448357792,0.042621810127971026,0.01051066089325093,0.138671875,,
0.219160000000149,1200,,,,-0.03125,0.0390625,-1,0.0292144260825999,0.10148111020736994,22.95963089186327,0.4033799679048432,796,0,9.261455172266853,2.4346223677517447,26.287687220493684,0.04168248495189947,0.01095736126988468,0.138671875,,
0.22633499999996276,1200,,,,-0.03125,0.05078125,-0.974609375,0.0292144260825999,0.10148111020736994,22.960065307427367,0.3922398001364841,827,0,9.005851427305933,2.5294425416486894,28.086656348553184,0.04011995075453448,0.01126835269563487,0.138671875,,
0.23519500000029803,1200,,,,-0.125,0.07421875,-0.96484375,0.0292144260825999,0.10148111020736994,22.96040797508582,0.3807931471922601,841,0,8.743166013651196,2.5729057122624126,29.427620478041828,0.03944221885928939,0.01160690647403032,0.13671875,,
0.24336499999975786,1200,,,,-0.03125,0.08203125,-0.9765625,0.0292144260825999,0.10148111020736994,22.960671509076178,0.3695070152591859,846,0,8.484129197665366,2.5885004150589292,30.509912741206534,0.039204594914101894,0.011961287698835983,0.13671875,,
0.2511500000003725,1200,,,,-0.03125,0.0234375,-0.962890625,0.0292144260825999,0.10148111020736994,22.961158726305186,0.3600712087064078,848,0,8.267652175880391,2.594958077876826,31.38688012840234,0.03910703262320175,0.01227447745121953,0.13671875,,
0.26302000000001863,1200,,,,0.1875,0.10546875,-1.1640625,0.0292144260825999,0.21103809130637832,22.95897853642513,0.5189828000012537,849,0,11.9153149660026,2.597697181125719,21.801330376390425,0.08124045128883128,0.017711499184748642,0.13671875,,
0.27156000000052155,1200,,,,-0.0625,-0.041015625,-0.89453125,0.0292144260825999,0.21103809130637832,22.952732991903996,0.7546919696719654,881,0,17.32224327101473,2.6941871571549876,15.553338646751167,0.07833089499588837,0.012183069363741581,0.142578125,,
0.2805800000000745,1200,,,,-0.25,0.07421875,-0.8203125,0.0292144260825999,0.21103809130637832,22.94971641574699,0.834926640753349,888,0,19.161329633241625,2.7175134762751165,14.182280292076893,0.07765852613016194,0.011013749846475341,0.14453125,,
0.28908499999996273,1200,,,,0.125,-0.021484375,-0.958984375,0.0292144260825999,0.21103809130637832,22.947840207775155,0.8847011702746178,891,0,20.30198108709361,2.727153038869065,13.432940495658194,0.07738402953502553,0.010394950640582542,0.146484375,,
0.29608499999996274,1200,,,,0,0.162109375,-1.048828125,0.0292144260825999,0.21103809130637832,22.946821784216244,0.9094219504454836,961,0,20.86834342352685,2.9410936364825373,14.093565439251712,0.07175497192220434,0.01011283392377256,0.146484375,,
0.3034600000004284,1200,,,,-0.25,-0.06640625,-0.97265625,0.0292144260825999,0.21103809130637832,22.945919581657908,0.9227442989735127,1141,0,21.173216478679524,3.4912537382106223,16.489009790865538,0.060447652084589534,0.009967219270576306,0.1484375,,
0.3117800000002608,1200,,,,0,-0.029296875,-0.984375,0.0292144260825999,0.21103809130637832,22.94548570310136,0.9315592521825999,1210,0,21.375079502547642,3.701239963031261,17.31567811287027,0.057018213737631114,0.00987309035651658,0.1484375,,
0.31950000000046563,1200,,,,0,-0.017578125,-0.9296875,0.0292144260825999,0.21103809130637832,22.945188604634676,0.93460062802835,1243,0,21.44458768012051,3.8029319488630424,17.73376110368596,0.05549352293024126,0.009841088784468174,0.146484375,,
0.3285800000000745,1200,,,,-0.0625,0.05078125,-0.90625,0.0292144260825999,0.21103809130637832,22.945015671600846,0.9304597387464306,1326,0,21.349413287330478,4.057418341902551,19.00482363283665,0.05201289921892085,0.009884959762880981,0.146484375,,
0.3357700000004843,1200,,,,0,0.095703125,-1.021484375,0.04799435399296738,0.21103809130637832,22.944734957578437,0.9227261495916101,1447,0,21.171706940806367,7.272230318675375,34.34881438236268,0.029019720506434477,0.009967929931035617,0.146484375,,
0.34384000000031667,1200,,,,-0.0625,-0.076171875,-0.927734375,0.04799435399296738,0.21103809130637832,22.944795423961605,0.9130863051763376,1486,0,20.95057847669204,7.469406951596973,35.652509356277896,0.028253660923007816,0.010073139104066393,0.146484375,,
0.3522550000003539,1200,,,,-0.125,0.1171875,-0.9765625,0.04799435399296738,0.21103809130637832,22.944888912236962,0.8999130980380071,1502,0,20.648406065149082,7.550831851370319,36.568594338692364,0.027948985682693932,0.010220551196083552,0.146484375,,
0.36140000000037253,1200,,,,-0.03125,0.02734375,-1.03515625,0.04799435399296738,0.21103809130637832,22.94520194864769,0.8851466040855628,1566,0,20.30986758490294,7.869952059299886,38.74940112928115,0.02681567685752235,0.01039091419105315,0.146484375,,
0.3705500000002794,1200,,,,-0.03125,0.146484375,-1.01171875,0.04799435399296738,0.21103809130637832,22.945429373562988,0.8673934625283313,1589,0,19.90271543353408,7.986566283231661,40.12802328357214,0.02642413320346031,0.01060348232436667,0.146484375,,
0.37851000000024215,1200,,,,0,0.1640625,-0.9765625,0.04799435399296738,0.21103809130637832,22.945812972656338,0.8522712901621199,1603,0,19.556057626024526,8.058526109559137,41.2073141921771,0.026188174914025773,0.010791443518019509,0.14453125,,
0.3875,1200,,,,0,-0.091796875,-0.92578125,0.04799435399296738,0.21103809130637832,22.946231648831816,0.8351708732895134,1630,0,19.16402432485834,8.194545720821539,42.760046543001415,0.02575348268179787,0.011012201181180578,0.146484375,,
0.39635499999998136,1200,,,,-0.09375,0.17578125,-1.021484375,0.04799435399296738,0.21103809130637832,22.94687676380539,0.8174786201774787,1640,0,18.758581154258277,8.242429960189641,43.9395170264174,0.025603868316221978,0.011250216078227845,0.14453125,,
0.40425,1200,,,,0,0.08203125,-0.98046875,0.04799435399296738,0.21103809130637832,22.947324256370305,0.798035750931551,1648,0,18.31278514480227,8.28077316236243,45.21853501193272,0.02548531244227092,0.011524084929608724,0.146484375,,
0.4140950000002049,1200,,,,-0.125,0.0703125,-0.97265625,0.04799435399296738,0.30733379907685227,22.947844965368475,0.7822095143844721,1659,0,17.950022666531027,8.339842229382164,46.461457928587116,0.03685127255694144,0.017121638495192316,0.146484375,,
0.4308150000004098,1200,,,,0,0.05078125,-1.009765625,0.04799435399296738,0.30733379907685227,22.949004639534177,0.7439114868442789,1666,0,17.072028162992122,8.373637383425317,49.04887283150847,0.036702544545956256,0.01800218440027383,0.146484375,,
0.43869499999983236,1200,,,,0.03125,0.146484375,-1.037109375,0.04799435399296738,0.30733379907685227,22.949156623909882,0.7295219796718708,1672,0,16.741914172074566,8.404190598209393,50.198504853331194,0.036569113406629924,0.01835714816824731,0.146484375,,
0.44778000000026075,1200,,,,-0.0625,0.015625,-0.953125,0.04799435399296738,0.30733379907685227,22.94973401132791,0.716583453065554,1675,0,16.445399644773342,8.416196297978646,51.17659941242883,0.036516947584821186,0.01868813198313054,0.146484375,,
0.45572500000009314,1200,,,,-0.125,-0.078125,-0.9375,0.04799435399296738,0.30733379907685227,22.950183172318013,0.702385439559197,1676,0,16.119874495452674,8.42563101481746,52.26858941857322,0.036476057227805225,0.019065520588485315,0.146484375,,
0.4634700000002049,1200,,,,-0.03125,0.017578125,-0.92578125,0.04799435399296738,0.30733379907685227,22.950658508700407,0.6894056257754655,1679,0,15.822313091149615,8.43927045416353,53.337779410294495,0.03641710509766025,0.01942407518460514,0.146484375,,
0.4715800000000745,1200,,,,-0.0625,0.228515625,-1.072265625,0.04799435399296738,0.30733379907685227,22.950920055064902,0.677342026867998,1680,0,15.545622708583046,8.444737932840292,54.32228795941243,0.036393527131455224,0.019769796606935997,0.1484375,,
0.48059000000031665,1200,,,,-0.125,0.1796875,-0.98828125,0.04799435399296738,0.30733379907685227,22.951563314959714,0.6602307081911553,1681,0,15.15332690152999,8.44702718870401,55.743713862934854,0.03638366400523036,0.020281605555927236,0.1484375,,
0.4882050000000745,1200,,,,0.03125,-0.142578125,-0.94921875,0.05839994135470602,0.30733379907685227,22.9519778785832,0.6472185762881598,1684,0,14.854946445573958,10.29896759151057,69.33022363456016,0.029841224020375333,0.0206889873486163,0.1484375,,
0.4962600000002421,1200,,,,-0.09375,-0.02734375,-0.919921875,0.05839994135470602,0.30733379907685227,22.952174597160788,0.6348905169624405,1685,0,14.572117995403607,10.307052095585556,70.73132470404539,0.029817817570601136,0.02109053736552179,0.150390625,,
0.5045200000000186,1200,,,,-0.1875,0.1328125,-0.94140625,0.05839994135470602,0.30733379907685227,22.952361240357412,0.6238432217036775,1686,0,14.318674981891181,10.310240969768158,72.0055520696399,0.02980859516067772,0.021463843509649957,0.150390625,,
0.5125750000001863,1200,,,,0.03125,0.173828125,-1.03125,0.05839994135470602,0.30733379907685227,22.95263846369359,0.6129175975011475,1686,0,14.068076023479504,10.310527093830403,73.2902429345862,0.029807767952111215,0.02184618554548004,0.150390625,,
0.5204300000001676,1200,,,,0.03125,-0.0703125,-0.951171875,0.05839994135470602,0.30733379907685227,22.952871574940314,0.6029735204275022,1686,0,13.839973777462108,10.310640227144422,74.49898672449021,0.029807440886914716,0.02220624142925286,0.150390625,,
0.5286700000003911,1200,,,,-0.25,-0.140625,-0.87890625,0.05839994135470602,0.30733379907685227,22.953089517672286,0.5941004049080121,1686,0,13.636439776338953,10.3106840225296,75.61126064898563,0.0298073142776275,0.022537686090919235,0.15234375,,
0.536505000000354,1200,,,,-0.0625,0.0234375,-1.005859375,0.05839994135470602,0.30733379907685227,22.95323188423692,0.5853373155479666,1687,0,13.435383134269236,10.314627242880524,76.77211092381361,0.0297959191195187,0.022874956077206687,0.15234375,,
0.5445100000002422,1200,,,,-0.0625,0.23828125,-1.01171875,0.05839994135470602,0.30733379907685227,22.95362319638314,0.576994423537995,1687,0,13.24411258430544,10.31617645800849,77.8925457809335,0.02979144456551708,0.023205314596996818,0.15234375,,
0.5538050000001676,1200,,,,-0.0625,0.1484375,-0.98046875,0.05839994135470602,0.30733379907685227,22.954199446229463,0.5679859195563,1687,0,13.037662080145353,10.316840768963825,79.13106433917335,0.029789526266742937,0.023572769196471298,0.15234375,,
0.5616899999999441,1200,,,,0.1875,-0.08203125,-0.95703125,0.05839994135470602,0.6011611168393347,22.95448345102382,0.560166447670813,1687,0,12.858331452878478,10.320011767194199,80.25933850759425,0.05825197978459071,0.04675265364269003,0.154296875,,
0.5741000000000931,1200,,,,-0.08203125,-0.0625,-0.978515625,0.05839994135470602,0.6011611168393347,22.954676227496332,0.5529057128607191,1688,0,12.691771623050862,10.321339084910887,81.32307601694643,0.058244488616616845,0.04736620975337302,0.154296875,,
0.5824600000004284,1200,,,,-0.03125,0.18359375,-1.076171875,0.05839994135470602,0.6011611168393347,22.95491636198655,0.5436312929983101,1688,0,12.479010862534814,10.322754470673448,82.72093505155125,0.05823650252916608,0.048173779433446466,0.154296875,,
0.5981750000002793,1200,,,,-0.125,-0.08203125,-0.859375,0.05839994135470602,0.6011611168393347,22.95545152928246,0.5311241104384238,1689,0,12.1921937732025,10.326301868278527,84.69601172985735,0.058216496525832516,0.0493070507262311,0.15625,,
0.605785000000149,1200,,,,0.03125,-0.0703125,-0.9609375,0.05839994135470602,0.6011611168393347,22.95547896649356,0.5249954697517387,1689,0,12.051522463390443,10.326706573337148,85.68798344530444,0.0582142150132833,0.04988258692339612,0.15625,,
0.6136400000001304,1200,,,,-0.25,0.23046875,-1.046875,0.05839994135470602,0.6011611168393347,22.95558872268073,0.5187796282210959,1688,0,11.908891783148691,10.322242735007324,86.67676995447631,0.05823938966291982,0.05048002180102006,0.158203125,,
0.6212550000003539,1200,,,,-0.03125,0.12109375,-1.076171875,0.05839994135470602,0.6011611168393347,22.95567355948414,0.5146740694385856,1688,0,11.814689927563444,10.320187163745366,87.35046985590851,0.05825098976413945,0.050882513254692986,0.158203125,,
0.6295600000000559,1200,,,,0,-0.072265625,-0.88671875,0.05839994135470602,0.6011611168393347,22.955888372386323,0.5103608583072692,1687,0,11.715786892936944,10.319360928329962,88.08081798202697,0.058255653718725375,0.051312056316230426,0.158203125,,
0.6385700000002981,1200,,,,-0.1875,0.12109375,-0.8671875,0.06170216212535297,0.6011611168393347,22.955967216535733,0.5043173465322635,1687,0,11.57709247372493,10.90360831340406,94.18261396935895,0.055134144547389255,0.051926778524376,0.16015625,,
0.6465450000003912,1200,,,,-0.03125,0.0625,-0.984375,0.06170216212535297,0.6011611168393347,22.955968882105385,0.5002570339577984,1688,0,11.483884904589557,10.90386100500695,94.94923621752079,0.05513286684077201,0.052348235970135805,0.16015625,,
0.6550400000005029,1200,,,,0,0.068359375,-1.052734375,0.06170216212535297,0.6011611168393347,22.9561156009696,0.49407127221032776,1688,0,11.341957239978402,10.903966444634333,96.13831381941532,0.0551323337146875,0.05300329600259359,0.16015625,,
0.6637099999999627,1200,,,,-0.125,0.08984375,-0.96484375,0.06170216212535297,0.6011611168393347,22.956313799794845,0.48947214917767035,1688,0,11.236476252782595,10.908252647272457,97.07894540845172,0.05511067045093161,0.05350085768129163,0.16015625,,
0.6726250000004657,1200,,,,-0.125,-0.041015625,-0.865234375,0.06170216212535297,0.6011611168393347,22.956369055649517,0.48319572828224905,1688,0,11.092419464560654,10.90993973206826,98.35491496624877,0.05510214827972923,0.054195671085104,0.16015625,,
0.6809500000001862,1200,,,,0,0.0390625,-0.984375,0.06170216212535297,0.6011611168393347,22.95654457275544,0.4852372340816885,1689,0,11.139370192556848,10.910517724019877,97.94555289409553,0.05509922920668173,0.05396724468686938,0.16015625,,
0.6886500000003726,1200,,,,0.03125,0.158203125,-1.052734375,0.06170216212535297,0.6011611168393347,22.956583549770876,0.48229710705191253,1687,0,11.071893833850018,10.901365710060174,98.4598107031293,0.05514548661408189,0.05429614173154454,0.162109375,,
0.6966350000002421,1200,,,,-0.125,-0.05859375,-0.94140625,0.06170216212535297,0.6011611168393347,22.956456422421756,0.48057313559157866,1687,0,11.032256244994658,10.897772025157026,98.78099078872785,0.055163671569893435,0.054491221332180526,0.162109375,,
0.7045950000002049,1200,,,,-0.09375,-0.115234375,-0.849609375,0.06170216212535297,0.7243538374201286,22.956499512988298,0.4765981937413482,1686,0,10.941026202514363,10.896363587590201,99.59178769799584,0.06647665816191105,0.06620529226533288,0.162109375,,
0.7134250000002794,1200,,,,-0.03125,0.103515625,-1.009765625,0.06170216212535297,0.7243538374201286,22.956581463412363,0.47180191697319024,1688,0,10.830959141589158,10.904566623885897,100.67960262184073,0.06642665063217354,0.06687808789147077,0.162109375,,
0.723605000000447,1200,,,,-0.125,0.30859375,-1.0390625,0.06170216212535297,0.7243538374201286,22.956817247939583,0.4686473422354352,1689,0,10.758651389431483,10.911571771861228,101.42137129361737,0.06638400521619561,0.06732756840989207,0.1640625,,
0.7313850000002421,1200,,,,-0.0625,0.140625,-1.025390625,0.06170216212535297,0.7243538374201286,22.956929311579685,0.4628959546661937,1689,0,10.626669709888004,10.914582889677883,102.70934533254552,0.06636569118048138,0.06816376693689133,0.1640625,,
0.7390049999998882,1200,,,,0,-0.166015625,-0.931640625,0.06170216212535297,0.7243538374201286,22.957208156691397,0.46002965163498266,1688,0,10.560996470834526,10.908219765103292,103.28778913266059,0.0664044044783021,0.0685876412723477,0.166015625,,
0.7463950000004843,1200,,,,-0.0625,-0.015625,-0.96484375,0.06170216212535297,0.7243538374201286,22.95724282627115,0.45804682469962404,1688,0,10.515492180431723,10.905836153180465,103.71208466566246,0.06641891802206157,0.06888444449305745,0.166015625,,
0.756160000000149,1200,,,,-0.09375,0.169921875,-1.025390625,0.06170216212535297,0.7243538374201286,22.957394184117135,0.45555383192834153,1688,0,10.458328891663983,10.904675818662518,104.2678608755009,0.06642598546400182,0.06926095410878587,0.166015625,,
0.7648349999999627,1200,,,,0,0.154296875,-0.9765625,0.06170216212535297,0.7243538374201286,22.95739075256696,0.45233415496986273,1687,0,10.384411946375316,10.899001609701234,104.95540494717697,0.06646056798224335,0.06975395825595734,0.166015625,,
0.7732999999998137,1200,,,,0.0625,-0.0703125,-0.94921875,0.06170216212535297,0.7243538374201286,22.957457438427532,0.45116719333160954,1686,0,10.357651638525232,10.894636134253291,105.18442321163563,0.06648719869980083,0.0699341764619596,0.166015625,,
0.780875,1200,,,,-0.09375,-0.123046875,-0.888671875,0.06170216212535297,0.7243538374201286,22.95765294742004,0.4515619306213558,1686,0,10.366802087472053,10.8931613345592,105.07735406392331,0.06649620024648611,0.06987244777205566,0.166015625,,
0.7885850000004284,1200,,,,-0.09375,0.083984375,-1.009765625,0.06170216212535297,0.7243538374201286,22.95757100833754,0.4487673949806622,1687,0,10.30260933649521,10.897688445020734,105.77600381698993,0.06646857643935428,0.07030780395159025,0.166015625,,
0.7965150000001304,1200,,,,0.0625,0.17578125,-1.00390625,0.05989775747683299,0.7243538374201286,22.95759210755175,0.4483761690685219,1687,0,10.293637200221788,10.580707517274426,102.78881323937135,0.06845986775813656,0.07036908561383158,0.166015625,,
0.8049200000003911,1200,,,,-0.0625,0.140625,-0.96875,0.05989775747683299,0.7243538374201286,22.95771003038297,0.44556038927557795,1687,0,10.229046218013277,10.581379499065356,103.44443923258086,0.06845552014121695,0.07081342893382832,0.166015625,,
0.8139400000004098,1200,,,,-0.0625,-0.099609375,-0.92578125,0.05989775747683299,0.7243538374201286,22.957983546479486,0.4444598738183216,1687,0,10.203902470191375,10.583089799021806,103.71610106954815,0.06844445725926662,0.07098792246752465,0.166015625,,
0.8338549999999814,1200,,,,-0.08203125,0.11328125,-1.052734375,0.05989775747683299,0.7243538374201286,22.958130729120718,0.4403076467965823,1688,0,10.108640516187448,10.58492601552572,104.71166719773618,0.06843258387991219,0.0716568994871453,0.16796875,,
0.8413100000000558,1200,,,,0,0.037109375,-0.947265625,0.05989775747683299,0.7243538374201286,22.958221781975688,0.4387470644714148,1687,0,10.072852412325528,10.582046460373238,105.05511276452975,0.06845120555202891,0.07191149118136403,0.166015625,,
0.8495200000004843,1200,,,,-0.25,-0.03515625,-0.859375,0.05989775747683299,0.7243538374201286,22.958369775243984,0.43708967245921804,1687,0,10.034866325259005,10.580917755532464,105.4415416466384,0.06845850749018291,0.07218370568592827,0.16796875,,
0.8576850000000559,1200,,,,0,0.0390625,-1.00390625,0.05989775747683299,1.0399451821922567,22.958547032572657,0.435046841601454,1687,0,9.988043374279169,10.580455183758835,105.93120982038606,0.09828926677829411,0.10411900942183373,0.16796875,,
0.8686349999997764,1200,,,,0,0.12109375,-1.08203125,0.05989775747683299,1.0399451821922567,22.958554552389923,0.43340378685700054,1687,0,9.950324483768823,10.580250493186895,106.33070821404489,0.098291168329325,0.10451369539643025,0.16796875,,
0.8795900000003166,1200,,,,-0.01953125,0.01171875,-0.984375,0.05989775747683299,1.0399451821922567,22.958479450899375,0.43212273421030134,1687,0,9.920880913633656,10.580183808719585,106.64560839733386,0.09829178783597249,0.10482387514228944,0.16796875,,
0.8887650000001304,1200,,,,-0.09375,0.044921875,-0.90625,0.05989775747683299,1.0399451821922567,22.95864498392852,0.4290614917964381,1687,0,9.85067046642918,10.583635685568336,107.44076478486495,0.09825972974582904,0.10557100511446017,0.169921875,,
0.897785000000149,1200,,,,-0.03125,0.115234375,-1.03515625,0.05989775747683299,1.0399451821922567,22.95872044214065,0.42790415230254675,1688,0,9.824131808745346,10.591074084775563,107.80671809948126,0.09819071926681687,0.1058561919198303,0.16796875,,
0.9053650000002235,1200,,,,0.0625,-0.02734375,-1.0703125,0.05989775747683299,1.0399451821922567,22.95871780870509,0.4248626401466815,1689,0,9.754301462589078,10.59352948011433,108.60367111621439,0.09816796037094082,0.10661400882275222,0.16796875,,
0.9128350000004284,1200,,,,-0.09375,0.017578125,-0.939453125,0.05989775747683299,1.0399451821922567,22.958862841326724,0.42355314912709524,1689,0,9.724298656820983,10.592238828400799,108.92547835283742,0.09817992202025022,0.1069429497070003,0.16796875,,
0.9217749999999069,1200,,,,-0.125,0.044921875,-0.88671875,0.05989775747683299,1.0399451821922567,22.958925129935544,0.42307234652646913,1688,0,9.713286328447351,10.586635284855483,108.99128190888752,0.098231889000647,0.10706419506512066,0.16796875,,
0.9296850000000558,1200,,,,-0.0625,0.16796875,-1.041015625,0.05989775747683299,1.0399451821922567,22.958912585823466,0.42191842365052046,1687,0,9.686788206940731,10.584726037418761,109.26971676571439,0.09824960783263338,0.10735706820214364,0.16796875,,
0.9377749999999069,1200,,,,0.125,0.12109375,-1.04296875,0.05989775747683299,1.0399451821922567,22.958965379285775,0.4222029303881073,1687,0,9.693342461813558,10.583477249934415,109.18294996413775,0.09826120070307717,0.10728447759780173,0.16796875,,
0.9468500000000931,1200,,,,-0.0625,-0.017578125,-0.94140625,0.05955057314632502,1.0399451821922567,22.958948808846397,0.4207100559866797,1687,0,9.659060638765082,10.521070760429701,108.92436805091667,0.09884404409706521,0.1076652503886977,0.16796875,,
0.9548250000001862,1200,,,,-0.125,-0.16015625,-0.90625,0.05955057314632502,1.0399451821922567,22.959000693609145,0.419454443324546,1687,0,9.63025485522569,10.520713716696,109.24647244394698,0.0988473985887384,0.10798729606080452,0.16796875,,
0.9628400000003167,1200,,,,-0.03125,0.072265625,-0.96875,0.05955057314632502,1.0399451821922567,22.958951476354827,0.4185826121105627,1687,0,9.610217880292263,10.519568646114086,109.46233245852454,0.09885815827404777,0.10821244587231256,0.16796875,,
0.9709350000000558,1200,,,,-0.03125,0.17578125,-1.064453125,0.05955057314632502,1.0399451821922567,22.959002822260764,0.4180775418735887,1686,0,9.598643463799565,10.517118507623664,109.56880050069624,0.09888118893387193,0.10834293263567067,0.169921875,,
0.979660000000149,1200,,,,-0.125,0.15625,-0.98828125,0.05955057314632502,1.0399451821922567,22.958984529809282,0.42087439419797906,1686,0,9.662848705384254,10.516091226852588,108.83013433701902,0.0988908482970157,0.10762304304865986,0.169921875,,
0.9879399999999441,1200,,,,0,-0.138671875,-0.92578125,0.05955057314632502,1.0399451821922567,22.958836709000757,0.4237992658787315,1687,0,9.729938142704192,10.518094661771542,108.10032404633871,0.09887201205480509,0.10688096542237936,0.169921875,,
0.9951650000000373,1200,,,,-0.09375,-0.02734375,-0.951171875,0.05955057314632502,1.0399451821922567,22.958763934547253,0.4285130469971143,1688,0,9.8381298888803,10.523519782646769,106.96666847772707,0.09882104121732363,0.10570557554517258,0.169921875,,
1.0091150000002236,1200,,,,0.0625,0.2578125,-1.05859375,0.05955057314632502,1.1686531362436812,22.958964915582513,0.425609053150877,1688,0,9.771543319045279,10.52643871511315,107.72544695776499,0.11102075144994746,0.11959760071532524,0.171875,,
1.0161800000001677,1200,,,,-0.0625,0.09375,-0.962890625,0.05955057314632502,1.1686531362436812,22.9589228888852,0.4237184996610075,1691,0,9.728120360311202,10.545690761029242,108.40419701275043,0.11081807372565347,0.1201314429672924,0.169921875,,
1.0231350000002422,1200,,,,0.125,-0.13671875,-0.8828125,0.05955057314632502,1.1686531362436812,22.958883164216893,0.4241738132220737,1692,0,9.738557019085949,10.553969330504003,108.37303010928603,0.11073114765133323,0.12000269998453733,0.171875,,
1.0319850000003352,1200,,,,-0.0625,-0.048828125,-0.955078125,0.05955057314632502,1.1686531362436812,22.95892987763484,0.42296434102687813,1693,0,9.710808646376124,10.55752290628356,108.71929713313229,0.11069387645355044,0.12034560444971786,0.171875,,
1.0429600000004284,1200,,,,-0.09375,0.107421875,-1.025390625,0.05955057314632502,1.1686531362436812,22.95911578815071,0.4201487864528614,1693,0,9.646244636422253,10.556767803352836,109.43914654095161,0.11070179414882236,0.12115109872199233,0.171875,,
1.0505300000002609,1200,,,,-0.09375,0.115234375,-0.99609375,0.05955057314632502,1.1686531362436812,22.959349228697352,0.41849241045914426,1692,0,9.60831340129085,10.551961248083266,109.8211601493519,0.11075222025251123,0.12162937317247331,0.171875,,
1.0656749999998136,1200,,,,0.125,0.01953125,-0.9296875,0.05955057314632502,1.1686531362436812,22.95940735523576,0.41927940718925766,1691,0,9.626406705319932,10.547870020642547,109.57224583928476,0.11079517797968562,0.12140076479397421,0.171875,,
1.0734600000004284,1200,,,,-0.0625,0.0390625,-1.046875,0.05955057314632502,1.1686531362436812,22.95943634479825,0.4187409267130311,1691,0,9.614055651829666,10.545366180418526,109.68696835462588,0.1108214846454293,0.12155672679315863,0.171875,,
1.0947000000001863,1200,,,,-0.09375,0.02734375,-0.923828125,0.06311672096353704,1.1686531362436812,22.959506551977313,0.41806372916008994,1691,0,9.598536928795154,11.173606644968311,116.40947706778127,0.10459050272455654,0.1217532572842198,0.173828125,,
1.1050550000001675,1200,,,,-0.125,0.001953125,-0.880859375,0.06311672096353704,1.1686531362436812,22.959475004228416,0.4184675893649083,1690,0,9.607796158103334,11.172243574214123,116.28310374581912,0.1046032632998593,0.12163592118448775,0.173828125,,
1.1125200000004842,1200,,,,0.041015625,0.111328125,-1.08984375,0.06311672096353704,1.1686531362436812,22.95955644436392,0.41725883876744885,1690,0,9.580077860590986,11.171879394265714,116.61574735444302,0.1046066731478972,0.12198785367403978,0.173828125,,
1.120899999999907,1200,,,,-0.1875,0.0078125,-0.94140625,0.06311672096353704,1.1686531362436812,22.959644427983562,0.4157391032403535,1689,0,9.545221985207265,11.166354671629453,116.98370859194833,0.10465842887947113,0.122433311457272,0.173828125,,
1.129845000000205,1200,,,,-0.03125,-0.095703125,-0.875,0.06311672096353704,1.1686531362436812,22.95966161668477,0.4172612731151404,1689,0,9.58017763647071,11.164222114242515,116.53460444972876,0.10467842042956108,0.12198658319181306,0.173828125,,
1.1380950000002048,1200,,,,-0.03125,0.06640625,-0.962890625,0.06311672096353704,1.1686531362436812,22.95976275366277,0.41514190191517075,1689,0,9.53155957707666,11.163267601579792,117.11900357237843,0.1046873709341427,0.12260880570418765,0.173828125,,
1.1450300000002607,1200,,,,-0.25,0.30859375,-1.0234375,0.06311672096353704,1.1686531362436812,22.959773010379518,0.41540569465338717,1688,0,9.537620456460793,11.156074333689247,116.96915792169223,0.10475487176654683,0.12253089138727832,0.173828125,,
1.1530849999999628,1200,,,,0.03125,0.087890625,-1.01953125,0.06311672096353704,1.13048863647054,22.959783167774525,0.41392575390858843,1687,0,9.503645557298789,11.152870938669508,117.35360784898081,0.10136301609578229,0.11895315641294366,0.173828125,,
1.1621200000001117,1200,,,,0,-0.150390625,-0.91796875,0.06311672096353704,1.13048863647054,22.959795121146403,0.412543379084295,1687,0,9.471911462360847,11.15134788334248,117.73070227329848,0.10137686029499869,0.11935168956792262,0.173828125,,
1.1698900000001304,1200,,,,-0.25,0.0078125,-0.91796875,0.06311672096353704,1.13048863647054,22.959805248365782,0.4123323089645091,1688,0,9.467069511434119,11.156159023952565,117.84173561288847,0.10133314109662216,0.1194127322193167,0.173828125,,
1.1776949999998323,1200,,,,-0.0625,0.087890625,-1.015625,0.06311672096353704,1.13048863647054,22.959716884466893,0.4089434658011263,1688,0,9.38922619654653,11.15804800492519,118.8388454101708,0.10131598609107431,0.12040274808656194,0.17578125,,
1.1886500000003726,1200,,,,0.0625,0.21875,-1.00390625,0.06311672096353704,1.13048863647054,22.95953022612547,0.4082550494112134,1688,0,9.3733441469251,11.158803675449759,119.04826602478234,0.10130912500573008,0.12060675664420083,0.17578125,,
1.1970200000000186,1200,,,,0.01953125,-0.015625,-0.966796875,0.06311672096353704,1.13048863647054,22.959385903341477,0.40796947924105176,1688,0,9.366728710680567,11.157303105620457,119.1163259900776,0.10132275028909626,0.12069193753647221,0.173828125,,
1.2169150000000373,1200,,,,-0.0625,0.12109375,-1.0390625,0.06311672096353704,1.13048863647054,22.95956699248327,0.40816431110987544,1688,0,9.37127584486797,11.154795573156003,119.03177067682572,0.10134552704767257,0.12063337534660598,0.17578125,,
1.2248349999999628,1200,,,,0.0625,0.13671875,-1.1015625,0.06311672096353704,1.13048863647054,22.95972034423999,0.4090268517595027,1687,0,9.39114212968309,11.151113198554086,118.7407563911546,0.10137899385840018,0.12037818412920655,0.177734375,,
1.2329900000002234,1200,,,,0,0.025390625,-0.94140625,0.06311672096353704,1.13048863647054,22.959636547632087,0.40835483307610276,1687,0,9.37567854989629,11.149680992220535,118.92132321818852,0.10139201626121103,0.120576727375433,0.177734375,,
1.2417500000004658,1200,,,,-0.0625,-0.1328125,-0.9296875,0.06098770623689042,1.13048863647054,22.959435332599366,0.4105113178588245,1687,0,9.425108055679825,10.773001076079638,114.30108824680833,0.10493720630741196,0.11994436878517024,0.177734375,,
1.2489799999999813,1200,,,,-0.0625,0,-1.0234375,0.06098770623689042,1.13048863647054,22.95934431951458,0.4130459250018451,1687,0,9.48326361188976,10.77185942353749,113.58810494345151,0.10494832804820303,0.11920881699979063,0.177734375,,
1.2571100000003352,1200,,,,-0.0625,0.1796875,-1.052734375,0.06098770623689042,1.13048863647054,22.959180267531703,0.41249088360401587,1687,0,9.470452555378039,10.771327363832386,113.73614197259889,0.1049535120682023,0.11937007549111928,0.177734375,,
1.2656099999998696,1200,,,,-0.1875,0.19921875,-0.99609375,0.06098770623689042,1.13048863647054,22.959350248404743,0.412495856897145,1687,0,9.470636854517394,10.771118494463794,113.7317232190788,0.10495554728616119,0.11936775254256621,0.1796875,,
1.274170000000391,1200,,,,0,-0.0625,-0.87109375,0.06098770623689042,1.13048863647054,22.959385688426845,0.4113192667294234,1688,0,9.443637685921749,10.779705331110225,114.14780712288699,0.10487194239047984,0.11970902252591008,0.1796875,,
1.283035000000149,1200,,,,0,-0.009765625,-0.96875,0.06098770623689042,1.13048863647054,22.95941983720911,0.41307612352500656,1688,0,9.483988144737477,10.782836675454872,113.69517244112232,0.10484148749501952,0.11919970999730013,0.177734375,,
1.2908600000003352,1200,,,,-0.03125,0.142578125,-1.087890625,0.06098770623689042,1.13048863647054,22.959350510027548,0.41474712323312074,1689,0,9.522324575334808,10.783879468176414,113.24839205869274,0.10483134940506794,0.11871981757466941,0.177734375,,
1.2991750000002793,1200,,,,-0.1875,0.14453125,-1.0390625,0.06098770623689042,1.13048863647054,22.959251158551194,0.41485492218823805,1688,0,9.52475835288097,10.78223077076551,113.20214509698496,0.10484737903548676,0.1186894821461375,0.1796875,,
1.3081400000001304,1200,,,,0,-0.052734375,-0.900390625,0.06098770623689042,1.03791937384925,22.95907262459326,0.4180687588084829,1688,0,9.598470995557522,10.781546121688198,112.3256623547463,0.09626813836666409,0.1081338240569391,0.177734375,,
1.315790000000503,1200,,,,-0.03125,0.072265625,-0.9453125,0.06098770623689042,1.03791937384925,22.95924624160441,0.41822353522081424,1688,0,9.602097129168989,10.781316414551087,112.28085145899949,0.09627018945927736,0.10809298842606861,0.177734375,,
1.3241250000004656,1200,,,,-0.03125,0.15625,-1.0859375,0.06098770623689042,1.03791937384925,22.959184461862055,0.4177291774683252,1690,0,9.590721240597189,10.791584682943796,112.52109629944611,0.09617858769988542,0.10822120128523531,0.177734375,,
1.3322700000000187,1200,,,,-0.125,0.1171875,-0.99609375,0.06098770623689042,1.03791937384925,22.959159153145556,0.4147027533108849,1690,0,9.521226514512266,10.795581605955732,113.3843585120162,0.09614297883466032,0.10901109980602311,0.177734375,,
1.3434950000001118,1200,,,,-0.03125,-0.076171875,-0.962890625,0.06098770623689042,1.03791937384925,22.959200766008212,0.4143841098109215,1691,0,9.51392797139254,10.79715926682354,113.48792317210675,0.09612893060107651,0.10909472690671751,0.177734375,,
1.3544600000004283,1200,,,,-0.0625,0.052734375,-0.916015625,0.06098770623689042,1.03791937384925,22.95920069546411,0.4126001121618052,1690,0,9.472968782093886,10.791522443388587,113.91911756098123,0.09617914240498385,0.1095664303054771,0.1796875,,
1.3643500000000932,1200,,,,-0.0625,0.234375,-1.044921875,0.06098770623689042,1.03791937384925,22.95947843007822,0.41511004011553315,1690,0,9.530710012141489,10.790300507159202,113.21612443787588,0.09619003411078368,0.10890262871570008,0.1796875,,
1.3778700000001118,1200,,,,-0.0625,-0.0546875,-0.947265625,0.06098770623689042,1.03791937384925,22.959453844259674,0.4126496743496107,1689,0,9.474211152078672,10.785622110641775,113.84190132046376,0.09623175772356918,0.1095520626666134,0.1796875,,
1.386570000000298,1200,,,,0.0625,0.0234375,-1.046875,0.06098770623689042,1.03791937384925,22.959578346873627,0.41434459207632196,1689,0,9.513177124379707,10.783953933003762,113.35806946521994,0.0962466438838123,0.10910333743175481,0.1796875,,
1.3947750000003725,1200,,,,-0.09375,0.21484375,-1.044921875,0.054655883870704754,1.03791937384925,22.959748782515945,0.41113489079223925,1688,0,9.43955380831694,9.664047538112444,102.3782239537393,0.10740006914866375,0.10995428331948982,0.1796875,,
1.402535000000149,1200,,,,0.0625,0.078125,-1.015625,0.054655883870704754,1.03791937384925,22.959761053673613,0.4116278782346754,1689,0,9.450877727298804,9.664558696144967,102.26096427243945,0.10739438876430633,0.10982253752487202,0.1796875,,
1.4104000000003725,1200,,,,0.03125,-0.044921875,-0.95703125,0.054655883870704754,1.03791937384925,22.95977279943743,0.41082474691557463,1689,0,9.432442849567977,9.664762764912478,102.46298778640511,0.10739212116177063,0.11003717598954642,0.1796875,,
1.4187750000003725,1200,,,,-0.1875,-0.17578125,-0.93359375,0.054655883870704754,1.03791937384925,22.959782589372463,0.41201784825772886,1689,0,9.459840218938508,9.664837252225512,102.16702426830213,0.10739129348611115,0.10971848887799877,0.181640625,,
1.4271800000001675,1200,,,,-0.03125,0.01171875,-0.9921875,0.054655883870704754,1.03791937384925,22.959719207397043,0.4122976356849196,1688,0,9.466237945199438,9.660901461105317,102.05639787456005,0.10743504403061166,0.1096443359925898,0.181640625,,
1.4354600000004285,1200,,,,-0.03125,0.193359375,-1.0234375,0.054655883870704754,1.03791937384925,22.959635825603563,0.41304926427754646,1688,0,9.48346068584595,9.659640237214028,101.8577559100448,0.10744907143131867,0.10944521290612225,0.181640625,,
1.4432150000003166,1200,,,,0,0.05859375,-0.970703125,0.054655883870704754,1.03791937384925,22.959523993767665,0.4113397649321231,1688,0,9.444165202549831,9.659137147258052,102.27624083333677,0.10745466784720882,0.10990059487407339,0.181640625,,
1.4512350000003353,1200,,,,-0.1875,-0.1484375,-0.921875,0.054655883870704754,1.03791937384925,22.959547529513266,0.41022374346552604,1688,0,9.418551535831602,9.66355894857141,102.60132794100781,0.1074054992961665,0.11019946855953663,0.181640625,,
1.4596700000003913,1200,,,,0,-0.05078125,-0.94140625,0.054655883870704754,1.000976257842772,22.95976712230132,0.41076862220693533,1689,0,9.431151907019805,9.66529610291102,102.48266805793824,0.10356395160426544,0.10613510075028315,0.181640625,,
1.4680150000001304,1200,,,,-0.25,0.12890625,-1.0078125,0.054655883870704754,1.000976257842772,22.959779935372428,0.40896721135583514,1689,0,9.389797173512918,9.666014801141278,102.94167831875565,0.1035562513027174,0.10660254309500555,0.181640625,,
1.4759850000003352,1200,,,,-0.03125,0.15234375,-1.06640625,0.054655883870704754,1.000976257842772,22.95992128948312,0.40999458469095146,1688,0,9.413443393618566,9.663494191398623,102.65631594438192,0.1035832627429663,0.10633476146691874,0.18359375,,
1.4831400000001305,1200,,,,0,-0.0234375,-0.89453125,0.054655883870704754,1.000976257842772,22.959838061837196,0.40991911799608405,1688,0,9.411676567641223,9.662564451039563,102.66570872463818,0.1035932296146372,0.10635472337460905,0.181640625,,
1.494385000000242,1200,,,,-0.125,-0.0625,-0.8203125,0.054655883870704754,1.000976257842772,22.95945771640885,0.40794111374524705,1688,0,9.366106751818732,9.662133683557146,103.1606188097411,0.10359784811777305,0.10687218119187039,0.181640625,,
1.5053850000002422,1200,,,,0.01953125,0.06640625,-1.06640625,0.054655883870704754,1.000976257842772,22.959182364479798,0.4218396316491204,1687,0,9.68509303159714,9.655971659193996,99.69931757693875,0.10366395979318001,0.10335226048703264,0.181640625,,
1.5132050000005401,1200,,,,-0.125,0.095703125,-1.005859375,0.054655883870704754,1.000976257842772,22.958956550919268,0.4304248007118644,1687,0,9.88210429798178,9.652939984163577,97.68101704952655,0.10369651727711496,0.1012918127212239,0.181640625,,
1.521910000000149,1200,,,,-0.09375,-0.0390625,-0.86328125,0.054655883870704754,1.000976257842772,22.959200917605543,0.42746008220308385,1689,0,9.814141911556783,9.669099215778042,98.5221051714369,0.10352321715857239,0.1019932528858237,0.181640625,,
1.5297999999998138,1200,,,,0,0.099609375,-0.99609375,0.054655883870704754,1.000976257842772,22.95902305613036,0.42253209830632266,1697,0,9.700924186970001,9.712913626883612,100.12359069798438,0.10305622970560023,0.10318359761920977,0.181640625,,
1.5387500000004657,1200,,,,0.0625,0.17578125,-1.00390625,0.054655883870704754,1.000976257842772,22.959071075298493,0.4199112784454449,1700,0,9.640772887148426,9.727525057088002,100.89984663008937,0.10290143196428023,0.10382738703212452,0.181640625,,
1.546899999999907,1200,,,,-0.03125,0.0625,-0.99609375,0.05790210704924685,1.000976257842772,22.959340466671378,0.41571704138190924,1700,0,9.54458909088457,10.308052936800548,107.99891790674482,0.09710623955657129,0.10487368794102837,0.1796875,,
1.555214999999851,1200,,,,0.125,-0.17578125,-0.9375,0.05790210704924685,1.000976257842772,22.959373117039124,0.41448989276971676,1700,0,9.516428101341464,10.30552042163923,108.29189599180108,0.09713010278849689,0.10518402988844854,0.1796875,,
1.5632050000000746,1200,,,,-0.09375,-0.041015625,-0.970703125,0.05790210704924685,1.000976257842772,22.959403853580895,0.41577887580717743,1699,0,9.546035123444842,10.304532867632904,107.94568356788474,0.0971394114319236,0.10485780168400989,0.181640625,,
1.5713599999998695,1200,,,,-0.25,0.16796875,-1.03125,0.05790210704924685,1.000976257842772,22.959433566670274,0.4164837958104605,1698,0,9.562232041504936,10.297182047781192,107.6859670742793,0.09720875606530233,0.10468018904979795,0.181640625,,
1.5804300000001676,1200,,,,0,0.1875,-1.025390625,0.05790210704924685,1.000976257842772,22.959319686948056,0.4153301801664071,1695,0,9.535698382078273,10.279645787557518,107.80170864965115,0.09737458649152617,0.1049714680283976,0.181640625,,
1.589420000000391,1200,,,,0.03125,0.013671875,-0.96484375,0.05790210704924685,1.000976257842772,22.9593572361047,0.4127872375522614,1694,0,9.477329649467183,10.273245144833007,108.39809867129155,0.09743525475455235,0.10561796358946396,0.181640625,,
1.598070000000298,1200,,,,-0.0625,-0.087890625,-0.916015625,0.05790210704924685,1.000976257842772,22.959392524819712,0.410398670814414,1694,0,9.422504174892403,10.269231683757496,108.98622588166444,0.09747333477985341,0.10623250881756202,0.181640625,,
1.60625,1200,,,,-0.125,0.0625,-1.009765625,0.05790210704924685,1.2236105025954893,22.9594877515455,0.40901542461894697,1693,0,9.390784631731893,10.264592145131832,109.30494679270252,0.11920692856518497,0.13029906984139036,0.181640625,,
1.6144250000002793,1200,,,,-0.09375,0.17578125,-1.04296875,0.05790210704924685,1.2236105025954893,22.959512738405568,0.40992915754701453,1693,0,9.411773714544543,10.262770513781621,109.04183233732007,0.11922808767401871,0.13000849146049645,0.181640625,,
1.6231200000005774,1200,,,,0.125,0.04296875,-0.89453125,0.05790210704924685,1.2236105025954893,22.959613937464656,0.40887202124597105,1691,0,9.387543757638342,10.255218851290472,109.24283407942713,0.11931588397467652,0.13034405316085762,0.181640625,,
1.631345000000205,1200,,,,-0.09375,-0.056640625,-0.853515625,0.05790210704924685,1.2236105025954893,22.959438164933346,0.41010969177185197,1690,0,9.41588810907571,10.246367962399173,108.81998430422072,0.11941894992310842,0.1299516825625918,0.181640625,,
1.6395550000001677,1200,,,,-0.09375,0.109375,-1.025390625,0.05790210704924685,1.2236105025954893,22.959465481835274,0.4091769342510881,1689,0,9.394483697901038,10.242862414528418,109.03060502214643,0.1194598202217309,0.13024776474612165,0.181640625,,
1.6486150000002235,1200,,,,0.1875,0.01171875,-1.0703125,0.05790210704924685,1.2236105025954893,22.959360337145153,0.4084888608784727,1688,0,9.37864295061881,10.237046007960645,109.15274269274957,0.11952769398945473,0.13046775626688661,0.18359375,,
1.6572250000000932,1200,,,,-0.09375,0.0625,-0.966796875,0.05790210704924685,1.2236105025954893,22.9591633741285,0.4094924957989592,1687,0,9.401605111527934,10.229769461031285,108.80875488471521,0.11961271534579963,0.13014910625156326,0.18359375,,
1.665480000000447,1200,,,,-0.125,0.01171875,-0.884765625,0.05790210704924685,1.2236105025954893,22.959103102971646,0.40942821433100596,1687,0,9.400104586091139,10.227442257236069,108.80136666105929,0.11963993262633836,0.1301698817698267,0.181640625,,
1.6760200000000187,1200,,,,-0.03125,0.126953125,-1.052734375,0.05790210704924685,1.2236105025954893,22.95915728925169,0.4114517160010987,1687,0,9.44658466460174,10.227939301426373,108.27129237249655,0.11963411851934304,0.12952940623933692,0.18359375,,
1.684665000000503,1200,,,,0,0.07421875,-1.064453125,0.05790210704924685,1.2236105025954893,22.95904605176558,0.4088726349925767,1687,0,9.387325656101307,10.230996847203576,108.9873433820198,0.11959836571838423,0.13034708152477928,0.18359375,,
1.6929599999999627,1200,,,,-0.125,0.03515625,-0.9609375,0.06623756399794042,1.2236105025954893,22.959092485524675,0.4086312944883499,1687,0,9.381803682637695,11.704849906300318,124.76118987611878,0.10453876063262134,0.130423801647006,0.181640625,,
1.7015400000000374,1200,,,,-0.125,-0.0546875,-0.87890625,0.06623756399794042,1.2236105025954893,22.959237163761802,0.40731742960801065,1687,0,9.35169746730417,11.704511189380518,125.15921553602823,0.10454178588044487,0.1308436791153191,0.18359375,,
1.7184400000004099,1200,,,,0.03125,0.125,-1.037109375,0.06623756399794042,1.2236105025954893,22.959435241106846,0.40845001349149146,1687,0,9.377781633987116,11.703797525404662,124.80347679442183,0.10454816053844733,0.130479739276596,0.18359375,,
1.7262300000004471,1200,,,,-0.125,0.0546875,-0.97265625,0.06623756399794042,1.2236105025954893,22.959591055377597,0.4080217733810213,1687,0,9.368013058518201,11.702621797828801,124.9210662360016,0.10455866418091944,0.13061579813692484,0.18359375,,
1.7343700000001117,1200,,,,-0.09375,-0.08984375,-0.931640625,0.06623756399794042,1.2236105025954893,22.95941360955367,0.4080331843850316,1687,0,9.368202646719217,11.702144997985657,124.91344860141125,0.10456292438746186,0.1306131548108647,0.18359375,,
1.7424599999999628,1200,,,,0.125,0.00390625,-0.9453125,0.06623756399794042,1.2236105025954893,22.95944229369371,0.40783207169248054,1687,0,9.363596915541063,11.701959522596857,124.97290974982849,0.10456458170382989,0.130677400323013,0.18359375,,
1.7497450000001118,1200,,,,-0.125,0.2109375,-1.02734375,0.06623756399794042,1.2236105025954893,22.959469259975616,0.4100533791711386,1687,0,9.414607954028883,11.701886472935758,124.29499486410434,0.10456523445390348,0.12996935279411798,0.18359375,,
1.7582900000005028,1200,,,,-0.0625,0.09375,-1.00390625,0.06623756399794042,1.3191578392933272,22.95949575022416,0.41190971485356914,1687,0,9.457239347656566,11.699607460290652,123.71059915269807,0.11275231615852482,0.13948656587825545,0.18359375,,
1.7665400000000373,1200,,,,0.1875,-0.203125,-0.9453125,0.06623756399794042,1.3191578392933272,22.959454875999484,0.4106615194715294,1687,0,9.428564625615962,11.698725505423315,124.07748124926327,0.1127608164395164,0.13991078087425712,0.185546875,,
1.7745600000000559,1200,,,,-0.125,-0.076171875,-0.931640625,0.06623756399794042,1.3191578392933272,22.95948149601152,0.41117910779982647,1687,0,9.440459117076642,11.701719312809374,123.95286254290734,0.11273196733144172,0.13973450050825717,0.185546875,,
1.7820200000004842,1200,,,,-0.0625,0.0625,-1.00390625,0.06623756399794042,1.3191578392933272,22.959441299486716,0.4108209901570217,1688,0,9.43222040810715,11.709632482959965,124.14502605235285,0.11265578498838336,0.13985655362331112,0.18359375,,
1.7891400000001303,1200,,,,-0.03125,0.216796875,-1.041015625,0.06623756399794042,1.3191578392933272,22.959638277523986,0.4107100299266101,1689,0,9.42975372406602,11.71252052518285,124.20812746456886,0.11262800662394,0.13989313802826644,0.185546875,,
1.7999450000002981,1200,,,,-0.03125,0.04296875,-0.966796875,0.06623756399794042,1.3191578392933272,22.95965615269818,0.41123029852574333,1689,0,9.441706253722492,11.713873637169781,124.06522001837818,0.11261499655480765,0.13971604324941111,0.185546875,,
1.8078500000000932,1200,,,,-0.09375,-0.095703125,-0.9140625,0.06623756399794042,1.3191578392933272,22.95967888956336,0.41103396819821014,1688,0,9.437207922533903,11.70550011680286,124.03562804685899,0.11269555560464431,0.13978264017511777,0.185546875,,
1.8162299999999814,1200,,,,0.0625,-0.0546875,-1.0546875,0.06623756399794042,1.3191578392933272,22.959563285012802,0.41046842217422785,1687,0,9.424175715408536,11.703276176414043,124.18355227905158,0.11271697082154351,0.13997593838753483,0.185546875,,
1.8240400000000372,1200,,,,-0.0625,0.173828125,-1.033203125,0.06623756399794042,1.3191578392933272,22.959486486007435,0.4087612302189462,1687,0,9.38494794121567,11.701660483117129,124.68540642327066,0.11273253408749775,0.14056101829824869,0.185546875,,
1.8311800000001677,1200,,,,-0.03125,0.111328125,-0.92578125,0.06623756399794042,1.3191578392933272,22.95950877582345,0.40958591510064574,1687,0,9.403891412206955,11.699677542892058,124.41315015297818,0.11275164075737791,0.14027786811542312,0.185546875,,
1.8391650000000372,1200,,,,-0.0625,-0.19921875,-0.8828125,0.06586176148302968,1.3191578392933272,22.9594354658823,0.41078661742642364,1687,0,9.431428833050056,11.632386088458638,123.3364137541481,0.11340389059147224,0.13986829171319962,0.185546875,,
1.8472750000003726,1200,,,,0,-0.03515625,-0.9765625,0.06586176148302968,1.3191578392933272,22.959397422949152,0.4136649750706518,1687,0,9.497498562601448,11.63201963143288,122.47456058837001,0.11340746328596317,0.1388952923339004,0.185546875,,
1.8556300000003538,1200,,,,-0.1875,0.0625,-1.05859375,0.06586176148302968,1.3191578392933272,22.959329357256365,0.41340147716595005,1687,0,9.491420671029344,11.635192829708679,122.58642023130182,0.11337653432997347,0.13898423481742744,0.185546875,,
1.8630250000003725,1200,,,,-0.03125,0.150390625,-1.06640625,0.06586176148302968,1.3191578392933272,22.959297014977334,0.41251526594548193,1687,0,9.471060514054685,11.636452305418167,122.86324523162034,0.11336426297894081,0.139283012428835,0.185546875,,
1.8704550000005402,1200,,,,0,0.03515625,-0.908203125,0.06586176148302968,1.3191578392933272,22.959414681240943,0.41232982813201347,1687,0,9.466851509527705,11.63692048538652,122.92281624650812,0.11335970207495247,0.13934493827918285,0.185546875,,
1.8784650000003167,1200,,,,-0.25,-0.03125,-0.8515625,0.06586176148302968,1.3191578392933272,22.959245953753353,0.4119137448961387,1687,0,9.457228980802062,11.638252970034968,123.06197717809656,0.11334672331747431,0.13948671878107047,0.1875,,
1.8876450000000187,1200,,,,0,0.0625,-1.021484375,0.06586176148302968,1.3191578392933272,22.958843467542767,0.41026350619904556,1688,0,9.419175619269149,11.638806916469008,123.56502720534353,0.11334132860531503,0.14005024352605533,0.1875,,
1.895845000000205,1200,,,,0.03125,0.1171875,-1.080078125,0.06586176148302968,1.3191578392933272,22.95876730353502,0.4123527571910308,1688,0,9.467110999319953,11.63899441475183,122.94135365675854,0.1133395027341333,0.13934111888918232,0.1875,,
1.9035400000000373,1200,,,,-0.1875,0.078125,-0.9765625,0.06586176148302968,1.0924160873349507,22.958888282963663,0.41338620676774496,1688,0,9.490887738898774,11.642869793500308,122.67419143292099,0.09382704665689875,0.11510157083174008,0.185546875,,
1.9124900000002236,1200,,,,-0.0625,-0.09375,-0.873046875,0.06586176148302968,1.0924160873349507,22.9588394683119,0.4145360464785307,1689,0,9.517266544929267,11.648702805975756,122.39546671288831,0.0937800633710514,0.11478254624664078,0.1875,,
1.9202100000004285,1200,,,,0.03125,0.08984375,-0.99609375,0.06586176148302968,1.0924160873349507,22.958896259352667,0.42075053916606076,1689,0,9.65996797978029,11.650670668892129,120.60775660207845,0.0937642233980363,0.11308692633573272,0.1875,,
1.9285,1200,,,,-0.0625,0.22265625,-1.0390625,0.06586176148302968,1.0924160873349507,22.958884979946042,0.4236444939557127,1690,0,9.726405209116654,11.65757307529267,119.85489833762952,0.09370870594414224,0.11231447424285988,0.1875,,
1.9373900000001303,1200,,,,-0.0625,0.03515625,-0.990234375,0.06586176148302968,1.0924160873349507,22.958946288736694,0.42232206063905947,1692,0,9.696069506760768,11.666957517451545,120.32666957798249,0.0936333303434854,0.11266586801726645,0.185546875,,
1.9450150000005961,1200,,,,-0.03125,-0.1484375,-0.869140625,0.06586176148302968,1.0924160873349507,22.958997037742,0.41976393185057376,1692,0,9.637358867908258,11.67010315265015,121.09233777223747,0.09360809180910068,0.11335222671562237,0.1875,,
1.9535550000001676,1200,,,,-0.0625,0.0234375,-0.9609375,0.06586176148302968,1.0924160873349507,22.959214178431182,0.4181336479189628,1695,0,9.600019977780203,11.688049872518755,121.75026614081447,0.09346435883230336,0.11379310562513519,0.1875,,
1.962779999999795,1200,,,,-0.125,0.1953125,-1.033203125,0.06586176148302968,1.0924160873349507,22.959618938466363,0.4171934707528136,1698,0,9.578603112100812,11.707948514887217,122.23022895787767,0.09330550830027065,0.11404753642573236,0.1875,,
1.9703000000002795,1200,,,,-0.03125,0.173828125,-0.994140625,0.06586176148302968,1.0924160873349507,22.959694949089545,0.41525729588649907,1698,0,9.534180838937836,11.712916238775072,122.85183632073797,0.09326593523469051,0.11457891409752746,0.1875,,
1.9782650000005961,1200,,,,0.125,-0.08203125,-0.9765625,0.06586176148302968,1.0924160873349507,22.959612743952604,0.4168113126899817,1696,0,9.569826326660516,11.69880620334719,122.24679742364353,0.09337842411838528,0.11415213296939315,0.1875,,
1.9877600000002422,1200,,,,-0.09375,-0.09375,-0.919921875,0.06586176148302968,1.0924160873349507,22.959634475484386,0.41851961676026583,1694,0,9.609057421635512,11.683972638139968,121.59332726883937,0.09349697411726034,0.11368608172486241,0.1875,,
1.996279999999795,1200,,,,-0.09375,0.0859375,-1.015625,0.05812473548601737,1.0924160873349507,22.95980046470239,0.4181952621630689,1693,0,9.601679774547968,10.306848665092321,107.34422420974306,0.10598933998466403,0.1137734347515646,0.1875,,
2.0035250000003724,1200,,,,0.125,0.15234375,-1.1015625,0.05812473548601737,1.0924160873349507,22.959927167567933,0.4192903599836215,1693,0,9.626876127287291,10.303519679190053,107.02869282783043,0.10602358430404085,0.11347565636982773,0.189453125,,
2.011890000000596,1200,,,,-0.09375,0.13671875,-0.9375,0.05812473548601737,1.0924160873349507,22.95993088063183,0.4170979662159978,1692,0,9.57654047477142,10.299994627985157,107.55444155558695,0.10605986962040237,0.11407210048480741,0.189453125,,
2.0204600000004285,1200,,,,-0.09375,-0.072265625,-0.869140625,0.05812473548601737,1.0924160873349507,22.960004305556613,0.41708934559268135,1692,0,9.576373170609754,10.298604186590714,107.5418010880937,0.10607418903984385,0.11407409338303735,0.1875,,
2.029070000000298,1200,,,,0.1875,-0.0390625,-1.02734375,0.05812473548601737,1.0924160873349507,22.960136345358414,0.41557526162134983,1692,0,9.541664668584186,10.298099055076895,107.9276982871056,0.10607939207929805,0.11448904622814057,0.189453125,,
2.0360750000001864,1200,,,,-0.0625,0.1171875,-1.068359375,0.05812473548601737,1.0924160873349507,22.96003190074183,0.41362683536671613,1692,0,9.496885335022691,10.297903067578973,108.43453094671243,0.10608141095969517,0.11502888039579984,0.189453125,,
2.0444900000002235,1200,,,,-0.15625,0.111328125,-0.970703125,0.05812473548601737,1.0924160873349507,22.960095887278612,0.4133627871132473,1692,0,9.490849228352895,10.297824813168859,108.50266994448938,0.10608221708510411,0.11510203787364724,0.189453125,,
2.0536750000002795,1200,,,,-0.09375,-0.048828125,-0.83203125,0.05812473548601737,0.994162656026352,22.95998044766144,0.41200471187245513,1691,0,9.459620128935954,10.293969242161047,108.82011224396749,0.09657719317389801,0.10509541001390911,0.189453125,,
2.061540000000503,1200,,,,0.1875,-0.03125,-0.95703125,0.05812473548601737,0.994162656026352,22.95991635868319,0.4105488771641284,1690,0,9.426167880839689,10.285475103353372,109.1161883957146,0.09665695031454846,0.10546838000277493,0.19140625,,
2.0697650000005963,1200,,,,-0.0625,0.123046875,-1.04296875,0.05812473548601737,0.994162656026352,22.959723767663945,0.41011565854956716,1689,0,9.416142233091648,10.282106137427519,109.19658903720217,0.09668862028252526,0.10558067533565002,0.19140625,,
2.077165000000503,1200,,,,0,0.08203125,-1.0546875,0.05812473548601737,0.994162656026352,22.959605308376474,0.41174580248174475,1689,0,9.453521112361598,10.27879896016872,108.72984613878923,0.096719729598645,0.10516321317845967,0.189453125,,
2.08475,1200,,,,-0.09375,-0.037109375,-0.931640625,0.05812473548601737,0.994162656026352,22.959621939010756,0.41159908987057076,1688,0,9.450159493869217,10.275824644461684,108.73704989982569,0.09674772491978749,0.1052006219229754,0.189453125,,
2.092439999999944,1200,,,,-0.09375,0,-0.89453125,0.05812473548601737,0.994162656026352,22.95944275047878,0.4107890616247153,1688,0,9.431487942895549,10.27437414401937,108.93693769453145,0.09676138342743203,0.1054088879767083,0.19140625,,
2.1007800000002606,1200,,,,-0.0625,0.125,-1.03515625,0.05812473548601737,0.994162656026352,22.95953489268583,0.4121463702792771,1688,0,9.462688969320876,10.273810908409072,108.57179118660612,0.09676668812471854,0.1050613265689638,0.189453125,,
2.111510000000242,1200,,,,0.03125,0.146484375,-1.05859375,0.05812473548601737,0.994162656026352,22.959487434821582,0.4107486393876809,1688,0,9.430578224891521,10.276682178454227,108.97192020876787,0.09673965184120246,0.105419056214635,0.189453125,,
2.1195500000002796,1200,,,,-0.03125,-0.064453125,-0.927734375,0.05812473548601737,0.994162656026352,22.959354844586716,0.4097930127037325,1689,0,9.408583191497225,10.277774557850181,109.23828113821075,0.09672936980963538,0.10566550093586906,0.19140625,,
2.1271000000005587,1200,,,,-0.09375,-0.0703125,-0.919921875,0.05812473548601737,0.994162656026352,22.95938618615387,0.40877092778490465,1689,0,9.385129592686042,10.278089878250098,109.51462925200258,0.09672640225983446,0.10592956082365836,0.19140625,,
2.1362749999999067,1200,,,,0,0.015625,-1.0078125,0.05812473548601737,0.994162656026352,22.959482421547655,0.40724442334769706,1690,0,9.350121179124763,10.28511656226092,109.99982102075474,0.09666031979396554,0.10632617877145124,0.189453125,,
2.144785000000149,1200,,,,-0.03125,0.2109375,-1.037109375,0.05512509233503504,0.994162656026352,22.95940068610419,0.4094528632943232,1690,0,9.400792350447007,9.757095242750793,103.79013682061431,0.10189125260050963,0.1057530704823067,0.19140625,,
2.1527600000002423,1200,,,,0,0.025390625,-0.927734375,0.05512509233503504,0.994162656026352,22.959561288444508,0.4096072352723569,1690,0,9.404402422425987,9.758026902572729,103.76020149141512,0.10188152440574215,0.10571247500592333,0.189453125,,
2.1603650000002235,1200,,,,-0.0625,-0.24609375,-0.89453125,0.05512509233503504,0.994162656026352,22.959582813375256,0.40932828228274587,1689,0,9.398006594927347,9.752808231512486,103.77528609925264,0.10193604061793136,0.10578441778950863,0.19140625,,
2.1677400000002236,1200,,,,-0.03125,-0.037109375,-0.962890625,0.05512509233503504,0.994162656026352,22.959860999233666,0.40899940492889075,1689,0,9.390569485936616,9.750882524597266,103.83696685488837,0.10195617202017448,0.10586819654710153,0.19140625,,
2.177035000000149,1200,,,,-0.25,0.21484375,-0.9609375,0.05512509233503504,0.994162656026352,22.960014258150633,0.40919553689368066,1689,0,9.39513536145051,9.749936330754075,103.77643275645991,0.10196606647476045,0.10581674640958698,0.19140625,,
2.1853000000002796,1200,,,,-0.03125,0.158203125,-1,0.05512509233503504,0.994162656026352,22.96001354195732,0.4089103203788851,1688,0,9.388586493345308,9.743736263584927,103.7827821098666,0.10203094882009651,0.10589055729859026,0.19140625,,
2.1932950000003912,1200,,,,0.03125,-0.0390625,-0.9453125,0.05512509233503504,0.994162656026352,22.96021253433649,0.40855235856374905,1688,0,9.380448984028126,9.741569802989215,103.84971785013661,0.10205363982725779,0.10598241701640186,0.19140625,,
2.2019350000000557,1200,,,,0,-0.060546875,-0.943359375,0.05512509233503504,0.994162656026352,22.960103571961774,0.40981942711125435,1687,0,9.409496492276439,9.74073248614944,103.5202308024121,0.10206241239454769,0.10565524487334542,0.19140625,,
2.2187950000003913,1200,,,,-0.125,0.1328125,-1.0234375,0.05512509233503504,1.1107123459277677,22.960088826766643,0.41129693160625647,1687,0,9.443414083856213,9.738935426131551,103.12939091361608,0.11404864056778731,0.1176176683628183,0.189453125,,
2.226110000000335,1200,,,,0,0.009765625,-0.892578125,0.05512509233503504,1.1107123459277677,22.96025747733971,0.4083588833073427,1687,0,9.37602510389551,9.738778304494032,103.868944425584,0.11405048058391691,0.11846303029482012,0.189453125,,
2.234375,1200,,,,-0.1875,-0.0625,-0.86328125,0.05512509233503504,1.1107123459277677,22.960311312510427,0.4092215901208321,1688,0,9.395855104974846,9.74339750336524,103.69889056937862,0.11399641095871768,0.11821301345309979,0.189453125,,
2.2416899999999442,1200,,,,0,0.02734375,-1,0.05512509233503504,1.1107123459277677,22.9602978685592,0.40946149535281723,1688,0,9.401357899006351,9.74505427894946,103.65581635796926,0.11397703020772759,0.11814382112238928,0.189453125,,
2.249575000000186,1200,,,,0,0.109375,-1.0703125,0.05512509233503504,1.1107123459277677,22.960217878299876,0.40897649092501165,1688,0,9.390189338740798,9.745826623026087,103.78732815128708,0.11396799767641369,0.1182843397358707,0.189453125,,
2.256774999999907,1200,,,,-0.09375,0.09765625,-1.04296875,0.05512509233503504,1.1107123459277677,22.960035710366757,0.4149882734679865,1688,0,9.528145578208415,9.743801244157698,102.26335401972135,0.11399168744269507,0.11657172288257753,0.189453125,,
2.267935000000056,1200,,,,-0.09375,-0.060546875,-0.828125,0.05512509233503504,1.1107123459277677,22.959936246939133,0.42770219433762224,1688,0,9.820015114667779,9.741618900520045,99.20166910913775,0.11401722416676284,0.11310698944533593,0.189453125,,
2.276290000000503,1200,,,,0,0.08984375,-1.021484375,0.05512509233503504,1.1107123459277677,22.95964762152585,0.43547115823037336,1687,0,9.998264342307099,9.740583368291345,97.42274293623753,0.11402934546440872,0.11109051610366515,0.189453125,,
2.2836150000002235,1200,,,,0.0625,0.119140625,-1.01171875,0.05512509233503504,1.1107123459277677,22.95966270750871,0.4326434997436863,1694,0,9.93334882671117,9.776230624772964,98.4182756019228,0.11361355808374889,0.11181650471601462,0.189453125,,
2.293024999999907,1200,,,,-0.1875,0.0859375,-0.9921875,0.06315646159150894,1.1107123459277677,22.95967941911862,0.4285439695713083,1700,0,9.839232158353763,11.242334260505988,114.26028047281062,0.09879730669721054,0.11288607973181568,0.189453125,,
2.300625,1200,,,,-0.03125,-0.171875,-0.939453125,0.06315646159150894,1.1107123459277677,22.959769688746025,0.425542989111982,1702,0,9.770369022671664,11.259578051788166,115.24209603200109,0.09864600083760441,0.11368171901700068,0.189453125,,
2.3087500000004657,1200,,,,0,-0.02734375,-0.9453125,0.06315646159150894,1.1107123459277677,22.959975833382497,0.42258273475387864,1704,0,9.70248937755374,11.26653226603411,116.12001649905139,0.09858511205584515,0.11447704838485569,0.189453125,,
2.3177900000000373,1200,,,,-0.15625,0.193359375,-1.060546875,0.06315646159150894,1.1107123459277677,22.959904000593642,0.42430093022851806,1704,0,9.741908625409355,11.27061213986211,115.69203298073963,0.09854942501298397,0.11401383328835069,0.189453125,,
2.326755000000354,1200,,,,-0.0625,0.162109375,-0.998046875,0.06315646159150894,1.1107123459277677,22.959616204863885,0.43081433301900224,1704,0,9.89133174167071,11.272073384020551,113.9591076147308,0.0985366496550962,0.11229148662040135,0.19140625,,
2.3348050000001677,1200,,,,0,-0.052734375,-0.943359375,0.06315646159150894,1.1107123459277677,22.959635133358358,0.43722672135300555,1705,0,10.038565992819551,11.275469552497139,112.32151644530033,0.09850697044202317,0.11064452300480418,0.19140625,,
2.3424199999999256,1200,,,,0.03125,0.021484375,-0.955078125,0.06315646159150894,1.1107123459277677,22.959652966858684,0.4326381351061206,1705,0,9.93322144226545,11.2782428354598,113.54063634855997,0.09848274790072699,0.1118179386600335,0.19140625,,
2.3506800000001675,1200,,,,-0.1875,0.1953125,-1.0546875,0.06315646159150894,1.1878867265419895,22.959768300658617,0.42760460410331985,1705,0,9.81770263450708,11.279349494000341,114.88787055289178,0.10531518038108888,0.12099436810876987,0.19140625,,
2.3598149999999443,1200,,,,0,0.064453125,-1.07421875,0.06315646159150894,1.1878867265419895,22.960003340091156,0.42315349481491615,1706,0,9.71560565432172,11.286192676376963,116.16561105849958,0.10525132439288808,0.12226584412816208,0.19140625,,
2.3676400000001303,1200,,,,0,-0.0703125,-0.87890625,0.06315646159150894,1.1878867265419895,22.960003223733704,0.4195118163249798,1708,0,9.631992655215917,11.29450970271165,117.26036456844105,0.1051738196529943,0.12332720435565583,0.19140625,,
2.375820000000298,1200,,,,-0.09375,-0.109375,-0.9375,0.06315646159150894,1.1878867265419895,22.96032207949131,0.41710553574559883,1708,0,9.576877441857725,11.29770200199676,117.96853484433052,0.10514410154667224,0.1240369560698443,0.19140625,,
2.3839850000003353,1200,,,,-0.09375,0.09765625,-0.9765625,0.06315646159150894,1.1878867265419895,22.96050709944689,0.41731516582929923,1704,0,9.58176782773048,11.271181111750533,117.63154059244414,0.10539150376206653,0.12397364952886258,0.19140625,,
2.3930200000000186,1200,,,,0,0.2109375,-1.0078125,0.06315646159150894,1.1878867265419895,22.960407479310298,0.4151810399782314,1700,0,9.532725855584012,11.246104254472003,117.97364599428128,0.10562650849245217,0.12461144320500497,0.19140625,,
2.403375,1200,,,,0,0.046875,-0.96484375,0.06315646159150894,1.1878867265419895,22.96029881659074,0.413390024251672,1699,0,9.491558484616082,11.236363841419216,118.3827066928062,0.10571807243934464,0.12515191561715774,0.19140625,,
2.412245000000112,1200,,,,-0.03125,-0.1484375,-0.919921875,0.06315646159150894,1.1878867265419895,22.960562105402882,0.41273805736075103,1697,0,9.476697799294861,11.222675910159268,118.42390828368845,0.10584701331940463,0.12534816997439524,0.19140625,,
2.422685000000056,1200,,,,-0.0625,0.0390625,-1.017578125,0.06315646159150894,1.1878867265419895,22.960603054950294,0.4120397991796303,1695,0,9.460682271804925,11.212745983271082,118.5194223960752,0.10594075067019833,0.1255603657763852,0.19140625,,
2.431010000000242,1200,,,,-0.03125,0.1796875,-1.048828125,0.06315646159150894,1.1878867265419895,22.96047987409542,0.4117988732415696,1695,0,9.45509974123823,11.208755226409279,118.54719181356188,0.1059784697361554,0.1256344997991978,0.19140625,,
2.4386500000003726,1200,,,,0,0.0390625,-0.943359375,0.06315646159150894,1.1878867265419895,22.960638851529254,0.4116387491469531,1692,0,9.451488656458435,11.192345421118127,118.41886318585509,0.1061338514714388,0.12568250036784176,0.19140625,,
2.446665000000037,1200,,,,0,-0.05078125,-0.91015625,0.06663414502306679,1.1878867265419895,22.96050708136491,0.40984513356450314,1691,0,9.41025209147072,11.800945972465106,125.40520549031058,0.10066029700616036,0.12623325230773236,0.19140625,,
2.454630000000354,1200,,,,-0.1875,0.09375,-1.04296875,0.06663414502306679,1.1878867265419895,22.96048229150112,0.4104052719647114,1691,0,9.423102979284456,11.79797959968593,125.20270260892138,0.1006856060823848,0.12606109995331832,0.19140625,,
2.4627750000003727,1200,,,,0.03125,0.078125,-1.044921875,0.06663414502306679,1.1878867265419895,22.96065221722618,0.4090435950559699,1689,0,9.391907727764023,11.787887172956935,125.51110503470986,0.10077181000401565,0.12647981229951835,0.19140625,,
2.4708500000005587,1200,,,,-0.03125,-0.009765625,-0.908203125,0.06663414502306679,1.1878867265419895,22.960685970379973,0.40814577933575946,1689,0,9.371307069464374,11.783805836130437,125.74346085112278,0.10080671245446007,0.12675784901047793,0.19140625,,
2.4787200000002048,1200,,,,-0.3125,0.0546875,-0.87109375,0.06663414502306679,1.1878867265419895,22.960846165049187,0.4087809743149149,1689,0,9.385957066443684,11.782223670401663,125.53033843000433,0.10082024919677099,0.12656000002268036,0.19140625,,
2.4865150000001304,1200,,,,0.03125,0.064453125,-0.966796875,0.06663414502306679,1.1878867265419895,22.960706844844957,0.4087551111294095,1688,0,9.385306277974394,11.776353910944623,125.4765008424028,0.1008705016446559,0.12656877584589257,0.19140625,,
2.494310000000056,1200,,,,-0.0625,0.22265625,-1.05078125,0.06663414502306679,1.1878867265419895,22.960672670492627,0.4093611942276268,1687,0,9.399208384662495,11.771446515116416,125.23870131792066,0.10091255352658259,0.12638157150344356,0.19140625,,
2.5009799999999816,1200,,,,0.125,-0.04296875,-1.078125,0.06663414502306679,1.22369772791505,22.960816350112257,0.40790797852798455,1687,0,9.365900182726588,11.769611506028983,125.6644986216651,0.10397095327133023,0.13065457714058287,0.19140625,,
2.509145000000019,1200,,,,-0.0625,-0.0078125,-0.9375,0.06663414502306679,1.22369772791505,22.960780904076508,0.40763993451871355,1687,0,9.359731224236276,11.773007610104937,125.78360775595429,0.10394096125995307,0.1307406910089878,0.19140625,,
2.5189799999999813,1200,,,,-0.125,0.03515625,-0.896484375,0.06663414502306679,1.22369772791505,22.960855699019586,0.40847515609899204,1687,0,9.378939115823457,11.774761383171397,125.54470433981051,0.1039254799391494,0.1304729365233342,0.19140625,,
2.5267900000000374,1200,,,,-0.0625,0.193359375,-1.048828125,0.06663414502306679,1.22369772791505,22.960685429083888,0.4095137862025624,1688,0,9.40271722387015,11.775270052892127,125.23262980831657,0.1039209905521018,0.1301429893912493,0.189453125,,
2.5347299999999815,1200,,,,0.1875,0.08984375,-1.05078125,0.06663414502306679,1.22369772791505,22.960584213572588,0.410102794691495,1687,0,9.41619975373554,11.774909125476524,125.04948316124293,0.10392417596390814,0.1299566449224478,0.19140625,,
2.543970000000205,1200,,,,-0.09375,0.01171875,-0.94140625,0.06663414502306679,1.22369772791505,22.96047909334317,0.41047802731822924,1687,0,9.42477216451695,11.774167775583846,124.92787698266137,0.10393071945625222,0.12983844134950168,0.19140625,,
2.5517800000002606,1200,,,,-0.09375,-0.087890625,-0.947265625,0.06663414502306679,1.22369772791505,22.960652644170764,0.4113308900340147,1687,0,9.444425687888613,11.773916169896324,124.66524232378697,0.10393294043011905,0.12956825204144506,0.19140625,,
2.5600250000003726,1200,,,,0.0625,0.00390625,-1.0078125,0.06663414502306679,1.22369772791505,22.960686050674614,0.4113927078490185,1688,0,9.445858808458215,11.77943681046584,124.70477326972156,0.1038842304266885,0.129548594016597,0.189453125,,
2.5680950000002047,1200,,,,-0.0625,0.263671875,-1.08203125,0.06663414502306679,1.22369772791505,22.960717993975177,0.4127352328341062,1689,0,9.476697287281596,11.787260597839621,124.38152491859127,0.10381527732909633,0.12912702504039458,0.19140625,,
2.5794000000003727,1200,,,,-0.0625,0.072265625,-0.974609375,0.06663414502306679,1.22369772791505,22.960678775214916,0.4142705842297248,1690,0,9.511933810519325,11.790501890593232,123.95483532017452,0.10378673777164209,0.12864867988902032,0.189453125,,
2.587045000000391,1200,,,,-0.09375,-0.10546875,-0.96484375,0.06663414502306679,1.22369772791505,22.960882754110802,0.4120342094256549,1690,0,9.460669173305197,11.793407389933076,124.6572221678576,0.10376116820653594,0.12934578997518592,0.189453125,,
2.5945649999999443,1200,,,,0.0625,-0.02734375,-1.02734375,0.05830553937451437,1.22369772791505,22.960905097853868,0.413350677391278,1690,0,9.490905675714744,10.320753151632937,108.74360681975377,0.11856670825630956,0.12893371504536583,0.189453125,,
2.603160000000149,1200,,,,-0.09375,0.205078125,-1.041015625,0.05830553937451437,1.22369772791505,22.960764107305977,0.4121545539391226,1690,0,9.46338348874811,10.321297427274825,109.06561526907123,0.11856045584747266,0.1293086906358616,0.189453125,,
2.6105500000002793,1200,,,,-0.03125,0.107421875,-0.97265625,0.05830553937451437,1.22369772791505,22.960727320165315,0.41238491596863674,1690,0,9.468657606505156,10.321024860801558,109.00198623415011,0.11856358689363863,0.12923666466451858,0.189453125,,
2.618535000000149,1200,,,,-0.0625,-0.162109375,-0.88671875,0.05830553937451437,1.22369772791505,22.960691872443558,0.41250090773883075,1690,0,9.471306239694561,10.320423568220907,108.96515546047563,0.11857049469201175,0.1292005238714056,0.189453125,,
2.627910000000149,1200,,,,0.125,-0.03515625,-0.94140625,0.05830553937451437,1.22369772791505,22.960580421194866,0.41418134045599947,1690,0,9.509843976498267,10.320169213977815,108.52090990643073,0.11857341701894313,0.1286769510561037,0.189453125,,
2.635885000000242,1200,,,,-0.09375,0.125,-1.048828125,0.05830553937451437,1.22369772791505,22.960618042437602,0.41431859915072183,1690,0,9.513011102977536,10.321576710603086,108.49957598990368,0.11855724781447173,0.12863411118400117,0.189453125,,
2.6438600000003354,1200,,,,-0.09375,0.1328125,-1.00390625,0.05830553937451437,1.22369772791505,22.960781007587073,0.4143400102174956,1691,0,9.513570237285307,10.323579030035603,108.51424620355176,0.1185342529325152,0.12862655106273033,0.189453125,,
2.651600000000093,1200,,,,0.0625,-0.0703125,-0.87890625,0.05830553937451437,1.068679004240841,22.96064462796801,0.41084857233640554,1691,0,9.433348065324216,10.32438807992345,109.44563911380078,0.10351015440023684,0.1132873500310212,0.189453125,,0.2522400000002235,7895,
2.6593750000004657,1200,,,,-0.09375,0.013671875,-0.87890625,0.05830553937451437,1.068679004240841,22.960545929435394,0.40898608634799294,1691,0,9.390543820093121,10.323714637483008,109.93734585842796,0.10351690663365647,0.11380373966778885,0.189453125,,
2.668060000000056,1500,,,,0,0,-1.0546875,0.05830553937451437,1.068679004240841,22.960617416466558,0.4086306097782335,1690,0,9.382411095775458,10.321482070181588,110.00884489946255,0.10353929764875709,0.11390238536041405,0.189453125,,
2.6756750000002794,1500,,,,0,0.107421875,-1.044921875,0.05830553937451437,1.068679004240841,22.96071642595641,0.4077738796179829,1690,0,9.362780415820591,10.320609242331129,110.23017505453896,0.10354805410687723,0.11414120130757949,0.1875,,
2.6828650000002234,1500,,,,-0.0625,0.025390625,-0.935546875,0.05830553937451437,1.068679004240841,22.960945466526585,0.40751238998393935,1690,0,9.356869763355146,10.320280539328781,110.2962935291319,0.10355135213314139,0.11421330330215462,0.189453125,,
2.6915350000001492,1500,,,,-0.25,-0.1171875,-0.828125,0.05830553937451437,1.068679004240841,22.961030175329558,0.4075488256227033,1689,0,9.357740883043014,10.311251213973312,110.1895355176818,0.1036420296687776,0.11420267109312399,0.189453125,,
2.6987549999998883,1500,,,,0.3125,0.10546875,-1.171875,0.05830553937451437,1.068679004240841,22.94344292048365,2.0484672417336993,1688,0,46.99889123519772,10.307720468911569,21.931837534907768,0.10367753059117317,0.022738387569460394,0.193359375,,
2.7069799999999815,1500,,,,-0.75,0.109375,-0.70703125,0.05830553937451437,1.068679004240841,22.910990962150258,2.994968019580343,1688,0,68.6176852285343,10.306313818480046,15.019908911462698,0.10369168095043002,0.015574396027519106,0.19921875,,
2.7150400000000374,1500,,,,-0.75,-0.498046875,-0.75390625,0.05830553937451437,1.068679004240841,22.883491043362614,3.6311190396250312,1825,0,83.09268002064286,11.143525995825128,13.410959898100197,0.09590133362108337,0.012861289393666772,0.21484375,,
2.7325750000001863,1500,,,,0.625,0.54296875,-0.6796875,0.05830553937451437,1.068679004240841,22.84711216106753,4.582265676908175,1894,0,104.69153787213111,11.561435948165679,11.043333762358776,0.09243479867311777,0.010207883330036777,0.224609375,,
2.750405000000261,1500,,,,-0.09375,-0.2734375,-0.763671875,0.05481258723716611,1.068679004240841,22.823201759513253,5.171995480591316,2784,0,118.04149635282631,15.97992598729256,13.537549489823919,0.06687634254943785,0.00905341796961432,0.236328125,,
2.765899999999907,1500,,,,-0.5625,-0.8046875,-0.71484375,0.05481258723716611,1.068679004240841,22.816182533964515,5.309533474413505,3243,0,121.14328492241334,18.61383968774771,15.36514359806985,0.057413141091157215,0.008821611572818753,0.251953125,,
2.773060000000056,1500,,,,0.15625,0.1953125,-1.099609375,0.05481258723716611,1.068679004240841,22.81449510770812,5.321664621795744,3373,0,121.41109147882237,19.358147395997435,15.944298960012283,0.055205644547463524,0.008802153009449303,0.25390625,,
2.781260000000242,1500,,,,0.1875,0.1171875,-0.95703125,0.05481258723716611,1.068679004240841,22.813285457411595,5.323416524009623,3505,0,121.44462077093333,20.116684375979847,16.564491904440608,0.05312401309615852,0.008799722848627147,0.25390625,,
2.788935000000056,1500,,,,-0.09375,-0.34765625,-0.888671875,0.05481258723716611,1.068679004240841,22.813036854249415,5.296782035307968,3583,0,120.83568378040691,20.56872622309146,17.022063002904616,0.05195649903887046,0.00884406800050006,0.259765625,,
2.798660000000149,1500,,,,0.15625,0.1015625,-1.02734375,0.05481258723716611,1.068679004240841,22.81275853941363,5.2734528678751,3651,0,120.30200694381297,20.955656704194237,17.419207905635,0.05099716125942008,0.008883301545750334,0.265625,,
2.806790000000503,1500,,,,0.21875,-0.009765625,-0.87890625,0.05481258723716611,1.0031651942556792,22.812429622665658,5.249787784832803,3720,0,119.76041437542816,21.351962678223593,17.828898463300977,0.04698234112589499,0.008376433895017514,0.271484375,,
2.815095000000205,1500,,,,-0.1875,-0.0390625,-1.0625,0.05481258723716611,1.0031651942556792,22.81301759290049,5.202796467880212,3778,0,118.6914873540318,21.686241721700355,18.27110115910406,0.04625813947521673,0.008451871457836296,0.271484375,,
2.831070000000298,1500,,,,-0.09375,-0.189453125,-1.017578125,0.05481258723716611,1.0031651942556792,22.815339948923672,5.076349864780459,3821,0,115.81864786463889,21.933754040333945,18.938015979921172,0.0457361376630266,0.008661517059222723,0.27734375,,
2.8390250000003725,1500,,,,-0.228515625,-0.03125,-0.97265625,0.05481258723716611,1.0031651942556792,22.816867116452297,5.008801917933137,3849,0,114.28516777411178,22.093435143489074,19.331848194997132,0.04540557807061124,0.008777737424671474,0.283203125,,
2.8492500000004655,1500,,,,-0.125,0.0625,-0.86328125,0.05481258723716611,1.0031651942556792,22.818963363961913,4.920395952879274,3880,0,112.27833498493862,22.270781213776683,19.835332628297486,0.04504400562451407,0.008934628344731394,0.287109375,,
2.858464999999851,1500,,,,0.28125,0.001953125,-1.09765625,0.05481258723716611,1.0031651942556792,22.820549376385294,4.847558372782367,3898,0,110.62394520098995,22.376945398483063,20.227940124379884,0.044830300847214115,0.00906824641295384,0.29296875,,
2.867130000000354,1500,,,,-0.375,0.091796875,-1.005859375,0.05481258723716611,1.0031651942556792,22.822514801704266,4.771685741600288,3911,0,108.90186846675375,22.44907680027964,20.61404190427921,0.04468625606212827,0.009211643550100629,0.296875,,
2.8750750000001863,1500,,,,-0.0625,-0.0859375,-0.88671875,0.05481258723716611,1.0031651942556792,22.82424670439748,4.705485569090851,3921,0,107.39916349291177,22.50633781956434,20.955785024386838,0.0445725645059698,0.009340530797727183,0.302734375,,
2.887709999999963,1500,,,,-0.375,0.23828125,-0.94140625,0.05481258723716611,1.0031651942556792,22.825994908332117,4.631789290415385,3929,0,105.72519875948879,22.55165737484149,21.330446893879675,0.04448299198509485,0.00948842098218941,0.306640625,,
2.9065900000003166,1500,,,,0.03125,0.046875,-1.0859375,0.13276179685937428,1.0031651942556792,22.829996922608597,4.460105469400739,3940,0,101.82419414092865,54.7725221344267,53.79126502942846,0.018315117784673828,0.009851933548005886,0.318359375,,
2.9138800000003537,1500,,,,-0.3125,0.05078125,-0.75390625,0.13276179685937428,1.0031651942556792,22.83126414311038,4.405073274262212,3944,0,100.57339149443668,54.83868524307346,54.52603758132878,0.01829302051661398,0.009974459241649122,0.3203125,,
2.9215250000003725,1500,,,,0.09375,-0.00390625,-1.14453125,0.13276179685937428,1.0031651942556792,22.83232094120646,4.3601472083601,3947,0,99.55228041218321,54.87043849247134,55.117209033572564,0.01828243443677458,0.0100767676049429,0.32421875,,
2.930165000000503,1500,,,,-0.6875,0.2734375,-0.90625,0.13276179685937428,1.0031651942556792,22.83377611325738,4.299765444375496,3948,0,98.1798814963907,54.89292273653553,55.91056120652733,0.018274945917354013,0.010217624822581983,0.328125,,
2.938320000000298,1500,,,,0.28125,-0.005859375,-0.9140625,0.13276179685937428,1.0031651942556792,22.83524666174159,4.251285583071224,3949,0,97.07915491893732,54.90044749722376,56.552251142963215,0.01827244111819686,0.010333476791112763,0.330078125,,
2.9470449999999255,1500,,,,0,0.232421875,-1.1171875,0.13276179685937428,1.0031651942556792,22.836458844732128,4.200248339302649,3953,0,95.91879833813942,54.95564629799097,57.29392699881165,0.018254087829594905,0.010458483755387068,0.337890625,,
2.9554400000004097,1500,,,,-0.4375,0.005859375,-0.927734375,0.13276179685937428,3.644188993696485,22.837606370694836,4.156311697201851,3955,0,94.92021049461044,54.990603260091724,57.93350327980371,0.06626930380196754,0.03839212929161594,0.341796875,,
2.9642000000001865,1500,,,,0.6875,0.04296875,-1.11328125,0.13276179685937428,3.644188993696485,22.838921113654624,4.102817414309769,3957,0,93.70392326914924,55.00756915109057,58.70359237050331,0.06624886447330378,0.03889046335049544,0.34765625,,
2.971979999999981,1500,,,,-0.5,-0.017578125,-0.921875,0.13276179685937428,3.644188993696485,22.840083928744345,4.064606782025749,3957,0,92.83596003881159,55.011249704740884,59.25640202540323,0.06624443206172842,0.039254066981942906,0.349609375,,
2.9802050000000744,1500,,,,0.5,0.083984375,-0.962890625,0.13276179685937428,3.644188993696485,22.841171817263433,4.024555203259276,3958,0,91.9255568857067,55.020764600935,59.85361031790502,0.0662329762250261,0.0396428274916778,0.35546875,,
2.989325000000186,1500,,,,-0.9375,0.11328125,-0.84765625,0.13276179685937428,3.644188993696485,22.84257023476674,3.9793036171290646,3958,0,90.897522359732,55.024829453966724,60.53501572485431,0.0662280833917928,0.0400911806954914,0.359375,,
2.998220000000205,1500,,,,0.5,0.0078125,-1.0703125,0.13276179685937428,3.644188993696485,22.843520024723173,3.9370007640317026,3959,0,89.93495579050862,55.034949903572354,61.194170186472164,0.06621590462209066,0.04052027336495425,0.361328125,,
3.007160000000149,1500,,,,-0.125,-0.015625,-0.810546875,0.13276179685937428,3.644188993696485,22.844513428399196,3.900466534418934,3959,0,89.10426012255502,55.03864198300678,61.768810949449545,0.06621146275414337,0.040898033255472026,0.3671875,,
3.0154050000002606,1500,,,,-0.28125,-0.05078125,-0.9453125,0.13276179685937428,3.644188993696485,22.84537099614492,3.869028029288447,3958,0,88.38938072357801,55.02755461669736,62.25584359368486,0.0662248035385295,0.041228810111172,0.37109375,,
3.023195000000298,1500,,,,0.1875,0.2890625,-1.1015625,0.13276179685937428,3.644188993696485,22.846218119698616,3.8355726626072353,3957,0,87.62832966387809,55.01498985151851,62.782196194476406,0.06623992849097834,0.04158688186428689,0.373046875,,
3.03156500000041,1500,,,,-0.25,-0.02734375,-0.919921875,0.13276179685937428,3.644188993696485,22.846787926029307,3.809007080283466,3958,0,87.02357697198043,55.02839009431361,63.233886733972646,0.06622379806951792,0.04187588146221372,0.376953125,,
3.0405900000003165,1500,,,,0.46875,0.07421875,-0.9921875,0.13276179685937428,3.644188993696485,22.847529857829876,3.781886601711506,3960,0,86.4067670515304,55.05218875375222,63.71282091936242,0.06619517000490023,0.042174810122489595,0.3828125,,
3.048410000000149,1500,,,,-0.3125,0.095703125,-1.076171875,0.16429288528017472,3.644188993696485,22.84828796488804,3.748038682580357,3960,0,85.6362671231356,68.12885242725288,79.55607444833043,0.05348965766871977,0.0425542718770838,0.38671875,,
3.0572000000001864,1500,,,,0.625,-0.10546875,-0.80859375,0.16429288528017472,3.644188993696485,22.84891037649359,3.7270587569239244,3959,0,85.15923150488035,68.10984845994498,79.97940711341637,0.053504582319539466,0.042792647717677455,0.388671875,,
3.064445000000298,1500,,,,-0.53125,0.10546875,-0.986328125,0.16429288528017472,3.644188993696485,22.84949590918198,3.700556407430032,3960,0,84.55584849326968,68.13287950987387,80.57737072474293,0.05348649609280591,0.043098012244375365,0.392578125,,
3.072355000000447,1500,,,,0.6875,-0.11328125,-1.03125,0.16429288528017472,3.644188993696485,22.849970862287332,3.678681130483863,3960,0,84.0577566432025,68.13345425230823,81.05552297988669,0.053486044905363454,0.04335339341929939,0.39453125,,
3.080200000000186,1500,,,,-0.65625,0.099609375,-0.857421875,0.16429288528017472,3.644188993696485,22.85035199934277,3.655697852783284,3960,0,83.53398273933958,68.12620906350045,81.5550831283626,0.0534917331199177,0.043625227412750746,0.400390625,,
3.088625,1500,,,,-0.0625,0.095703125,-1.029296875,0.16429288528017472,3.644188993696485,22.85096101851426,3.634198104147088,3960,0,83.04491921142353,68.12321205933605,82.03176390105408,0.053494086428607576,0.04388214268014118,0.404296875,,
3.097345000000205,1500,,,,0.28125,0.111328125,-1.05078125,0.16429288528017472,3.644188993696485,22.851566442383415,3.61436789993398,3959,0,82.59396821255915,68.12197352982753,82.47814580661954,0.05349505900766159,0.04412173276767629,0.40625,,
3.1055100000002422,1500,,,,-0.5625,-0.078125,-0.96484375,0.16429288528017472,5.29171642396681,22.85197453635192,3.594482482963869,3959,0,82.14102217205337,68.11399209151617,82.92323408009698,0.07768912467877379,0.06442233471215797,0.408203125,,
3.114404999999795,1500,,,,0.25,0.033203125,-1.080078125,0.16429288528017472,5.29171642396681,22.852421641726483,3.5772991526904088,3959,0,81.74994857587211,68.11328731471512,83.31905830069017,0.07768992853797549,0.06473051685232034,0.41015625,,
3.1223950000000187,1500,,,,-0.5625,-0.09765625,-0.9609375,0.16429288528017472,5.29171642396681,22.85305188781209,3.560745560425053,3960,0,81.37390305169028,68.13332423222384,83.72871605893629,0.07766708117646898,0.06502964986950927,0.4140625,,
3.1304550000000746,1500,,,,0.1875,0.15234375,-1.03125,0.16429288528017472,5.29171642396681,22.853493643039585,3.54203113323655,3959,0,80.94778598686979,68.11071327575277,84.14153944469925,0.07769286459448439,0.06537197230848485,0.416015625,,
3.138540000000037,1500,,,,-0.4375,0.033203125,-0.91796875,0.16429288528017472,5.29171642396681,22.85381159764753,3.5261104662021125,3959,0,80.58506426707618,68.11710460318331,84.52820038391808,0.07768557478762116,0.06566621832587895,0.41796875,,
3.146285000000149,1500,,,,0.375,-0.177734375,-0.857421875,0.16429288528017472,5.29171642396681,22.85401796835176,3.5110801519400727,3960,0,80.24228888076165,68.1298286450532,84.9051411610313,0.07767106609846192,0.065946728312177,0.421875,,
3.1545449999999255,1500,,,,-0.625,0.13671875,-1.12890625,0.16429288528017472,5.29171642396681,22.854571321235845,3.497513358020773,3960,0,79.93416848786084,68.12465912041358,85.22595581983103,0.07767696003606345,0.06620093164252323,0.42578125,,
3.163235000000335,1500,,,,0.40625,-0.099609375,-0.94921875,0.16429288528017472,5.29171642396681,22.85516702006796,3.482202646180843,3960,0,79.58632307618578,68.1224844489499,85.59571772619542,0.07767943971468559,0.0664902739494724,0.427734375,,
3.1718999999999067,1500,,,,-0.09375,0.2265625,-1.029296875,0.16429288528017472,5.29171642396681,22.855207691846125,3.468815581018704,3959,0,79.28050054889437,68.12175733545403,85.92498390375519,0.0776802688443378,0.06674675850089103,0.431640625,,
3.180350000000093,1500,,,,0,-0.078125,-0.953125,0.16429288528017472,5.29171642396681,22.85554260000011,3.4576271165776835,3959,0,79.02594385785679,68.12145195781329,86.20137720891091,0.07768061707263521,0.06696176174099193,0.4296875,,
3.1886750000002793,1500,,,,-0.1875,0.18359375,-0.95703125,0.16429288528017472,5.29171642396681,22.855663715648845,3.4465952445676646,3959,0,78.77422187379302,68.12134766531918,86.47670017541881,0.07768073600018989,0.06717573716494282,0.435546875,,
3.197870000000112,1500,,,,0.125,-0.09765625,-1.12109375,0.1683718279161107,5.29171642396681,22.8558738189131,3.4375521771002076,3959,0,78.56825880573236,69.81257261452726,88.85594981447356,0.07579890305984312,0.06735183526277569,0.435546875,,
3.2055800000000745,1500,,,,-0.03125,-0.0078125,-0.875,0.1683718279161107,5.29171642396681,22.855955187845304,3.4274200614107335,3959,0,78.33695933352573,69.79590927874493,89.09703653620686,0.07581699957275728,0.06755069980999535,0.4375,,
3.213415000000503,1500,,,,-0.375,-0.033203125,-0.9765625,0.1683718279161107,5.29171642396681,22.85636342298488,3.4165964021230284,3959,0,78.09096903658653,69.8114669909048,89.39761902326673,0.07580010350815615,0.06776348775346326,0.439453125,,
3.221405000000261,1500,,,,0.3125,0.1015625,-1.12109375,0.1683718279161107,5.29171642396681,22.85660020684726,3.4070659077973184,3960,0,77.87394333290244,69.82750131046998,89.66734997862531,0.07578269771445147,0.06795233678286088,0.44140625,,
3.2289599999999625,1500,,,,-1,-0.0078125,-0.52734375,0.1683718279161107,5.29171642396681,22.856669066062164,3.4004668593700473,3960,0,77.72334567473293,69.81843344926007,89.82942363475398,0.07579254020089864,0.06808400202060645,0.4453125,,
3.2376200000001116,1500,,,,0.34375,0.169921875,-1.044921875,0.1683718279161107,5.29171642396681,22.85657085178262,3.392078884959827,3960,0,77.53129136892008,69.83049583840753,90.06749998027304,0.07577944793936732,0.06825265425784069,0.447265625,,
3.247,1500,,,,-0.34375,0.197265625,-1.07421875,0.1683718279161107,5.29171642396681,22.85686666220041,3.3827381535376455,3961,0,77.31879492854799,69.83551658807332,90.32152745346053,0.07577399985712345,0.0684402340835369,0.451171875,,
3.2551450000004842,1500,,,,-0.0625,-0.197265625,-0.787109375,0.1683718279161107,5.975463921330219,22.857262362281396,3.374238966320434,3961,0,77.12586532621934,69.83180239343723,90.54265011882796,0.08556937837096111,0.07747678286727538,0.453125,,
3.262200000000186,1500,,,,-0.125,0.26953125,-1.37109375,0.1683718279161107,5.975463921330219,22.857293792894612,3.367714063653922,3960,0,76.97682976340069,69.82103663840711,90.70396488529349,0.08558257237394323,0.07762678639399236,0.455078125,,
3.270170000000391,1500,,,,0.0625,-0.203125,-0.875,0.1683718279161107,5.975463921330219,22.85732838430594,3.359255325958614,3961,0,76.78360211216473,69.83150579874994,90.94585807102507,0.08556974180896419,0.07782213593732318,0.458984375,,
3.2773450000002047,1500,,,,-0.25,0.53125,-0.92578125,0.1683718279161107,5.975463921330219,22.857561672612086,3.3516883224743426,3960,0,76.61142253833103,69.81343344150109,91.12666379033924,0.08559189294617993,0.07799703651685246,0.4609375,,
3.285070000000298,1500,,,,0.03125,-0.099609375,-0.978515625,0.1683718279161107,5.975463921330219,22.857582766869072,3.3466599724360573,3958,0,76.49655731252494,69.7820428206602,91.22246186265252,0.08563039543980043,0.0781141548229105,0.46484375,,
3.293845000000205,1500,,,,-0.25,0.09765625,-0.87890625,0.1683718279161107,5.975463921330219,22.85784777760244,3.3421290555270504,3961,0,76.39387720433953,69.83338458906978,91.41227954994136,0.08556743964928043,0.07821914713592759,0.462890625,,
3.3017600000002423,1500,,,,0.125,-0.01171875,-1.06640625,0.1683718279161107,5.975463921330219,22.85788995244392,3.332979811028272,3960,0,76.18488573420157,69.82045743622918,91.6460748918401,0.08558328233222957,0.07843371902109006,0.466796875,,
3.308530000000261,1500,,,,-0.1875,0.05078125,-0.78125,0.1683718279161107,5.975463921330219,22.85798208931332,3.3266597390347954,3960,0,76.04072873209708,69.82085395156324,91.82033775288056,0.08558279630145418,0.07858241262235502,0.466796875,,
3.315530000000261,1500,,,,0.125,0.052734375,-1.123046875,0.1683718279161107,5.975463921330219,22.858154445216165,3.321561062906096,3960,0,75.9247557751239,69.83068999631865,91.9735457604173,0.08557074148408435,0.07870244507639271,0.46875,,
3.3237150000003166,1500,,,,0.09375,0.087890625,-1.05078125,0.1683718279161107,5.975463921330219,22.858345313571846,3.3175264862485285,3960,0,75.83316600958952,69.8196325950528,92.07004832980826,0.08558429340336604,0.07879750029920402,0.470703125,,
3.331670000000391,1500,,,,-0.4375,-0.24609375,-0.93359375,0.1683718279161107,5.975463921330219,22.858506586129668,3.3144048367645182,3960,0,75.76234479028177,69.81558506704643,92.15077128394506,0.08558925511534086,0.07887115872497001,0.47265625,,
3.340314999999944,1500,,,,-0.03125,0.23828125,-1.072265625,0.1683718279161107,5.975463921330219,22.858371863832506,3.316723443370882,3960,0,75.81489783806263,69.81365429002588,92.08434790632423,0.08559162218477252,0.07881648715129252,0.4765625,,
3.3508700000005773,1500,,,,-0.4375,0.05859375,-0.908203125,0.16999109249659455,5.975463921330219,22.858158242789923,3.3182373611067892,3960,0,75.84879468731664,70.50013648139027,92.94826209437345,0.08475818941013746,0.07878126403938003,0.478515625,,
3.3602999999998135,1500,,,,0.375,-0.107421875,-0.861328125,0.16999109249659455,5.975463921330219,22.85779841644568,3.3215423330432756,3961,0,75.92314508039387,70.50715541684653,92.86648405066408,0.08474975179473032,0.07870411473343064,0.482421875,,
3.3686750000002794,1500,,,,-0.0625,0.20703125,-1.146484375,0.16999109249659455,5.975463921330219,22.857633121631434,3.322178961202615,3965,0,75.937147859572,70.58289245191548,92.9490959845398,0.0846588134001592,0.07868960172668643,0.48828125,,
3.3802600000002423,1500,,,,0,-0.2421875,-0.86328125,0.16999109249659455,5.975463921330219,22.857418627372233,3.3259859201373456,3968,0,76.02345252532514,70.64334423264292,92.92309397433642,0.08458636813189079,0.07860027034867505,0.48828125,,
3.3877400000002234,1500,,,,0.01953125,0.076171875,-0.9921875,0.16999109249659455,5.975463921330219,22.85735002951146,3.324515861408644,3970,0,75.98962272288017,70.67317681288345,93.003721140471,0.08455066251162087,0.07863526238472862,0.490234375,,
3.3964550000000746,1500,,,,-1.0625,-0.04296875,-0.93359375,0.16999109249659455,5.975463921330219,22.85688652721653,3.321793817858676,3971,0,75.92586436160514,70.69584726424638,93.11167921322537,0.08452354915551372,0.0787012959493148,0.494140625,,
3.4042100000004285,1500,,,,0.46875,0.087890625,-1.013671875,0.16999109249659455,6.259154880281467,22.857234651759402,3.312385628267752,3971,0,75.71197556243149,70.69409084759803,93.37240287608695,0.08853858653865317,0.08267060572366412,0.49609375,,
3.411584999999963,1500,,,,-0.75,-0.0234375,-0.7734375,0.16999109249659455,6.259154880281467,22.857532838260635,3.306629363721544,3972,0,75.58138926522206,70.70839827066867,93.5526575497923,0.08852067128322855,0.08281344046637613,0.498046875,,
3.4196200000001116,1500,,,,0.34375,0.0625,-1.1171875,0.16999109249659455,6.259154880281467,22.85784770457125,3.2980111028450616,3972,0,75.38543551681748,70.69908188868497,93.78347608393528,0.0885323361077934,0.08302870226020162,0.498046875,,
3.427725000000093,1500,,,,-0.21875,0.02734375,-0.876953125,0.16999109249659455,6.259154880281467,22.85795457439676,3.292560127180481,3970,0,75.26118982056146,70.66344302775785,93.89094591280632,0.08857698708259602,0.08316577103291367,0.5,,
3.4356150000002237,1500,,,,0.3125,0.12109375,-1.2421875,0.16999109249659455,6.259154880281467,22.858119294544036,3.294983718778679,3967,0,75.31713091742338,70.61808370635656,93.76098484656991,0.08863388174491149,0.08310400043177314,0.5,,
3.4435300000002607,1500,,,,-0.28125,0.14453125,-0.888671875,0.16999109249659455,6.259154880281467,22.85762338995117,3.308265572799128,3969,0,75.61908853698355,70.64755166375211,93.42555303241987,0.08859691146937394,0.08277215450990605,0.50390625,,
3.4515600000000557,1500,,,,0.375,-0.10546875,-0.99609375,0.16999109249659455,6.259154880281467,22.857154377068248,3.314049097134348,3970,0,75.74973182638344,70.68022241304736,93.30755463932826,0.088555959030571,0.08262939985883118,0.50390625,,
3.4597299999999813,1500,,,,-0.25,0.140625,-1.029296875,0.16999109249659455,6.259154880281467,22.857295578611872,3.3018306103594646,3973,0,75.47091821149473,70.72792695816702,93.71547164692461,0.08849622984119879,0.08293465918542589,0.5078125,,
3.4676200000001116,1500,,,,-0.09375,-0.146484375,-0.748046875,0.16999109249659455,6.259154880281467,22.857555736017197,3.2915023622103194,3976,0,75.23569869945464,70.76999533635461,94.06438241380697,0.08844362431469788,0.08319394899600815,0.509765625,,
3.4762999999998137,1500,,,,0.0625,0.30078125,-1.41796875,0.16999109249659455,6.259154880281467,22.85769026425588,3.283664611441204,3976,0,75.05698862002117,70.77104964421152,94.28975361973635,0.08844230673062249,0.08339203311191545,0.51171875,,
3.484880000000354,1500,,,,-0.125,-0.177734375,-0.869140625,0.16999109249659455,6.259154880281467,22.857933356953573,3.274864276569364,3975,0,74.85662938689049,70.75554472674462,94.52141421042384,0.08846168741197738,0.08361523797620551,0.515625,,
3.492875,1500,,,,0.34375,0.119140625,-1.03125,0.17059125799877048,6.259154880281467,22.858261066957525,3.2719414170320147,3972,0,74.79089110630873,70.96539925633404,94.8850832054707,0.08820009393130841,0.08368873251402532,0.517578125,,
3.502785000000149,1500,,,,-1,-0.1015625,-0.88671875,0.17059125799877048,6.259154880281467,22.858278644876595,3.269540749107471,3970,0,74.73607348387712,70.92281959365684,94.8977064054042,0.08825304628527868,0.08375011675762924,0.521484375,,
3.5123500000000933,1500,,,,-0.125,0.125,-0.98046875,0.17059125799877048,6.259154880281467,22.858769118531114,3.2613232003712262,3968,0,74.54983405819485,70.88084967716759,95.07848082107978,0.08830530261402453,0.08395934020987178,0.5234375,,
3.520595000000205,1500,,,,0.375,0.087890625,-1.013671875,0.17059125799877048,6.259154880281467,22.85890483390809,3.260784064235454,3966,0,74.53795260828228,70.85355569787151,95.05701889911936,0.08833931929925003,0.08397272344164147,0.525390625,,
3.528110000000335,1500,,,,-0.6875,-0.125,-0.88671875,0.17059125799877048,6.259154880281467,22.859088690508106,3.257551555530808,3966,0,74.46465992178138,70.8438495615672,95.1375452946169,0.08835142244552814,0.08405537454755266,0.529296875,,
3.53544000000041,1500,,,,0.375,-0.015625,-1.04296875,0.17059125799877048,6.259154880281467,22.859305605348695,3.255638875955743,3965,0,74.42164400612624,70.82525191953431,95.16754549752235,0.08837462219538014,0.08410395878605188,0.529296875,,
3.5439849999998696,1500,,,,-0.5,-0.10546875,-0.98828125,0.17059125799877048,6.259154880281467,22.85940785965292,3.2519107267647054,3963,0,74.33675362629474,70.80059221907561,95.24305106865967,0.08840540289428653,0.08420000302605965,0.529296875,,
3.5517949999999257,1500,,,,0.15625,0.134765625,-1.0703125,0.17059125799877048,6.380510054302363,22.859625813879347,3.2507409795426754,3963,0,74.31072241018917,70.79138289036004,95.26402192619975,0.09013116842461377,0.0858625760503641,0.53125,,
3.5597200000002047,1500,,,,-0.59375,0.033203125,-0.900390625,0.17059125799877048,6.380510054302363,22.859741518025857,3.2518179861387932,3963,0,74.3357186268002,70.78759836955848,95.22689721336397,0.09013598711163846,0.08583370379905095,0.53515625,,
3.5677400000002235,1500,,,,0.8125,0.125,-1.1640625,0.17059125799877048,6.380510054302363,22.85995228874901,3.2481325132364165,3962,0,74.2521542801189,70.7860858463272,95.33202980116128,0.09013791309430655,0.08593030217320917,0.537109375,,
3.576485000000335,1500,,,,-0.46875,0.02734375,-0.91015625,0.17059125799877048,6.380510054302363,22.859740613101664,3.2491071247122885,3962,0,74.27374609510348,70.78546912139088,95.30348587878407,0.09013869842919806,0.08590532172879052,0.5390625,,
3.585799999999814,1500,,,,0.375,-0.1015625,-0.888671875,0.17059125799877048,6.380510054302363,22.859682004333102,3.247322659400338,3961,0,74.23276335935702,70.7685092530482,95.33325455023336,0.09016030041677806,0.08595274869958214,0.54296875,,
3.5938350000004284,1500,,,,-0.0625,0.203125,-1.1015625,0.17059125799877048,6.380510054302363,22.859847567686103,3.2431961534339844,3960,0,74.13896969960679,70.74548240645683,95.42280219579588,0.09018964656490948,0.08606148804272098,0.546875,,
3.6025950000002047,1500,,,,0,-0.203125,-0.87890625,0.17059125799877048,6.380510054302363,22.86004999054905,3.2423137373810773,3960,0,74.11945412157536,70.745715855765,95.44824188764728,0.09018934895380554,0.08608414794632259,0.544921875,,
3.611560000000056,1500,,,,-0.125,0.1640625,-0.939453125,0.17059125799877048,6.380510054302363,22.860047222184615,3.2440239807037052,3961,0,74.15854138878602,70.75428150028509,95.40948375635702,0.09017843046398054,0.0860387749652692,0.55078125,,
3.6207700000000185,1500,,,,-0.46875,0.044921875,-0.9375,0.17059125799877048,6.380510054302363,22.860118170859685,3.2410653728645427,3961,0,74.09113742316485,70.7572775708494,95.50032572279945,0.09017461204486771,0.08611704822211941,0.548828125,,
3.628350000000093,1500,,,,0.6875,0.18359375,-1,0.17059125799877048,6.380510054302363,22.860047756162473,3.2407112554407966,3960,0,74.08281406330985,70.74252985886305,95.491148322751,0.09019341076763845,0.0861267236534737,0.552734375,,
3.6369750000000933,1500,,,,-0.34375,-0.0703125,-0.935546875,0.17059125799877048,6.380510054302363,22.859946679225054,3.237795555095038,3960,0,74.01583374770446,70.73661217205631,95.56956747008223,0.09020095617221134,0.08620466366766082,0.552734375,,
3.645030000000261,1500,,,,0.4375,0.09375,-1.076171875,0.17077708886483298,6.380510054302363,22.859949317721235,3.23696226068255,3960,0,73.99679322257944,70.81135747876016,95.69517055389466,0.09010574407101565,0.08622684546761425,0.5546875,,
3.655720000000205,1500,,,,-0.28125,0.125,-0.841796875,0.17077708886483298,6.380510054302363,22.859625494553235,3.23537035749799,3960,0,73.95935470858286,70.81596750750617,95.74984501492425,0.09009987830253195,0.08627049383330969,0.5546875,,
3.663235000000335,1500,,,,0.5625,-0.10546875,-1.03515625,0.17077708886483298,6.380510054302363,22.859587338330826,3.2363669579243464,3961,0,73.98201313355965,70.82947818302071,95.738781878174,0.09008269181110391,0.08624407182302049,0.5546875,,
3.670729999999981,1500,,,,-0.34375,0.234375,-1.0546875,0.17077708886483298,6.380510054302363,22.859518596846687,3.2404881978974096,3960,0,74.07600022269804,70.81837248144461,95.60231690228972,0.09009681853355418,0.08613464597332936,0.55859375,,
3.6790000000004657,1500,,,,-0.125,-0.150390625,-0.771484375,0.17077708886483298,6.380510054302363,22.85932733344443,3.2372930086375455,3961,0,74.0023405587168,70.8296378166831,95.712699465882,0.09008248878549972,0.0862203817626522,0.560546875,,
3.686665000000503,1500,,,,0.125,0.34375,-1.4375,0.17077708886483298,6.380510054302363,22.859356481438013,3.235448239183858,3960,0,73.96026467674473,70.82831674628964,95.76536408550757,0.09008416897944434,0.08626943240656873,0.5625,,
3.694485000000335,1500,,,,-0.15625,-0.13671875,-0.84765625,0.17077708886483298,6.380510054302363,22.85938826365207,3.233438220231337,3960,0,73.91441970280027,70.8170965363485,95.80958197479507,0.09009844185051302,0.08632294050278035,0.564453125,,
3.702785000000149,1500,,,,-0.125,0.37890625,-1.1015625,0.17077708886483298,6.440867193248388,22.85935282304941,3.2326011899430562,3961,0,73.89517113711769,70.8285684998994,95.85006355621265,0.09093600689187352,0.08716222040134268,0.564453125,,
3.7112099999999626,1500,,,,-0.1875,-0.119140625,-0.953125,0.17077708886483298,6.440867193248388,22.859287650169353,3.2326577391060782,3961,0,73.89625313277196,70.83304467409394,95.85471748726658,0.09093026034505662,0.08716094416419,0.56640625,,
3.718410000000149,1500,,,,0.25,0.21484375,-0.9765625,0.17077708886483298,6.440867193248388,22.859192404015193,3.2312303090249896,3961,0,73.8633153356877,70.83484411046142,95.89989805972999,0.09092795041949069,0.08719981176009341,0.568359375,,
3.7263400000003166,1500,,,,-0.875,0.078125,-0.92578125,0.17077708886483298,6.440867193248388,22.85922819426875,3.231631511261308,3960,0,73.87260215571182,70.82053506211402,95.86847220141979,0.09094632210275376,0.08718884952329219,0.572265625,,
3.735610000000335,1500,,,,0.28125,0.125,-1.05078125,0.17077708886483298,6.440867193248388,22.859516325844172,3.231236739708536,3960,0,73.86450900403477,70.81337314446664,95.86928025284584,0.09095552022509011,0.08719840259002551,0.5703125,,
3.743904999999795,1500,,,,-0.40625,-0.109375,-0.861328125,0.17077708886483298,6.440867193248388,22.859339094798777,3.230051743279883,3961,0,73.83684809338077,70.83266323653325,95.9313202900425,0.0909307500092188,0.08723106903348155,0.5703125,,
3.7521800000001675,1500,,,,0.15625,0.005859375,-1.18359375,0.17077708886483298,6.440867193248388,22.859372543866137,3.2313372693386424,3961,0,73.86634245469114,70.84010793751598,95.90309413379792,0.0909211939503185,0.08719623822174695,0.572265625,,
3.7596450000004844,1500,,,,-0.375,0.12109375,-0.69140625,0.17077708886483298,6.440867193248388,22.859339857880258,3.229438397655826,3960,0,73.82282988210278,70.82233589362157,95.9355473187995,0.09094400956956389,0.0872476333342225,0.5703125,,
3.7678700000001117,1500,,,,0.15625,0.0078125,-1.00390625,0.17077708886483298,6.440867193248388,22.85937281520401,3.2244619388242834,3961,0,73.70917758801984,70.8306958274604,96.09481226795388,0.09093327572184211,0.08738216059400505,0.572265625,,
3.7757450000001116,1500,,,,-0.625,0.29296875,-1.11328125,0.17077708886483298,6.440867193248388,22.859206440243963,3.2239573931257595,3960,0,73.6971076040125,70.81802637866608,96.09335926612448,0.09094954381824877,0.08739647189217109,0.572265625,,
3.783845000000205,1500,,,,0.34375,-0.126953125,-0.892578125,0.17077708886483298,6.440867193248388,22.859309312962484,3.2225440433242007,3960,0,73.66513106099268,70.81311184887116,96.1284000027637,0.09095585584481079,0.08743440893243683,0.57421875,,
3.791630000000354,1500,,,,0.125,0.18359375,-1.126953125,0.17077708886483298,6.440867193248388,22.859343958766793,3.2250645303665073,3960,0,73.72285938886668,70.82714461205411,96.07216160521051,0.090937835042304,0.08736594384212207,0.576171875,,
3.8009200000003913,1500,,,,-0.125,-0.25390625,-0.7734375,0.1707010494264736,6.440867193248388,22.859450911652786,3.223433084436375,3961,0,73.68591036067085,70.80124087209198,96.0851817200069,0.09097110606979786,0.08740975257986552,0.576171875,,
3.815700000000186,1500,,,,-0.0625,0.216796875,-1.046875,0.1707010494264736,6.440867193248388,22.8594970135585,3.220296234882671,3959,0,73.61435216407409,70.76409859283427,96.12812788885641,0.09101885449439757,0.08749472085134664,0.578125,,
3.823945000000298,1500,,,,-0.14453125,0.078125,-0.982421875,0.1707010494264736,6.440867193248388,22.859305679254298,3.221034618663669,3959,0,73.63061495149311,70.76986859590765,96.11473249616334,0.09101143355268061,0.08747539590008241,0.578125,,
3.8322700000000185,1500,,,,-0.25,-0.103515625,-0.935546875,0.1707010494264736,6.440867193248388,22.85912510977869,3.222441346556275,3959,0,73.6621898998536,70.76970377093029,96.0733096139882,0.09101164552131516,0.08743789998647852,0.578125,,
3.840875,1500,,,,0.34375,0.099609375,-1.083984375,0.1707010494264736,6.440867193248388,22.8591689873081,3.2230092821497003,3960,0,73.67531382832257,70.78032271840337,96.07060905547672,0.09099799133260687,0.08742232450148536,0.578125,,
3.863950000000186,1500,,,,-0.103515625,0.0546875,-0.9375,0.1707010494264736,6.45733050070127,22.859076023145853,3.2241830014132025,3960,0,73.70184434183896,70.78881739295366,96.04755216792907,0.09121964087712016,0.08761423215884952,0.578125,,
3.871780000000261,1500,,,,0.25,0.39453125,-1.3046875,0.1707010494264736,6.45733050070127,22.85899542390475,3.2246269660842666,3960,0,73.7117330615201,70.78777560371583,96.03325368111487,0.09122098336371949,0.08760247836408833,0.580078125,,
3.87989000000013,1500,,,,-0.08203125,0.125,-0.990234375,0.1707010494264736,6.45733050070127,22.859044571067088,3.2234818911634533,3960,0,73.685716224133,70.7820560600476,96.05939887283823,0.09122835447480115,0.08763340891007601,0.58203125,,
3.8878100000005213,1500,,,,0.5625,-0.33984375,-0.6953125,0.1707010494264736,6.45733050070127,22.85909197161909,3.2224864116866576,3959,0,73.66311326203808,70.76386085135077,96.06417339384782,0.0912518116311627,0.08766029855038752,0.583984375,,
3.8960449999999254,1500,,,,-0.34375,0.0546875,-1.0703125,0.1707010494264736,6.45733050070127,22.85874506620591,3.2217641236764796,3960,0,73.64548476656893,70.78843472307824,96.12053603483423,0.09122013399451633,0.08768128176722313,0.583984375,,
3.904935000000056,1500,,,,0.8125,-0.1015625,-0.84375,0.1707010494264736,6.45733050070127,22.85875915764689,3.222782624231161,3961,0,73.66881182474933,70.80433675963515,96.11168553671196,0.0911996467479451,0.08765351769297715,0.5859375,,
3.913004999999888,1500,,,,-0.5,0.107421875,-0.939453125,0.1707010494264736,6.45733050070127,22.858722304240747,3.2210990228206136,3961,0,73.63020807711763,70.80969390124434,96.16935188758508,0.09119274699460032,0.08769947375319237,0.587890625,,
3.9218799999998883,1500,,,,0,-0.0625,-0.95703125,0.1707010494264736,6.45733050070127,22.85871926378663,3.2218005671340983,3960,0,73.6462346880269,70.78949543746904,96.12099754636569,0.09121876714611232,0.08768038893033965,0.58984375,,
3.9301800000001674,1500,,,,0.28125,0.126953125,-1.046875,0.1707010494264736,6.45733050070127,22.858788171901946,3.2220943267348137,3962,0,73.65317168471812,70.8156313585537,96.1474295522386,0.0911851010408495,0.08767213078538837,0.58984375,,
3.938265000000596,1500,,,,-0.5625,-0.08203125,-0.9375,0.1707010494264736,6.45733050070127,22.85891431084483,3.2172993744176996,3961,0,73.54397071214888,70.80884687185169,96.28096795180878,0.09119383786022679,0.08780230980422941,0.58984375,,
3.946655000000261,1500,,,,0.34375,0.01953125,-1.052734375,0.1707835287522999,6.45733050070127,22.85906571006758,3.2174689450536236,3961,0,73.54833403508259,70.84041641993664,96.31817953367337,0.09115319794879101,0.08779710085100119,0.587890625,,
3.9547800000002606,1500,,,,-0.53125,-0.015625,-0.884765625,0.1707835287522999,6.45733050070127,22.85891558600669,3.219224297091595,3960,0,73.5879764596385,70.82352801953559,96.24334222368628,0.09117493411116308,0.08774980385882718,0.587890625,,
3.962880000000354,1500,,,,0.625,0.2265625,-1.25390625,0.1707835287522999,6.45733050070127,22.859035195050623,3.219514401395268,3959,0,73.59499301246677,70.8009257885597,96.20345473307705,0.09120404046672327,0.08774143778514139,0.58984375,,
3.9736350000002423,1500,,,,-0.5625,0.033203125,-0.859375,0.1707835287522999,6.45733050070127,22.859082916419915,3.2197901655754784,3959,0,73.60145036836327,70.80797891089647,96.20459726882291,0.09119495571010525,0.08773373987038818,0.58984375,,
3.988770000000019,1500,,,,0,0.27734375,-1.171875,0.1707835287522999,6.45733050070127,22.859606810600646,3.2125519948415637,3960,0,73.4376754606889,70.81619439338404,96.43033218186743,0.09118437605995587,0.08792939673257864,0.59375,,
3.997730000000447,1500,,,,-0.125,-0.41015625,-0.68359375,0.1707835287522999,6.46239030707562,22.859628490956737,3.2108529252370808,3959,0,73.39890501002135,70.7970355411464,96.45516582499465,0.09128052124894065,0.08804477813658518,0.595703125,,
4.005944999999833,1500,,,,-0.03125,0.1640625,-1.107421875,0.1707835287522999,6.46239030707562,22.859516884276115,3.213660977115009,3958,0,73.46273736669983,70.79059190617458,96.36258386726479,0.09128882995696423,0.0879682753287244,0.59765625,,
4.014670000000391,1500,,,,-0.4375,-0.05859375,-0.912109375,0.1707835287522999,6.46239030707562,22.85910021571475,3.214053934396378,3958,0,73.47038098507909,70.78786348973868,96.34884499117379,0.0912923485536811,0.0879591233967883,0.59765625,,
4.023070000000298,1500,,,,0.75,0.28515625,-0.94140625,0.1707835287522999,6.46239030707562,22.85920995946452,3.208835443183184,3958,0,73.35144312109578,70.77902745158961,96.49302650356944,0.09130374547030431,0.08810174731541232,0.599609375,,
4.031070000000298,1500,,,,-0.4375,0,-0.95703125,0.1707835287522999,6.46239030707562,22.859248994873937,3.210388098200409,3957,0,73.38706090694295,70.76760111208166,96.43062446909703,0.09131848763448251,0.08805898788166662,0.599609375,,
4.038060000000056,1500,,,,0.5,0.013671875,-1.052734375,0.1707835287522999,6.46239030707562,22.85928486817565,3.2119175943211244,3956,0,73.42213926169201,70.74760663423953,96.35732130070484,0.09134429579343585,0.0880169165875472,0.599609375,,
4.047125,1500,,,,-1,-0.03515625,-0.8125,0.1707835287522999,6.46239030707562,22.859119599845982,3.2137831193533843,3955,0,73.46425269326511,70.73931927678424,96.29080359959794,0.09135499709560388,0.08796646083174633,0.603515625,,
4.054865000000223,1500,,,,0.4375,0.072265625,-1.064453125,0.1707835287522999,6.46239030707562,22.859162491425735,3.2209370071859826,3957,0,73.62792242191088,70.76774383752397,96.11536154993318,0.0913183034619933,0.08777091753376001,0.6015625,,
4.063005000000354,1500,,,,-0.3125,0.10546875,-0.875,0.1707835287522999,6.46239030707562,22.8584198714223,3.2384568425030174,3961,0,74.02600624141449,70.84237065054899,95.69930116115816,0.09122210687941652,0.08729891878808638,0.603515625,,
4.070850000000093,1500,,,,0.5625,-0.1015625,-0.94921875,0.1707835287522999,6.46239030707562,22.85803969510358,3.2552661660796844,3963,0,74.40900324237708,70.87188267962527,95.24638093695447,0.09118412073640979,0.08684957499061334,0.6015625,,
4.078990000000224,1500,,,,-0.46875,0.205078125,-1.046875,0.1707835287522999,6.46239030707562,22.857841581343777,3.2497420556341563,3968,0,74.28208908791602,70.96310477481028,95.5319184559045,0.09106690480331929,0.08699796123702316,0.60546875,,
4.0870200000000185,1500,,,,0.75,-0.25,-0.74609375,0.1707835287522999,6.46239030707562,22.857751803732665,3.241977334741219,3970,0,74.10431327084152,71.00690455594129,95.82020454925532,0.09101073124493636,0.08720666884067105,0.607421875,,
4.09631500000041,1500,,,,-0.34375,0.189453125,-1.126953125,0.1712871483274835,6.46239030707562,22.858321284689044,3.23899117618983,3972,0,74.03790094361999,71.24340006133878,96.22558061929763,0.09070861724049757,0.0872848936114051,0.609375,,
4.10445500000054,1500,,,,-0.09375,-0.21484375,-0.826171875,0.1712871483274835,6.46239030707562,22.85840304186462,3.234088481727178,3971,0,73.92609798837185,71.22055961704083,96.34021212406397,0.09073770750783842,0.08741689988956425,0.611328125,,
4.113170000000391,1500,,,,0.34375,0.1328125,-1.060546875,0.1712871483274835,6.46239030707562,22.858417672852244,3.2297444511696125,3968,0,73.82684764141194,71.16566308782097,96.3953701957901,0.09080770172970634,0.08753442024863932,0.61328125,,
4.124064999999944,1500,,,,-0.46875,0.0703125,-0.9375,0.1712871483274835,6.46239030707562,22.858512406986367,3.2276488377800754,3966,0,73.77925100379099,71.14536465933358,96.4300446146816,0.09083361000424385,0.08759089065221826,0.615234375,,
4.132430000000167,1500,,,,0.75,-0.03515625,-1.09765625,0.1712871483274835,6.46239030707562,22.858605418016943,3.226946239986994,3966,0,73.7634908050161,71.14146727652978,96.44536409561026,0.09083858619272,0.08760960519287356,0.615234375,,
4.140225000000093,1500,,,,-0.46875,0.0234375,-0.876953125,0.1712871483274835,6.46239030707562,22.858664561698284,3.2255797550151772,3966,0,73.73244563689687,71.13310139776404,96.47462631046639,0.0908492696099253,0.08764649336196355,0.615234375,,
4.148320000000298,1500,,,,0.0625,0.037109375,-1.080078125,0.1712871483274835,6.464645749085483,22.85853392809177,3.221830844855626,3964,0,73.6463296777049,71.09723320512516,96.5387325020334,0.09092682594882565,0.08777960527532629,0.615234375,,
4.1572299999999816,1500,,,,0.28125,0.076171875,-1.09375,0.1712871483274835,6.464645749085483,22.85861467520651,3.225712096942915,3962,0,73.7353098771705,71.06535815081175,96.37900521363999,0.09096760949781607,0.08767367710062382,0.61328125,,
4.1651450000000185,1500,,,,-0.4375,-0.109375,-0.89453125,0.1712871483274835,6.464645749085483,22.85855192930062,3.2250423421776224,3963,0,73.71979785286048,71.08644854156626,96.4278940149155,0.09094062063468289,0.0876921252821184,0.61328125,,
4.17339000000013,1500,,,,0.03125,0.181640625,-1.083984375,0.1712871483274835,6.464645749085483,22.858820435233035,3.2203419647679863,3963,0,73.61321871267695,71.0868019887444,96.56798497863063,0.09094016847331336,0.08781908823085065,0.61328125,,
4.182080000000075,1500,,,,-0.59375,0.03125,-0.908203125,0.1712871483274835,6.464645749085483,22.858812122091106,3.2220143915404496,3962,0,73.65142163089682,71.06179015033784,96.4839355124238,0.09097217696611531,0.08777353655823475,0.615234375,,
4.189754999999888,1500,,,,0.625,0.09375,-1.24609375,0.1712871483274835,6.464645749085483,22.858804941125857,3.220875199937749,3961,0,73.62535793508675,71.05313938265608,96.50634153154336,0.09098325289006849,0.08780460877059729,0.615234375,,
4.198165000000503,1500,,,,-0.40625,0.044921875,-0.8828125,0.1712871483274835,6.464645749085483,22.858863294555647,3.223412647233033,3961,0,73.68354904504163,71.04978784564314,96.42557771234863,0.09098754472187918,0.08773526564435359,0.615234375,,
4.206435000000056,1500,,,,0.8125,0.21875,-1.07421875,0.1712871483274835,6.464645749085483,22.85885367433353,3.226265701662181,3961,0,73.7487355888168,71.05376506003812,96.3457400221688,0.09098245171980779,0.08765771639976128,0.619140625,,
4.21439000000013,1500,,,,-0.46875,-0.09375,-0.91015625,0.1712871483274835,6.464645749085483,22.858779018862673,3.226848541582774,3962,0,73.76181773937994,71.06595150461462,96.34517380755105,0.09096684997830087,0.0876421697188482,0.619140625,,
