Time (s),ESC signal (µs),Servo 1 (µs),Servo 2 (µs),Servo 3 (µs),AccX (g),AccY (g),AccZ (g),Torque (N·m),Thrust (N),Voltage (V),Current (A),Motor Electrical Speed (RPM),Motor Optical Speed (RPM),Electrical Power (W),Mechanical Power (W),Motor Efficiency (%),Propeller Mech. Efficiency (N/W),Overall Efficiency (N/W),Vibration (g),App message,90% settling time (s),Max acceleration (RPM/s),
0,1000,,,,-0.0625,0.048828125,-0.955078125,0.02815059308232648,0.10820336175273576,22.977858978988152,0.06371900250033775,0,0,1.4641262537345543,0,0,0,0,0.0625,,
0,1200,,,,-0.0625,0.048828125,-0.955078125,0.02815059308232648,0.10820336175273576,22.97801405293129,0.06459358956207491,0,0,1.484232408686633,0,0,0,0,0.060546875,,
0.008995000000111759,1200,,,,-0.0625,0.046875,-0.953125,0.02815059308232648,0.10820336175273576,22.978046212932625,0.06495185963545433,0,0,1.4924668323193828,0,0,0,0,0.060546875,,
0.019419999999925493,1200,,,,-0.0625,0.048828125,-0.951171875,0.02815059308232648,0.10820336175273576,22.97800682428956,0.06485481806906682,0,0,1.4902344521790754,0,0,0,0,0.060546875,,
0.027660000000149013,1200,,,,-0.0625,0.05078125,-0.95703125,0.02815059308232648,0.10820336175273576,22.97796290045102,0.06474671299097101,0,0,1.4877475690326818,0,0,0,0,0.060546875,,
0.03778000000026077,1200,,,,-0.0625,0.048828125,-0.95703125,0.02815059308232648,0.10820336175273576,22.97793234901073,0.06467143768625538,0,0,1.4860159200680392,0,0,0,0,0.060546875,,
0.04499500000011176,1200,,,,0.125,0.076171875,-0.984375,0.02815059308232648,0.10820336175273576,22.977214114775638,0.1013322493474611,0,0,2.3283327899884476,0,0,0,0,0.0625,,
0.05341999999992549,1200,,,,-0.3125,0.0546875,-0.9453125,0.02762359901368893,0.10820336175273576,22.974336666751277,0.18721996900745835,0,0,4.301254598716088,0,0,0,0,0.06640625,,
0.06077499999990687,1200,,,,0.1875,-0.15625,-0.96875,0.02762359901368893,0.10820336175273576,22.972425544000405,0.25855179370454007,0,0,5.9395618301452995,0,0,0,0,0.068359375,,
0.06916500000003725,1200,,,,0,0.029296875,-1.01953125,0.02762359901368893,0.10820336175273576,22.970913477069036,0.32160703775007704,0,0,7.387607437773495,0,0,0,0,0.0703125,,
0.07734500000020489,1200,,,,-0.1875,-0.0234375,-0.85546875,0.02762359901368893,0.10820336175273576,22.970183030657523,0.35233869996788747,0,0,8.093284427046301,0,0,0,0,0.072265625,,
0.08642999999970198,1200,,,,0.03125,0.001953125,-1.03515625,0.02762359901368893,0.10820336175273576,22.96925186081391,0.376415650286562,5,0,8.645985875784092,0.013611153729700249,0.1574274342481027,0,0.012514866818808323,0.07421875,,
0.0946199999996461,1200,,,,0,-0.03515625,-0.912109375,0.02762359901368893,0.10820336175273576,22.968248614429612,0.39698529785133885,5,0,9.11805701732294,0.013611153729700249,0.1492769095854643,0,0.011866931907440984,0.076171875,,
0.10247500000009313,1200,,,,-0.15625,0.203125,-1.109375,0.02762359901368893,0.10820336175273576,22.96716218025062,0.4375945471699901,5,0,10.050304934046492,0.013611153729700249,0.135430256285966,0,0.010766176992917419,0.078125,,
0.11430500000016763,1200,,,,-0.125,0.05078125,-0.859375,0.02762359901368893,0.10820336175273576,22.96677484212855,0.44502277975551285,5,0,10.220737982263028,0.013611153729700249,0.1331719270498952,0,0.01058664862953251,0.080078125,,
0.12222500000009313,1200,,,,0,0.041015625,-0.9609375,0.02762359901368893,0.11507942243005229,22.966836117903355,0.4418842002210668,5,0,10.148682009568034,0.013611153729700249,0.13411745206784334,0,0.011339346559637696,0.08203125,,
0.13126000000024216,1200,,,,0,0.0234375,-0.98828125,0.02762359901368893,0.11507942243005229,22.9669749826632,0.43471062950270445,565,0,9.983988152486384,1.6353211888595225,16.37943839559011,0.07037114373250981,0.011526398135938615,0.08203125,,
0.13881500000040978,1200,,,,-0.03125,-0.013671875,-0.89453125,0.02762359901368893,0.11507942243005229,22.967222123791412,0.4270085529466498,752,0,9.807200284284452,2.1763105517131547,22.190946331549725,0.052878217375486106,0.011734176838874323,0.08203125,,
0.1458350000004284,1200,,,,-0.0625,0.0859375,-1.0234375,0.02762359901368893,0.11507942243005229,22.967312159230627,0.41927567985554026,820,0,9.629635420015838,2.3729493455268655,24.64215146291554,0.048496367040865435,0.01195054822022151,0.08203125,,
0.15289999999990686,1200,,,,-0.0625,0.015625,-0.947265625,0.02762359901368893,0.11507942243005229,22.96751195485903,0.41187223896118347,850,0,9.459680572215538,2.459521500712222,26.000048119343433,0.0467893541067756,0.012165254582491647,0.08203125,,
0.16108499999996276,1200,,,,-0.125,0.09375,-0.96875,0.02762359901368893,0.11507942243005229,22.967802065304227,0.4009821359325743,865,0,9.20967832982228,2.50110823740946,27.157389735431988,0.04601137236237588,0.012495487715071257,0.08203125,,
0.1681349999997765,1200,,,,0,0.06640625,-1.01953125,0.02762359901368893,0.11507942243005229,22.968069209577862,0.3920393782087686,870,0,9.004387571578869,2.5160360588407413,27.942334099237005,0.04573838360769555,0.012780371959252943,0.083984375,,
0.17615000000037254,1200,,,,-0.0625,-0.01953125,-0.890625,0.02762359901368893,0.11507942243005229,22.968456348694623,0.3820338093705872,872,0,8.774726874253854,2.523028580195378,28.753357413303192,0.04561162062664418,0.01311487230077892,0.083984375,,
0.18417499999981374,1200,,,,-0.0625,0.099609375,-1.009765625,0.02762359901368893,0.11507942243005229,22.96875952660626,0.37176276456050983,846,0,8.53892954013669,2.4473566770145743,28.661164909616964,0.04702192512880172,0.013477031504842479,0.08203125,,
0.1949049999997951,1200,,,,-0.03125,-0.001953125,-0.96875,0.02762359901368893,0.11507942243005229,22.969113408046184,0.3624171992785382,836,0,8.324401751255218,2.417400949241405,29.03993609963491,0.04760460711582201,0.01382434748691697,0.083984375,,
0.20338500000024215,1200,,,,0,0.048828125,-0.982421875,0.02739700753847352,0.11507942243005229,22.969669217717637,0.34952448844986056,831,0,8.028461883185265,2.383891189982465,29.693000037469996,0.0482737731124795,0.014333931468376719,0.083984375,,
0.21162000000011175,1200,,,,-0.03125,-0.0234375,-0.923828125,0.02739700753847352,0.11507942243005229,22.969722751634276,0.3409098080733024,830,0,7.830603774756608,2.380220546849549,30.396385966081287,0.04834821822808435,0.014696111020331788,0.083984375,,
0.2201549999997951,1200,,,,-0.0625,0.0703125,-1.046875,0.02739700753847352,0.11507942243005229,22.970097440495163,0.3319404209907871,829,0,7.624703814597365,2.378936371972459,31.20037748112951,0.048374317104847964,0.015092969540631164,0.083984375,,
0.22932500000018627,1200,,,,-0.03125,0.03515625,-0.970703125,0.02739700753847352,0.11507942243005229,22.97042628015793,0.3220577863070279,836,0,7.397804638316441,2.3984290819282834,32.4208221112758,0.04798116537910347,0.015555888274476187,0.083984375,,
0.23885499999998136,1200,,,,-0.0625,0.06640625,-0.970703125,0.02739700753847352,0.11507942243005229,22.97073317254381,0.3137848210145614,852,0,7.207867397119907,2.445147700508626,33.923316922917444,0.047064405314294136,0.0159658073726544,0.083984375,,
0.2474149999995716,1200,,,,-0.03125,0.037109375,-0.982421875,0.02739700753847352,0.11507942243005229,22.97095121871471,0.30663378120642926,858,0,7.043669630102926,2.461933359094878,34.95242520423126,0.0467435164339139,0.016337992619391305,0.083984375,,
0.25543000000016763,1200,,,,-0.0625,0.044921875,-0.953125,0.02739700753847352,0.11507942243005229,22.97110169876751,0.299766332326929,860,0,6.885962905748425,2.467564433586617,35.83470412724248,0.0466368459780334,0.016712175770506054,0.083984375,,
0.26313500000024215,1200,,,,0,0.046875,-0.9453125,0.02739700753847352,0.11507942243005229,22.97133990853825,0.2953361042340386,861,0,6.784266037623584,2.469761328582658,36.404252352223125,0.04659536170488742,0.016962693059478354,0.083984375,,
0.2725749999997206,1200,,,,-0.21875,0.080078125,-1.029296875,0.02739700753847352,0.26035116473638364,22.96555305866968,0.47518011080380396,861,0,10.912774047089298,2.4706899999397094,22.640347809626853,0.10537589286504452,0.023857468652145844,0.087890625,,
0.2803999999999069,1200,,,,0.25,-0.166015625,-0.962890625,0.02739700753847352,0.26035116473638364,22.961507914659958,0.5741183221433379,893,0,13.182622397845549,2.562428071375662,19.437923609148076,0.1016033065063215,0.01974957310306735,0.095703125,,
0.2885,1200,,,,-0.125,0.109375,-0.97265625,0.02739700753847352,0.26035116473638364,22.958677321347793,0.6537589378917525,906,0,15.0094405010038,2.598926753959219,17.315280698074044,0.10017641487578027,0.01734582742900856,0.09765625,,
0.2957050000000745,1200,,,,0.0625,-0.138671875,-0.919921875,0.02739700753847352,0.26035116473638364,22.95688276862929,0.70564986206385,911,0,16.199521159099234,2.61309994208216,16.13072334927868,0.09963306819751093,0.01607153459533864,0.1015625,,
0.31225499999988826,1200,,,,-0.125,0.07421875,-0.98046875,0.02739700753847352,0.26035116473638364,22.95476100012606,0.7773846713016457,1065,0,17.84467933489083,3.0556357010870845,17.123511404951667,0.08520360088860074,0.014589848315589045,0.103515625,,
0.3223849999997765,1200,,,,0,0.05078125,-0.986328125,0.02739700753847352,0.26035116473638364,22.954108431238915,0.7962006342132152,1216,0,18.276075690751334,3.4897860792688653,19.09483271091333,0.07460376046629456,0.014245463257089442,0.10546875,,
0.3293100000000559,1200,,,,0.03125,-0.0859375,-0.91796875,0.02739700753847352,0.26035116473638364,22.95413302816771,0.8026137051341098,1259,0,18.423301757878928,3.6108538432265234,19.599385010791032,0.0721023824392027,0.01413162353621232,0.107421875,,
0.3355449999999255,1200,,,,-0.0625,0.0390625,-0.9453125,0.02739700753847352,0.26035116473638364,22.953974418594484,0.8042182729343764,1275,0,18.460005663901914,3.658863193363564,19.820487923892575,0.07115629936877878,0.014103525723477645,0.107421875,,
0.3460100000002421,1200,,,,0.125,0.0625,-0.984375,0.02739700753847352,0.26035116473638364,22.954079984154,0.8025828504676009,1428,0,18.42255094354362,4.098140119324317,22.245237002645144,0.06352910275291153,0.014132199473039129,0.107421875,,
0.35325,1200,,,,-0.0625,0.10546875,-1.015625,0.04065586517087658,0.26035116473638364,22.95418769639839,0.7971436270745381,1488,0,18.297784436856748,6.335102741548368,34.62223944877029,0.041096597065251546,0.014228562241227692,0.107421875,,
0.3719399999999441,1200,,,,-0.09375,-0.0859375,-0.92578125,0.04065586517087658,0.26035116473638364,22.95464905202092,0.7817083050420915,1568,0,17.943839803291326,6.67441722301141,37.19614807187012,0.03900732543940617,0.014509222529317783,0.107421875,,
0.3857899999995716,1200,,,,0,0.1640625,-1.0234375,0.04065586517087658,0.26035116473638364,22.955007896130482,0.7637753371973306,1598,0,17.532468896234445,6.80552253194981,38.816681051756916,0.03825586698363219,0.014849657870620885,0.109375,,
0.40643000000016766,1200,,,,-0.0625,-0.013671875,-0.953125,0.04065586517087658,0.26035116473638364,22.955847188149733,0.7355440884549147,1643,0,16.885037694717912,6.993494561801804,41.41829404378265,0.03722762096054405,0.015419045514942997,0.109375,,
0.4232099999999627,1200,,,,0,0.177734375,-1.0078125,0.04065586517087658,0.3348480512486678,22.95667934396218,0.7059474670250656,1661,0,16.206209634176744,7.070198318813251,43.62647700115603,0.04736048921819675,0.02066171293641159,0.111328125,,
0.4386549999997951,1200,,,,0.03125,-0.095703125,-0.94140625,0.04065586517087658,0.3348480512486678,22.95735214275015,0.6847094978008008,1667,0,15.719117056498593,7.098275368043305,45.15695978680137,0.04717315599732379,0.021301963083876583,0.11328125,,
0.4461099999998696,1200,,,,-0.0625,-0.04296875,-0.90625,0.04065586517087658,0.3348480512486678,22.957808978698665,0.6734927164371243,1673,0,15.461917132508365,7.123371849783624,46.07043090928796,0.04700695938803742,0.021656308747422824,0.115234375,,
0.4534799999999814,1200,,,,-0.125,0.06640625,-1.005859375,0.04065586517087658,0.3348480512486678,22.958074802777237,0.6626643980325992,1675,0,15.213498819169763,7.1325767971459975,46.88321129757868,0.04694629455411579,0.022009930472189777,0.115234375,,
0.4612200000002049,1200,,,,0.125,0.19921875,-1.08984375,0.04065586517087658,0.3348480512486678,22.95829962875321,0.6506423828887133,1676,0,14.93764277752505,7.136905929383762,47.77799305872973,0.0469178176876405,0.022416391678108345,0.1171875,,
0.4697349999998696,1200,,,,-0.0625,0.126953125,-0.98046875,0.04065586517087658,0.3348480512486678,22.958775093389203,0.6400320504563781,1681,0,14.694351898988716,7.154920737001835,48.69163870707524,0.04679968703454581,0.022787534526902985,0.1171875,,
0.47877499999990686,1200,,,,-0.09375,-0.111328125,-0.90234375,0.04065586517087658,0.3348480512486678,22.959062525470046,0.6277561250271213,1682,0,14.412692125244469,7.1624546731705285,49.695467098927146,0.0467504600766212,0.02323285950597436,0.119140625,,
0.4863900000001304,1200,,,,0.1875,-0.11328125,-0.984375,0.04065586517087658,0.3348480512486678,22.959572476715216,0.6175063642956954,1683,0,14.177682125879928,7.165015781372254,50.537286121637905,0.04673374929880995,0.023617968598508527,0.119140625,,
0.49354500000039114,1200,,,,-0.09375,0.154296875,-1.060546875,0.04065586517087658,0.3348480512486678,22.959843189791847,0.6092409580250392,1684,0,13.988076861053457,7.170108910410682,51.258718275806594,0.046700553008683476,0.023938104899964785,0.12109375,,
0.5044599999999627,1200,,,,-0.125,0.22265625,-1.0390625,0.04065586517087658,0.3348480512486678,22.96014419887696,0.5997380449653236,1685,0,13.770071993956384,7.174838105318341,52.10457947109748,0.04666977098764947,0.02431708791323901,0.123046875,,
0.5129350000000559,1200,,,,-0.0625,-0.005859375,-0.9140625,0.0563557774170312,0.3348480512486678,22.96067415983196,0.587108215255543,1686,0,13.480400427043007,9.948529989337656,73.79995900848708,0.03365804310863428,0.024839622017231007,0.123046875,,
0.5215050000003539,1200,,,,0,-0.03125,-0.9921875,0.0563557774170312,0.3348480512486678,22.961073692440912,0.5785401393214606,1686,0,13.28390277299509,9.952349984150764,74.92037659582202,0.033645124194980815,0.025207053753011653,0.125,,
0.529820000000298,1200,,,,0,0.13671875,-1.0234375,0.0563557774170312,0.3348480512486678,22.961345507287852,0.5708977765078685,1687,0,13.108581095739572,9.953650496891456,75.93232573528876,0.033640728228627424,0.025544187338284608,0.125,,
0.546839999999851,1200,,,,0.125,-0.08203125,-0.93359375,0.0563557774170312,0.3348480512486678,22.961753855007167,0.5553160750132488,1688,0,12.751031026182913,9.961124554432368,78.12014992339236,0.03361548682770677,0.02626046870728275,0.126953125,,
0.5547250000000932,1200,,,,-0.09375,0.005859375,-0.880859375,0.0563557774170312,0.3348480512486678,22.961863644297637,0.5481256164883102,1689,0,12.585985665751158,9.967564433546734,79.19573959686255,0.03359376841565293,0.026604833355233552,0.12890625,,
0.562339999999851,1200,,,,-0.03125,0.10546875,-1.02734375,0.0563557774170312,0.3348480512486678,22.9618704776111,0.5441054841953065,1689,0,12.493679654250501,9.970125533215713,79.80135403762938,0.033585138936627575,0.026801395626847885,0.126953125,,
0.570125,1200,,,,0.125,-0.03125,-1.0703125,0.0563557774170312,0.7004554660672592,22.962226549643283,0.5367974284967558,1691,0,12.326064164408448,9.98050999825048,80.97077757447698,0.07018233198404136,0.056827179927379144,0.12890625,,
0.5765999999996275,1200,,,,-0.09375,0.0078125,-0.912109375,0.0563557774170312,0.7004554660672592,22.962472085306707,0.5313366824083694,1692,0,12.200803737701658,9.984432898881227,81.83422267525187,0.070154757226697,0.057410600246177584,0.12890625,,
0.5843500000000932,1200,,,,-0.1875,-0.078125,-0.8828125,0.0563557774170312,0.7004554660672592,22.96289553497677,0.5273113053388054,1692,0,12.108594418907227,9.98620747068161,82.47206178686132,0.07014229056663586,0.05784779321483572,0.130859375,,
0.5916600000001491,1200,,,,0,0.04296875,-0.943359375,0.0563557774170312,0.7004554660672592,22.963029359007027,0.5216170315539043,1692,0,11.977907209730398,9.985470657819011,83.36573729430124,0.07014746626076913,0.058478952441561385,0.12890625,,
0.5997299999999813,1200,,,,-0.1875,0.27734375,-1.0390625,0.0563557774170312,0.7004554660672592,22.963208202384614,0.5158304003916558,1691,0,11.845120881313012,9.981937862832796,84.27046007255534,0.07017229276445079,0.05913451395606314,0.130859375,,
0.6077000000001863,1200,,,,0,0.123046875,-1.021484375,0.0563557774170312,0.7004554660672592,22.963347349928867,0.5117659368595036,1691,0,11.751858969966545,9.980537915224291,84.92731184683969,0.07018213567414898,0.059603801224756635,0.130859375,,
0.6159000000003725,1200,,,,0.0625,-0.109375,-0.94140625,0.0563557774170312,0.7004554660672592,22.96350708951576,0.5069970058082611,1691,0,11.642429337241266,9.980003286742344,85.72096937551315,0.07018589532908869,0.06016402984097783,0.1328125,,
0.6248900000001304,1200,,,,-0.09375,-0.109375,-0.9453125,0.0563557774170312,0.7004554660672592,22.96375313303554,0.5023029926977484,1691,0,11.534761922296047,9.97977424564851,86.51911771458558,0.07018750613248385,0.06072561105169567,0.1328125,,
0.6332200000002048,1200,,,,-0.09375,0.08984375,-0.982421875,0.0563557774170312,0.7004554660672592,22.96384019861289,0.49711675127045796,1691,0,11.415709636228387,9.97969160291879,87.42068536193042,0.07018808736157688,0.06135890701392097,0.134765625,,
0.641285000000149,1200,,,,0,0.18359375,-0.990234375,0.0563557774170312,0.7004554660672592,22.96384800784575,0.4937433850885874,1691,0,11.338248050053576,9.979663886661761,88.01768882287423,0.0701882822930988,0.06177810389886023,0.13671875,,
0.6507099999999627,1200,,,,0.03125,-0.052734375,-0.93359375,0.06215011675610139,0.7004554660672592,22.963856464118415,0.48900886418230716,1692,0,11.229529366764078,11.010208333413248,98.04692586672464,0.06361872953316886,0.06237620858273811,0.134765625,,
0.6611000000000932,1200,,,,-0.1875,-0.08984375,-0.93359375,0.06215011675610139,0.7004554660672592,22.963993218311273,0.48571119681785746,1692,0,11.153868629783132,11.011697291081308,98.7253629801395,0.06361012726299499,0.06279932903252047,0.13671875,,
0.6696750000002794,1200,,,,-0.01953125,0.0703125,-1.0078125,0.06215011675610139,0.7004554660672592,22.964082433965636,0.4796818402446629,1692,0,11.015453321454775,11.012077806577164,99.96935655048316,0.06360792925463163,0.06358843759094178,0.13671875,,
0.6774700000002049,1200,,,,-0.125,0.17578125,-1.015625,0.06215011675610139,0.7004554660672592,22.964078309577534,0.47637558435720445,1692,0,10.939526223949601,11.011386106835344,100.65688295283228,0.06361192489948653,0.06402978079011973,0.138671875,,
0.685285000000149,1200,,,,0,0.033203125,-0.9296875,0.06215011675610139,0.7004554660672592,22.964205970532554,0.4728023111603438,1692,0,10.857529656829957,11.011113934769535,101.41454163878765,0.06361349725530016,0.06451333666186543,0.138671875,,
0.6935750000001862,1200,,,,-0.03125,-0.083984375,-0.904296875,0.06215011675610139,0.7004554660672592,22.96419583004092,0.4686461126844127,1691,0,10.762081106672278,11.008542715768957,102.29009247053413,0.06362835519218238,0.06508550336356327,0.140625,,
0.7038149999999441,1200,,,,-0.125,0.09375,-1.0546875,0.06215011675610139,0.7004554660672592,22.96438217024844,0.46739018670115295,1691,0,10.733326870029048,11.002637474546347,102.50910652194246,0.06366250525728058,0.06525986532872297,0.140625,,
0.7123549999999814,1200,,,,0,0.09375,-1.056640625,0.06215011675610139,0.7004554660672592,22.96453457197787,0.4611273240260918,1690,0,10.589574374680828,10.999942274663473,103.87520674073376,0.06367810380974827,0.06614576198095508,0.140625,,
0.720339999999851,1200,,,,-0.0625,0.03515625,-0.935546875,0.06215011675610139,0.856523363901934,22.964769595984322,0.45853893434647053,1689,0,10.530240978054877,10.99452395470827,104.40904417687082,0.07790454297342617,0.08133938868891386,0.142578125,,
0.7285800000000745,1200,,,,-0.09375,0.001953125,-0.87109375,0.06215011675610139,0.856523363901934,22.96473181834468,0.4567091035136578,1688,0,10.488202081187772,10.987653800392522,104.76203371501198,0.07795325366652302,0.08166541388807165,0.142578125,,
0.7369849999998697,1200,,,,0,0.08984375,-1.05078125,0.06215011675610139,0.856523363901934,22.964692289012632,0.456436576131263,1688,0,10.481925520304943,10.984814969011582,104.79768195006226,0.07797339930788148,0.08171431501232568,0.142578125,,
0.7446699999999254,1200,,,,0.03125,0.080078125,-1.068359375,0.06215011675610139,0.856523363901934,22.964837394318206,0.4551797742344442,1688,0,10.453129500476484,10.984546456976343,105.08380726054945,0.07797530533069497,0.08193941956453243,0.142578125,,
0.7517650000001304,1200,,,,-0.25,0.1796875,-0.9921875,0.06215011675610139,0.856523363901934,22.964925437641252,0.45354729703215,1688,0,10.415679858787055,10.985808067516654,105.4737493515473,0.07796635064420449,0.08223403325701673,0.14453125,,
0.7602400000002235,1200,,,,-0.0625,-0.099609375,-0.859375,0.06215011675610139,0.856523363901934,22.964884625815614,0.4498243195072177,1688,0,10.330163599369275,10.986288651815451,106.35154560849584,0.07796294008353731,0.08291479178066749,0.14453125,,
0.7669500000001863,1200,,,,-0.0625,0.04296875,-0.87890625,0.06215011675610139,0.856523363901934,22.96477641953001,0.4488545694176135,1688,0,10.307844831559906,10.988250634920107,106.60085415020002,0.07794901958096459,0.0830943206750149,0.14453125,,
0.775625,1200,,,,-0.0625,0.166015625,-1.0234375,0.06215011675610139,0.856523363901934,22.964737866768633,0.450072317864586,1689,0,10.335792800849188,10.992556490315788,106.35426524235898,0.0779184864463979,0.08286963374803354,0.14453125,,
0.7840400000000373,1200,,,,0,0.09375,-1.01953125,0.06215011675610139,0.856523363901934,22.964766993053722,0.4476046879873022,1689,0,10.279137364626907,10.99422227479412,106.95666265369698,0.07790668066313707,0.08332638562156451,0.146484375,,
0.7919900000002236,1200,,,,0,-0.17578125,-0.91015625,0.06215011675610139,0.856523363901934,22.964925472665023,0.4450392989321124,1689,0,10.220294332383052,10.994881684189195,107.5789143307924,0.07790200827114196,0.08380613473997862,0.1484375,,
0.7995550000001677,1200,,,,-0.125,0.0234375,-0.90625,0.059106160200264025,0.856523363901934,22.965075266471864,0.44356350591909005,1690,0,10.18646929889204,10.462601402745573,102.71077343632268,0.08186523895263438,0.08408442010374449,0.1484375,,
0.8075800000000745,1200,,,,-0.09375,0.140625,-0.99609375,0.059106160200264025,0.856523363901934,22.965220731949028,0.43986718895668936,1691,0,10.101647087132303,10.465096206377197,103.59791938987715,0.08184572286874799,0.0847904660016278,0.1484375,,
0.8184599999999628,1200,,,,0.0625,0.17578125,-1.015625,0.059106160200264025,0.856523363901934,22.965290762483427,0.43875682448537034,1691,0,10.076178048330437,10.466055535069978,103.8692993004837,0.08183822081125686,0.08500478651663512,0.1484375,,
0.8360400000000372,1200,,,,-0.0625,-0.1328125,-0.955078125,0.059106160200264025,0.856523363901934,22.965275014593864,0.4381884496695568,1689,0,10.063118254879893,10.451942097994996,103.86385048120201,0.08194872836754821,0.08511510470291665,0.1484375,,
0.844820000000298,1200,,,,-0.09375,0.0625,-1.05078125,0.059106160200264025,0.856523363901934,22.96520199300776,0.43672319026592665,1688,0,10.029436279487767,10.450801286639027,104.20128305728447,0.08195767390553757,0.08540094777347537,0.1484375,,
0.8519049999997951,1200,,,,-0.03125,0.193359375,-1.02734375,0.059106160200264025,0.856523363901934,22.965331537480964,0.43781627331507916,1689,0,10.054595869185173,10.452380824851344,103.95625006555743,0.0819452886624149,0.08518724919884292,0.150390625,,
0.8588549999999814,1200,,,,-0.0625,0.1796875,-0.90625,0.059106160200264025,0.856523363901934,22.96538916024819,0.4372901939841792,1689,0,10.042539480807097,10.453007847760668,104.08729652233922,0.0819403731802828,0.08528951920367227,0.1484375,,
0.8666499999999069,1200,,,,-0.0625,-0.111328125,-0.904296875,0.059106160200264025,0.9202506238930818,22.965505030844835,0.4325350066156632,1689,0,9.933384870448517,10.453285663899974,105.23387345030942,0.08803458103810674,0.09264219960215134,0.150390625,,
0.8747750000003726,1200,,,,0.125,-0.05078125,-0.94921875,0.059106160200264025,0.9202506238930818,22.965627505044615,0.43134340370874646,1690,0,9.906071936333152,10.461405621058931,105.60599285261543,0.08796625016055265,0.09289763185726704,0.150390625,,
0.8830049999998882,1200,,,,-0.0625,0.076171875,-1.02734375,0.059106160200264025,0.9202506238930818,22.965448391331343,0.42891767457100205,1691,0,9.8502867194902,10.464617568883778,106.23667987428263,0.08793925031999439,0.0934237398462965,0.150390625,,
0.8908900000001304,1200,,,,-0.09375,0.125,-0.998046875,0.059106160200264025,0.9202506238930818,22.965475473717046,0.4291820006856344,1691,0,9.856368710506748,10.465874540252988,106.18387813654451,0.08792868864935169,0.09336609160248924,0.150390625,,
0.8986399999996647,1200,,,,0.125,-0.05078125,-0.91796875,0.059106160200264025,0.9202506238930818,22.965532921501012,0.4277554938046585,1690,0,9.823632875323806,10.461742847810166,106.49566184511275,0.08796341463178929,0.09367722059368475,0.150390625,,
0.9068250000001863,1200,,,,-0.09375,0.017578125,-0.8828125,0.059106160200264025,0.9202506238930818,22.96565540725034,0.42700282765737313,1690,0,9.806399797900735,10.457720531426412,106.64179257371403,0.08799724769156377,0.09384184235381478,0.15234375,,
0.9159300000001677,1200,,,,0,-0.03125,-1.01953125,0.059106160200264025,0.9202506238930818,22.965710569030797,0.42692705231554695,1689,0,9.80468311756832,10.456071581758808,106.64364626964141,0.0880111250862618,0.09385827291492467,0.150390625,,
0.9239900000002235,1200,,,,0.03125,0.1171875,-1.078125,0.059106160200264025,0.9202506238930818,22.965823621401654,0.42504079217396556,1690,0,9.76141186496813,10.460184733074753,107.15852253519174,0.0879765173728988,0.09427433619471462,0.15234375,,
0.9317200000002049,1200,,,,-0.09375,0.064453125,-0.9453125,0.059106160200264025,0.9202506238930818,22.965929857469185,0.42443328593991203,1691,0,9.747505074071181,10.46411567993531,107.35173360176387,0.08794346813822405,0.09440883763589837,0.15234375,,
0.9402900000000373,1200,,,,-0.25,-0.078125,-0.921875,0.059106160200264025,0.9202506238930818,22.966031712480117,0.423637325839127,1691,0,9.729268259811663,10.465677346732436,107.56900793827046,0.08793034539521703,0.09458580021832964,0.15234375,,
0.9493549999999814,1200,,,,0.03125,0.0859375,-0.984375,0.059106160200264025,0.9202506238930818,22.966067036610113,0.4215768817806609,1690,0,9.681962928059715,10.462075411566362,108.0573793692782,0.08796061849025646,0.0950479392175799,0.15234375,,
0.9577299999999813,1200,,,,0.03125,0.14453125,-1.056640625,0.05779620631694576,0.9202506238930818,22.966171974101087,0.4229732591789757,1689,0,9.714076610750388,10.224856952164487,105.25814610983022,0.0900013201356597,0.09473372104916875,0.15234375,,
0.9684449999998324,1200,,,,-0.0625,-0.025390625,-0.953125,0.05779620631694576,0.9202506238930818,22.966260663034088,0.4218381773490223,1689,0,9.688045538616848,10.22302513172832,105.52205902603397,0.09001744708980312,0.09498826365183095,0.15234375,,
0.9786399999996648,1200,,,,-0.125,-0.08203125,-0.9609375,0.05779620631694576,0.9202506238930818,22.966534267630017,0.4194158373919485,1688,0,9.632528201848924,10.219235035746387,106.09089142126619,0.09005083263806829,0.09553573107799918,0.154296875,,
0.9870650000004098,1200,,,,-0.0625,0.140625,-0.982421875,0.05779620631694576,0.9202506238930818,22.966243358142858,0.42376665046086204,1688,0,9.732328021549218,10.21569620351486,104.96662443862735,0.0900820272608005,0.09455606324154638,0.154296875,,
0.9948450000002049,1200,,,,0.125,0.15625,-1.0234375,0.05779620631694576,0.9202506238930818,22.966199153956126,0.4319615133016205,1688,0,9.920514141329285,10.214533706727426,102.96375330158789,0.09009227932617155,0.09276239222917676,0.154296875,,
1.0028849999997764,1200,,,,-0.0625,0.083984375,-0.98046875,0.05779620631694576,0.9202506238930818,22.965797052878305,0.4370249084433515,1691,0,10.036625354362734,10.235579691134204,101.9822831853038,0.08990703523027417,0.09168924727204907,0.154296875,,
1.0106049999999813,1200,,,,-0.0625,-0.15625,-0.92578125,0.05779620631694576,0.9202506238930818,22.966036755737342,0.43261775910375405,1693,0,9.935515356761538,10.243891373682438,103.10377474995332,0.08983408651299211,0.09262233420703359,0.154296875,,
1.0189300000001675,1200,,,,-0.09375,0.029296875,-1.021484375,0.05779620631694576,1.101369263179441,22.966229408591825,0.4285863800854184,1693,0,9.843013126439649,10.247138302467349,104.10570595443143,0.10748066735024436,0.111893507509506,0.15625,,
1.0278899999996647,1200,,,,0.0625,0.171875,-1.00390625,0.05779620631694576,1.101369263179441,22.96625349653059,0.42483846122319546,1699,0,9.75694779552789,10.28300775642735,105.3916447225492,0.10710575050291435,0.11288051204745146,0.15625,,
1.0357800000002608,1200,,,,-0.09375,0.146484375,-0.99609375,0.05779620631694576,1.101369263179441,22.96633849210589,0.422764434901395,1701,0,9.709351114369303,10.295076925415453,106.03259480625134,0.10698018782749363,0.11343386908209295,0.15625,,
1.0472900000000374,1200,,,,-0.09375,-0.080078125,-0.8671875,0.05779620631694576,1.101369263179441,22.966551431923634,0.4208082540600968,1702,0,9.6645144098492,10.300763275823359,106.58335058537189,0.10692113134610468,0.11396012427246473,0.15625,,
1.056024999999907,1200,,,,0,0.033203125,-1.033203125,0.05779620631694576,1.101369263179441,22.966472437811454,0.4208319311021666,1699,0,9.665024946608877,10.281020715914483,106.37345245054684,0.10712645111925305,0.11395410454329694,0.158203125,,
1.064885000000242,1200,,,,0.03125,0.080078125,-1.091796875,0.05779620631694576,1.101369263179441,22.966629470123546,0.41966589983641134,1696,0,9.638311222788841,10.265872929984194,106.51111686154671,0.10728452131553284,0.11426994187273817,0.158203125,,
1.0723400000003167,1200,,,,-0.1875,0.12890625,-0.98046875,0.05779620631694576,1.101369263179441,22.96676032540403,0.4193236676526045,1695,0,9.630506173746742,10.260770756895063,106.54445957229595,0.10733786859426125,0.11436255201017684,0.158203125,,
1.0808250000001862,1200,,,,-0.09375,-0.046875,-0.896484375,0.05779620631694576,1.101369263179441,22.96672308554624,0.4175079865643133,1694,0,9.588790313426543,10.253819709378252,106.93548794179503,0.10741063275884564,0.11486008424204115,0.158203125,,
1.0887600000002422,1200,,,,0,0.103515625,-1.00390625,0.05779620631694576,1.101369263179441,22.966887278336277,0.4173704172449117,1694,0,9.585699326176066,10.251040172927441,106.94097346590563,0.10743975680517866,0.11489712181685964,0.158203125,,
1.0970849999999628,1200,,,,-0.0625,0.2734375,-1.03515625,0.05779620631694576,1.101369263179441,22.966876424716276,0.41606470186808125,1694,0,9.55570659249064,10.249971591888587,107.26544910811238,0.10745095762519187,0.11525775226762958,0.158203125,,
1.1049449999998324,1200,,,,-0.03125,0.0625,-1.017578125,0.05950176840103608,1.101369263179441,22.967027433743485,0.4169451218821763,1693,0,9.575990052633465,10.546014345892994,110.12975460425385,0.10443464488632662,0.11501361813513546,0.158203125,,
1.1124350000000558,1200,,,,-0.03125,-0.16796875,-0.9375,0.05950176840103608,1.101369263179441,22.967074686478533,0.41873732366396466,1692,0,9.617171386606412,10.543437889841586,109.6313818897432,0.10446016514599954,0.11452112257386715,0.16015625,,
1.1220400000000372,1200,,,,-0.0625,0.0859375,-0.97265625,0.05950176840103608,1.101369263179441,22.96699021051954,0.417178050316897,1692,0,9.581324197671801,10.542415246175477,110.03087912146022,0.10447029807320386,0.1149495873907561,0.158203125,,
1.129739999999758,1200,,,,-0.09375,0.177734375,-1.048828125,0.05950176840103608,1.101369263179441,22.966972052587643,0.4176522227914061,1691,0,9.592206928551333,10.53838299381973,109.86400806734156,0.10451027105632263,0.11481917262451881,0.16015625,,
1.1375950000002049,1200,,,,0,0.123046875,-0.98046875,0.05950176840103608,1.101369263179441,22.966826329016456,0.4171909586842936,1691,0,9.581552294138051,10.53537706536885,109.95480421073675,0.10454008967555461,0.1149468509244847,0.16015625,,
1.1454599999999628,1200,,,,0.125,-0.01171875,-1,0.05950176840103608,1.101369263179441,22.96699501922705,0.41679862503013665,1691,0,9.57261194508783,10.534263573589534,110.045864535386,0.10455113976269638,0.11505420563345896,0.16015625,,
1.152910000000149,1200,,,,-0.125,-0.107421875,-0.9140625,0.05950176840103608,1.101369263179441,22.96704360588145,0.4163856304597897,1691,0,9.56314693163243,10.536754758678088,110.18083099638692,0.10452642093357553,0.11516807919539485,0.16015625,,
1.1609499999997206,1200,,,,0,-0.015625,-1.03125,0.05950176840103608,1.101369263179441,22.96702526829331,0.4136619945823612,1691,0,9.500585482105699,10.53775390679444,110.91688956056703,0.10451651015206471,0.11592646213792443,0.16015625,,
1.1691949999998323,1200,,,,-0.0625,0.1875,-0.9921875,0.05950176840103608,1.1752264241403392,22.967172638795912,0.41274987340175157,1691,0,9.479697599059184,10.53815273092699,111.1654946880674,0.11152110375961122,0.12397298667596474,0.16015625,,
1.1769399999999441,1200,,,,-0.0625,0.16015625,-1.009765625,0.05950176840103608,1.1752264241403392,22.96701802507687,0.4128480031147085,1691,0,9.481887529152502,10.53429701464451,111.09915596716715,0.11156192221527164,0.12394435396191436,0.162109375,,
1.1851749999998138,1200,,,,-0.0625,-0.1953125,-0.8984375,0.05950176840103608,1.1752264241403392,22.967000818395835,0.4164563034951462,1690,0,9.564752263199127,10.528737455666647,110.07851710050561,0.11162083099601114,0.12287055553567058,0.162109375,,
1.193100000000093,1200,,,,0,-0.041015625,-0.9453125,0.05950176840103608,1.1752264241403392,22.966952164427816,0.42111674993253584,1689,0,9.671768251339861,10.526557457805866,108.83798271683762,0.11164394711671491,0.12151101986728552,0.162109375,,
1.2019650000003166,1200,,,,-0.0625,0.11328125,-1.060546875,0.05950176840103608,1.1752264241403392,22.96693639003888,0.4248491152042364,1690,0,9.757482604259998,10.533477831417288,107.9528220405794,0.11157059832936597,0.12044360946411009,0.162109375,,
1.2101099999998697,1200,,,,-0.125,0.09765625,-1.0078125,0.05950176840103608,1.1752264241403392,22.96718633571237,0.4225311351783421,1691,0,9.704351314281055,10.539507220921216,108.60599415244927,0.11150677156968798,0.1211030378105603,0.162109375,,
1.2196299999998883,1200,,,,-0.03125,0.021484375,-0.953125,0.05950176840103608,1.1752264241403392,22.96746401277478,0.4197057111108563,1692,0,9.63957581589464,10.54206432008287,109.36232590961237,0.111479724317514,0.12191681943125705,0.162109375,,
1.2281400000001303,1200,,,,-0.03125,0.001953125,-0.916015625,0.05950176840103608,1.1752264241403392,22.967492177650517,0.41865169465435254,1693,0,9.615379522133974,10.54778056126341,109.69697594341554,0.11141930923898276,0.1222236128522067,0.1640625,,
1.2366000000000932,1200,,,,-0.03125,0.142578125,-1.072265625,0.05950176840103608,1.1752264241403392,22.967299749891854,0.4180788744669349,1695,0,9.602142828979503,10.5599742383902,109.97518394040067,0.11129065257260463,0.12239209987519421,0.1640625,,
1.2451699999999255,1200,,,,0,0.09765625,-1.0546875,0.05950176840103608,1.1752264241403392,22.96726874550343,0.4195127039561335,1695,0,9.635061013913337,10.56408699529928,109.64213905905112,0.11124732545872461,0.12197394727892999,0.1640625,,
1.2542299999999813,1200,,,,-0.03125,-0.078125,-0.931640625,0.060428007700332055,1.1752264241403392,22.96709047416984,0.41889846795570407,1695,0,9.620879013029791,10.724490752926014,111.47100736223348,0.10958342463204572,0.12215374733937527,0.1640625,,
1.2617249999996274,1200,,,,-0.09375,-0.009765625,-0.94921875,0.060428007700332055,1.1752264241403392,22.96700501053115,0.4177469732139105,1694,0,9.594396826938105,10.7203848415392,111.7358916345806,0.10962539512449104,0.12249091270028212,0.166015625,,
1.2698249999997206,1200,,,,-0.09375,0.19921875,-1.046875,0.060428007700332055,1.1752264241403392,22.967252166914175,0.41663335586091554,1694,0,9.568923345205338,10.718742208752284,112.01617801780262,0.10964219506843999,0.12281699641049013,0.166015625,,
1.2790550000001677,1200,,,,0.0625,0.17578125,-1.046875,0.060428007700332055,1.1752264241403392,22.967109756193473,0.41417663461627163,1693,0,9.512440225682752,10.715251538789902,112.6446136277384,0.10967791282229293,0.12354626113363962,0.166015625,,
1.2872050000000745,1200,,,,0.03125,-0.046875,-0.962890625,0.060428007700332055,1.1752264241403392,22.96716403113346,0.4132866589953615,1692,0,9.492022489025587,10.710054429074265,112.83216449873494,0.10973113460095842,0.12381201429928167,0.166015625,,
1.29775,1200,,,,-0.09375,-0.138671875,-0.923828125,0.060428007700332055,1.1752264241403392,22.967446284374805,0.4114745913191695,1692,0,9.450520573508102,10.708387855019932,113.3100316720955,0.10974821234079699,0.1243557341629157,0.16796875,,
1.3061750000002794,1200,,,,-0.125,0.140625,-1.0234375,0.060428007700332055,1.1752264241403392,22.967325125290916,0.41178756324245736,1691,0,9.457658847540813,10.699538435767085,113.13094084112778,0.10983898335387243,0.12426187527856561,0.16796875,,
1.3141150000002235,1200,,,,0.125,0.20703125,-1.05859375,0.060428007700332055,1.195676654325232,22.96729334294167,0.4126676471190311,1690,0,9.477858904524325,10.694186315180833,112.83335638258853,0.11180622995392556,0.12615472190184926,0.16796875,,
1.322125,1200,,,,0,0.060546875,-0.96484375,0.060428007700332055,1.195676654325232,22.967229816982535,0.41500828459668326,1690,0,9.531590648283718,10.692040960214324,112.17478125898704,0.11182866384204951,0.12544355904966698,0.16796875,,
1.3309150000000372,1200,,,,-0.09375,-0.150390625,-0.8984375,0.060428007700332055,1.195676654325232,22.967049455387787,0.4164483746182525,1689,0,9.564590415473265,10.69041133937965,111.77071756345227,0.11184571073713384,0.1250107534548377,0.169921875,,
1.3392600000002421,1200,,,,-0.125,0.10546875,-1.041015625,0.060428007700332055,1.195676654325232,22.966965270299323,0.4154072183272337,1689,0,9.540643156353225,10.689531350319339,112.04204135023177,0.11185491815686685,0.12532453365358467,0.169921875,,
1.3472999999998136,1200,,,,0.125,0.1484375,-1.08203125,0.060428007700332055,1.195676654325232,22.96688487901896,0.4165512081287949,1689,0,9.5668836433103,10.689183705077408,111.73109346377264,0.11185855602400027,0.12498078777840221,0.169921875,,
1.3547250000000932,1200,,,,-0.09375,0.138671875,-0.9609375,0.060428007700332055,1.195676654325232,22.967143013966165,0.41678928182698455,1690,0,9.572459042408603,10.692499825798354,111.70065892606765,0.11182386474679759,0.12490799375876757,0.169921875,,
1.3620949999997392,1200,,,,0,-0.1015625,-0.93359375,0.060428007700332055,1.195676654325232,22.967288895977564,0.41679523990387124,1690,0,9.572656685340487,10.695190694805456,111.72646263585335,0.11179573029080818,0.12490541483183917,0.169921875,,
1.370125,1200,,,,0,-0.021484375,-0.9140625,0.060428007700332055,1.195676654325232,22.96712753532479,0.41605654686716353,1690,0,9.55562377380498,10.696523616063665,111.93956427403783,0.11178179913795605,0.1251280588927082,0.169921875,,
1.3792650000001303,1200,,,,-0.25,0.109375,-1.01171875,0.060428007700332055,1.195676654325232,22.967103435013602,0.41451191357778017,1691,0,9.520137994186296,10.699182495995021,112.38474171833157,0.11175401997047947,0.12559446670367605,0.171875,,
1.3884950000001117,1200,,,,0.03125,0.07421875,-1.056640625,0.060428007700332055,1.195676654325232,22.967229630646266,0.41489438448141547,1691,0,9.52897460085031,10.702411285415803,112.31440667772145,0.11172030511989228,0.12547799783394709,0.171875,,
1.3965200000000186,1200,,,,-0.03125,-0.013671875,-0.908203125,0.060428007700332055,1.195676654325232,22.967271836776657,0.4123917306815748,1691,0,9.471512981802517,10.703522511273698,113.00752616649763,0.11170870646236898,0.12623924568571765,0.171875,,
1.4055400000000373,1200,,,,-0.03125,0.021484375,-0.921875,0.055435079465730334,1.195676654325232,22.967307916148968,0.4125090876089721,1691,0,9.474223233324933,9.814301958426691,103.58951564393747,0.12183002513985297,0.12620313295126095,0.171875,,
1.4141800000001676,1200,,,,-0.03125,0.138671875,-1.080078125,0.055435079465730334,1.195676654325232,22.967122996316938,0.4126351145829251,1689,0,9.477041429225375,9.80678564533633,103.47940038643375,0.12192340054805242,0.12616560381787453,0.171875,,
1.4221750000002793,1200,,,,-0.09375,0.05078125,-1.02734375,0.055435079465730334,1.195676654325232,22.967229722234872,0.4122143602762874,1689,0,9.467421907269582,9.804323093962076,103.55853145652887,0.12195402404288176,0.1262937963509505,0.171875,,
1.4324599999999628,1200,,,,0.0625,-0.13671875,-0.90234375,0.055435079465730334,1.195676654325232,22.967268002119532,0.41223317409377686,1688,0,9.467869788776172,9.800498591831289,103.51323804061434,0.1220016148282321,0.12628782197054134,0.171875,,
1.4409199999999256,1200,,,,-0.0625,-0.02734375,-0.900390625,0.055435079465730334,1.195676654325232,22.96704998910377,0.411967568744599,1687,0,9.46167974524675,9.795550440488777,103.5286619736813,0.12206324306013888,0.12637044230184416,0.171875,,
1.4485699999998323,1200,,,,-0.0625,0.185546875,-1.01171875,0.055435079465730334,1.195676654325232,22.966902173600058,0.41304986552379824,1687,0,9.486475854303734,9.794269104072164,103.24454786472464,0.12207921199838234,0.1260401304645485,0.171875,,
1.4561600000001491,1200,,,,0.125,0.0390625,-1.10546875,0.055435079465730334,1.195676654325232,22.96689190107002,0.41435798303660054,1687,0,9.51651500474701,9.79378672946656,102.91358469546093,0.12208522478111558,0.12564228120575724,0.171875,,
1.4648449999997393,1200,,,,-0.03125,-0.041015625,-0.943359375,0.055435079465730334,1.0729634910056562,22.966843438232733,0.4161469875954236,1687,0,9.557582711396273,9.793553151364705,102.46893432255695,0.10955814242516687,0.11226306100665764,0.171875,,
1.474244999999646,1200,,,,-0.09375,-0.056640625,-0.935546875,0.055435079465730334,1.0729634910056562,22.96657688542491,0.41786385079510246,1687,0,9.596902256925445,9.79346794093267,102.04822013129682,0.10955909566223318,0.11180310711525378,0.173828125,,
1.4832399999997579,1200,,,,-0.125,0.185546875,-1.009765625,0.055435079465730334,1.0729634910056562,22.966507317444268,0.422662921886509,1689,0,9.707091088318885,9.805441246909675,101.01317848669558,0.10942531437265161,0.11053398811687432,0.171875,,
1.4913799999998882,1200,,,,0.125,0.171875,-1.04296875,0.055435079465730334,1.0729634910056562,22.96651511914523,0.42132417257531024,1691,0,9.676347979512217,9.814992974654249,101.4328235759564,0.10931882414754894,0.11088517003289335,0.173828125,,
1.500035000000149,1200,,,,-0.03125,0.048828125,-0.931640625,0.055435079465730334,1.0729634910056562,22.966523409274476,0.42179467325228565,1691,0,9.687157237155898,9.818995481924485,101.36095906715452,0.10927426262501544,0.11076144061027682,0.173828125,,
1.5094950000001117,1200,,,,-0.09375,-0.12109375,-0.91015625,0.055435079465730334,1.0729634910056562,22.966398784809453,0.4185546680033437,1693,0,9.612693418608316,9.829180731105557,102.25209837732017,0.10916102983132069,0.11161944361281784,0.173828125,,
1.5177299999999814,1200,,,,-0.09375,0.083984375,-1.03515625,0.055435079465730334,1.0729634910056562,22.9667941314486,0.4171574855333031,1695,0,9.58077009063612,9.838422091462744,102.68926191098609,0.10905849342820088,0.11199136195266077,0.173828125,,
1.5261100000003354,1200,,,,-0.03125,0.154296875,-1.0546875,0.055435079465730334,1.0729634910056562,22.96685453816338,0.4173632753344456,1695,0,9.585521634177644,9.841231915646933,102.66767204987094,0.10902735553866102,0.1119358478290793,0.17578125,,
1.533760000000242,1200,,,,0.0625,0.078125,-0.91796875,0.055435079465730334,1.0729634910056562,22.966845614625182,0.4169251729280599,1693,0,9.575456079489658,9.830188739790389,102.66026660439036,0.1091498362246639,0.11205351286649541,0.17578125,,
1.5417000000001864,1200,,,,-0.09375,-0.07421875,-0.875,0.055435079465730334,1.0729634910056562,22.966897065010205,0.41857032508346326,1693,0,9.613261570659759,9.82595055590491,102.21245394897285,0.10919691534177915,0.11161284680741487,0.17578125,,
1.561310000000056,1200,,,,-0.103515625,0.12890625,-1.060546875,0.05220963875592715,1.0729634910056562,22.96732228639939,0.4143274628725698,1692,0,9.515992371900488,9.249712609490828,97.20176570132665,0.11599965710337026,0.11275371491196026,0.17578125,,
1.5690699999998323,1200,,,,-0.0625,0.078125,-0.984375,0.05220963875592715,1.0729634910056562,22.967549698133038,0.4125547605972452,1691,0,9.475371967218607,9.248014136590566,97.60053925677413,0.11602096138244249,0.11323708396015751,0.17578125,,
1.5763900000001303,1200,,,,-0.125,-0.025390625,-0.845703125,0.05220963875592715,1.0729634910056562,22.96748366172595,0.41264876975301906,1691,0,9.47750387733378,9.247387438096684,97.57197209080086,0.11602882416122663,0.11321161192787646,0.17578125,,
1.5874500000001863,1200,,,,0.1875,0.015625,-0.98046875,0.05220963875592715,1.0729634910056562,22.967439057336584,0.41288350212298053,1690,0,9.482876672789255,9.24146860551838,97.4542738917655,0.11610313650418669,0.11314746864572046,0.177734375,,
1.597875,1200,,,,-0.01953125,0.12109375,-1.06640625,0.05220963875592715,1.0729634910056562,22.967476908524695,0.4122785932632792,1690,0,9.46899907065341,9.239135508336723,97.57246187689375,0.11613245525379427,0.11331329562920911,0.17578125,,
1.6062000000001864,1200,,,,-0.0625,-0.025390625,-0.953125,0.05220963875592715,1.0729634910056562,22.96732773211427,0.41419280128833824,1690,0,9.512901811471746,9.238147442459773,97.11177120864801,0.11614487619824848,0.11279034644421053,0.17578125,,
1.6140450000003912,1200,,,,-0.25,-0.0390625,-0.85546875,0.05220963875592715,1.0729634910056562,22.967260615804673,0.41389261731841837,1690,0,9.505979608909625,9.23724975252644,97.17304404765066,0.11615616333337687,0.11287247976000335,0.177734375,,
1.6207049999996088,1200,,,,0,0.08203125,-1.00390625,0.05220963875592715,1.021444707764538,22.967291053040384,0.41472984004114,1689,0,9.525220944605744,9.236942465885546,96.973524494637,0.1105825560283613,0.10723580205695864,0.17578125,,
1.6295300000002608,1200,,,,-0.125,0.296875,-1.0546875,0.05220963875592715,1.021444707764538,22.967191879702597,0.413742771932572,1689,0,9.50250963181541,9.236786140487979,97.20364933451094,0.11058442755182978,0.1074920991760569,0.17578125,,
1.6366299999998883,1200,,,,-0.03125,0.091796875,-1.0078125,0.05220963875592715,1.021444707764538,22.967326552572274,0.4137916804693875,1690,0,9.503688650078066,9.238471308027808,97.20932206624762,0.11056425610987712,0.10747876381200132,0.17578125,,
1.6443500000000932,1200,,,,0,-0.15625,-0.931640625,0.05220963875592715,1.021444707764538,22.967530568609597,0.4141182839049349,1690,0,9.51127434460674,9.239113459414824,97.13854447541783,0.11055657149914828,0.10739304437619727,0.177734375,,
1.651625,1200,,,,-0.0625,-0.03515625,-0.97265625,0.05220963875592715,1.021444707764538,22.967552965321985,0.41528693755345986,1690,0,9.538124734065454,9.23940504650257,96.86815075403655,0.11055308243588582,0.10709072655722818,0.177734375,,
1.6617700000000186,1200,,,,-0.125,0.1875,-1.029296875,0.05220963875592715,1.021444707764538,22.96742977133605,0.4170625752149831,1690,0,9.578855406502683,9.23953219927909,96.45758086093208,0.11055156102429471,0.10663536136803174,0.177734375,,
1.6685200000000187,1200,,,,-0.03125,0.19921875,-1.015625,0.05220963875592715,1.021444707764538,22.96745788492156,0.4159899763991227,1690,0,9.554232263496365,9.239574755950896,96.70661651436218,0.11055105183349054,0.10691018174920745,0.177734375,,
1.676660000000149,1200,,,,0.1875,-0.109375,-0.96484375,0.05220963875592715,1.021444707764538,22.967394664317613,0.4165009218440226,1690,0,9.565941050043772,9.239590389078616,96.58841028542965,0.11055086478421236,0.10677932285186559,0.1796875,,
1.6844150000000373,1200,,,,-0.09375,-0.125,-0.916015625,0.05220963875592715,1.021444707764538,22.967424588905843,0.4167366891081939,1690,0,9.571368480522741,9.240778660729315,96.54605482522003,0.11053664904943433,0.10671877379322794,0.1796875,,
1.6923649999997579,1200,,,,0.0625,-0.0546875,-1.01953125,0.05220963875592715,1.021444707764538,22.967452905216188,0.4182354302482469,1690,0,9.60580254751944,9.241831374882242,96.21092385735966,0.11052405809314533,0.10633621737606001,0.1796875,,
1.7089099999996833,1200,,,,-0.0625,0.109375,-0.9609375,0.05634254739213912,1.021444707764538,22.96757218992959,0.4179881241355461,1691,0,9.600172415616406,9.977816036923032,103.93371707254258,0.10237157149266626,0.10639857947790342,0.181640625,,
1.7169300000001677,1200,,,,-0.0625,-0.06640625,-0.9296875,0.05634254739213912,1.021444707764538,22.967252868454477,0.41793412267896185,1692,0,9.598798677923392,9.981401183199434,103.98594155491566,0.1023348013988077,0.10641380677290314,0.1796875,,
1.7245900000003167,1200,,,,0,-0.02734375,-0.91015625,0.05634254739213912,1.021444707764538,22.967197369410908,0.4180820006054739,1692,0,9.60217182450409,9.982663187754433,103.96255524483904,0.10232186427140279,0.10637642467070633,0.181640625,,
1.732274999999907,1200,,,,-0.1875,0.0703125,-1.00390625,0.05634254739213912,1.021444707764538,22.9671710664974,0.4186706166905346,1692,0,9.61567967404747,9.98323750137914,103.82248410711622,0.10231597792033197,0.1062269899153772,0.181640625,,
1.7405699999998323,1200,,,,0,0.0859375,-1.06640625,0.05634254739213912,1.021444707764538,22.96704144186024,0.4161132838638872,1692,0,9.55689103501045,9.983438849074094,104.46324869145249,0.10231391439426418,0.10688043883963999,0.181640625,,
1.7617450000001118,1200,,,,-0.01953125,-0.00390625,-0.88671875,0.05634254739213912,1.021444707764538,22.96696888257087,0.4149595362331028,1692,0,9.530362756191712,9.98038869569188,104.72202319064712,0.10234518302933966,0.10717794630649533,0.181640625,,
1.7769499999997207,1200,,,,0,0.078125,-1.046875,0.05634254739213912,1.2427631782014252,22.966919229910836,0.41525591490304564,1691,0,9.537149057320976,9.975185705660335,104.59295168510667,0.12458546786715255,0.13030761821295497,0.1796875,,
1.801035000000149,1200,,,,-0.125,0.0078125,-0.94140625,0.05634254739213912,1.2427631782014252,22.967183532950845,0.41749155068061017,1691,0,9.588605067937824,9.979505257611633,104.07671592378847,0.12453154200740932,0.1296083392105647,0.181640625,,
1.809350000000093,1200,,,,-0.01953125,0.16015625,-1.037109375,0.05634254739213912,1.2427631782014252,22.96712660135062,0.41610893955230416,1692,0,9.556826694651523,9.98139568488925,104.44257287280658,0.12450795634550725,0.13003931303859861,0.181640625,,
1.8251749999998137,1200,,,,-0.1875,-0.22265625,-0.89453125,0.05634254739213912,1.2427631782014252,22.967343433806615,0.4138542269671257,1693,0,9.505132162286527,9.989940515592915,105.10049039854448,0.12440145927412119,0.13074654376004696,0.181640625,,
1.8321650000000373,1200,,,,-0.0625,0.017578125,-1.001953125,0.05634254739213912,1.2427631782014252,22.967371422079893,0.4141705208378159,1693,0,9.512408184158398,9.990811317845184,105.02925362773541,0.1243906164038602,0.13064653599191378,0.181640625,,
1.8394300000001675,1200,,,,-0.1875,0.29296875,-1.03125,0.05634254739213912,1.2427631782014252,22.967308575243646,0.41509184320119125,1693,0,9.53354244986841,9.987527045219549,104.7619717197295,0.12443152069322946,0.1303569145190704,0.181640625,,
1.847654999999795,1200,,,,-0.0625,0.166015625,-0.986328125,0.05634254739213912,1.2427631782014252,22.967340850320426,0.4141647524394519,1693,0,9.51226303746547,9.986145725655582,104.98180807578233,0.12444873250834108,0.13064852951465036,0.181640625,,
1.855810000000056,1200,,,,0.125,0.0390625,-0.96875,0.06085111194926735,1.2427631782014252,22.96737315773339,0.4135566282107289,1692,0,9.498309401969824,10.78461379465372,113.54245622296884,0.11523483379789666,0.13084046071858774,0.181640625,,
1.8634150000000373,1200,,,,-0.0625,-0.13671875,-0.8984375,0.06085111194926735,1.2427631782014252,22.967403788976196,0.41223785030389165,1692,0,9.468033165029002,10.779222420356588,113.84859170297983,0.11529247006300417,0.13125885350630986,0.18359375,,
1.871345000000205,1200,,,,-0.09375,0.05859375,-1.03125,0.06085111194926735,1.2427631782014252,22.967236383835257,0.41236214456172937,1691,0,9.470818849894485,10.777081634486764,113.79250100013087,0.11531537204140416,0.13122024588351947,0.18359375,,
1.8794499999997205,1200,,,,0.125,0.09765625,-1.0703125,0.06085111194926735,1.2427631782014252,22.967078376558117,0.4130088745874813,1691,0,9.485607192864745,10.776242468789128,113.60624838961522,0.11532435186019604,0.13101566962800815,0.18359375,,
1.8886650000000373,1200,,,,-0.0625,0.10546875,-0.97265625,0.06085111194926735,1.2427631782014252,22.967203112539313,0.4115475597861907,1691,0,9.452096396079357,10.773702116608579,113.982143909127,0.11535154441346582,0.13148016335475715,0.18359375,,
1.8994050000002607,1200,,,,-0.125,-0.044921875,-0.869140625,0.06085111194926735,1.2427631782014252,22.9674364588619,0.4110704840399609,1690,0,9.441235222301406,10.77182685694997,114.0934062473683,0.11537162588160205,0.13163141781129015,0.18359375,,
1.9072749999999068,1200,,,,0,0.048828125,-1.03515625,0.06085111194926735,1.2427631782014252,22.96733953209194,0.4091236912890608,1690,0,9.396482728458626,10.770960573563105,114.62757805047276,0.11538090495398694,0.1322583368814732,0.18359375,,
1.9151999999997207,1200,,,,0.03125,0.06640625,-1.111328125,0.06085111194926735,1.2427631782014252,22.967470148412698,0.4081231043617151,1689,0,9.373555216305212,10.76559629226124,114.85072679290975,0.11543839695110761,0.13258183789643124,0.18359375,,
1.9226099999998696,1200,,,,-0.125,0.0703125,-0.9453125,0.06085111194926735,1.3360527992147533,22.967495266685948,0.4066891610814508,1689,0,9.3406313821507,10.763520253396377,115.23332645333504,0.1241278659547436,0.1430366689951878,0.18359375,,
1.930279999999795,1200,,,,-0.09375,-0.083984375,-0.84375,0.06085111194926735,1.3360527992147533,22.967518272569635,0.4076492473936617,1689,0,9.362691538313184,10.76269711967808,114.95302473264142,0.12413735928440915,0.1426996493206548,0.185546875,,
1.9392799999997952,1200,,,,0.1875,0.0390625,-0.94140625,0.06085111194926735,1.3360527992147533,22.967541317388307,0.40767799123894594,1689,0,9.36336110797036,10.760322861938166,114.91944759856236,0.1241647501062158,0.14268944493419858,0.185546875,,
1.947114999999758,1200,,,,-0.0625,0.12890625,-1.025390625,0.06085111194926735,1.3360527992147533,22.96741946441406,0.40938687540291,1688,0,9.40256009060445,10.7581974991614,114.41774788455304,0.12418927978584687,0.14209457704501247,0.185546875,,
1.9557549999998882,1200,,,,-0.09375,0.052734375,-1.01171875,0.06085111194926735,1.3360527992147533,22.967513263419317,0.4101812332355927,1688,0,9.420842914744167,10.757483185938279,114.18811759510596,0.12419752614265614,0.1418188172019887,0.18359375,,
1.9645749999997206,1200,,,,0.125,-0.12109375,-0.92578125,0.06085111194926735,1.3360527992147533,22.967465729552647,0.41104778502510964,1688,0,9.44072591577273,10.757913574920371,113.9521862079165,0.12419255740531848,0.14152013427088214,0.18359375,,
1.9726200000001117,1200,,,,-0.0625,-0.0234375,-0.951171875,0.06085111194926735,1.3360527992147533,22.967107219087687,0.4102877137285208,1688,0,9.423121911877292,10.758391957067186,114.17014507163347,0.12418703506494763,0.14178451809381104,0.185546875,,
1.9806750000002793,1200,,,,-0.125,0.2265625,-1.041015625,0.06085111194926735,1.3360527992147533,22.96708553298504,0.4118976158955125,1688,0,9.460087775104853,10.758586334143718,113.72607305458615,0.12418479135819385,0.14123048654270492,0.185546875,,
1.988589999999851,1200,,,,-0.03125,0.08984375,-1.001953125,0.06085111194926735,1.3360527992147533,22.967129936798212,0.41266913407675876,1689,0,9.477825623246922,10.763432436906587,113.56436449417646,0.12412887868683786,0.14096617223445468,0.185546875,,
1.9965600000000558,1200,,,,0.1875,-0.16796875,-0.95703125,0.06085111194926735,1.3360527992147533,22.967172642801177,0.4113905762890135,1690,0,9.44847838925124,10.767763917234623,113.96294168894141,0.12407894614742615,0.14140401704624428,0.185546875,,
2.0046400000001303,1200,,,,-0.09375,-0.115234375,-0.94140625,0.05871206566962098,1.3360527992147533,22.967213535491787,0.4112356530308576,1690,0,9.444937056567117,10.390912145947468,110.01568442134413,0.12857897174463395,0.14145703578678573,0.1875,,
2.012639999999665,1200,,,,-0.0625,0.09375,-1.00390625,0.05871206566962098,1.3360527992147533,22.967252102681414,0.41140854029389456,1691,0,9.448923662126042,10.398514935834358,110.04972955294947,0.1284849622719276,0.1413973534964655,0.185546875,,
2.0206750000002796,1200,,,,-0.0625,0.197265625,-1.01953125,0.05871206566962098,1.3360527992147533,22.967223433626437,0.4097647497606258,1692,0,9.411158562976318,10.401515649523963,110.52322176829247,0.12844789588677868,0.14196475282764984,0.185546875,,
2.028725000000093,1200,,,,0,0.080078125,-0.94140625,0.05871206566962098,1.3360527992147533,22.967458788274474,0.41065222467764934,1692,0,9.431638046597142,10.40270304374709,110.29582552206082,0.12843323447724816,0.14165649621136492,0.1875,,
2.0364199999999255,1200,,,,-0.125,-0.1953125,-0.90234375,0.05871206566962098,1.3360527992147533,22.967354422505874,0.41032127989731815,1692,0,9.42399426249794,10.402837243306111,110.38671027956161,0.1284315776519968,0.14177139353017992,0.1875,,
2.0448000000002793,1200,,,,0,-0.0703125,-0.95703125,0.05871206566962098,1.3360527992147533,22.967386103685314,0.4106455475910802,1692,0,9.431454843283621,10.40222676917235,110.29291813425837,0.12843911489934343,0.14165924784829886,0.1875,,
2.0547999999998137,1200,,,,-0.0625,0.16015625,-1.025390625,0.05871206566962098,1.3360527992147533,22.967415643915004,0.41053047897653405,1692,0,9.428824145149568,10.401989140945217,110.32117028395605,0.12844204902653336,0.14169877162276417,0.1875,,
2.0647349999998696,1200,,,,-0.09375,0.125,-0.966796875,0.05871206566962098,1.11717881912794,22.967269609339176,0.4076342572977023,1692,0,9.362245889359064,10.401875880316116,111.10449355040623,0.10740166792818803,0.1193280792163024,0.1875,,
2.0725449999999257,1200,,,,-0.09375,-0.068359375,-0.875,0.05871206566962098,1.11717881912794,22.96730767189445,0.4092488533395958,1692,0,9.399344329020506,10.40184732810992,110.66566947647809,0.10740196273683804,0.11885710109359934,0.1875,,
2.080774999999907,1200,,,,0.1875,-0.046875,-0.9609375,0.05871206566962098,1.11717881912794,22.96747362066361,0.4081275660357529,1692,0,9.3736591067918,10.401836412498714,110.96879344547462,0.10740207544367379,0.11918278725524319,0.1875,,
2.088495000000112,1200,,,,0,0.064453125,-1.046875,0.05871206566962098,1.11717881912794,22.967499424565954,0.4078146006857663,1690,0,9.366481606579931,10.393233142765142,110.96197675190993,0.10749098031209105,0.11927411658430254,0.1875,,
2.0964899999997577,1200,,,,-0.125,0.06640625,-1.05859375,0.05871206566962098,1.11717881912794,22.967785189083262,0.4071982542813213,1689,0,9.352442033703092,10.385540540162166,111.04629681463014,0.10757059921991269,0.11945316689502046,0.1875,,
2.1048199999998323,1200,,,,-0.0625,0.01953125,-0.923828125,0.05871206566962098,1.11717881912794,22.967893141721554,0.4069324665895871,1689,0,9.346381408526813,10.382512745979765,111.08590899690523,0.10760196943273921,0.11953062584293048,0.1875,,
2.1128950000000186,1200,,,,-0.03125,-0.01171875,-0.91015625,0.05871206566962098,1.11717881912794,22.96789845379339,0.40699784269906825,1688,0,9.347885122025174,10.379308813775221,111.03376515956364,0.107635184497569,0.11951139798409383,0.1875,,
2.1205749999997208,1200,,,,-0.125,0.1640625,-1.0234375,0.05871206566962098,1.11717881912794,22.967838656693996,0.40979899901203687,1688,0,9.412197290983165,10.377084021344743,110.25145033122004,0.10765826091703624,0.11869479406240148,0.1875,,
2.128799999999814,1200,,,,0.03125,0.087890625,-1.07421875,0.05871206566962098,1.11717881912794,22.967846662061906,0.40972251543788574,1688,0,9.41044390857165,10.376190729281252,110.26250015506638,0.10766752927693397,0.11871690963593545,0.1875,,
2.136739999999758,1200,,,,-0.25,0.1171875,-0.98046875,0.05871206566962098,1.11717881912794,22.96798497391286,0.40986328792337545,1688,0,9.413733838382607,10.375512208602473,110.21675763020204,0.10767457034089097,0.11867542022198121,0.1875,,
2.1446000000000933,1200,,,,-0.0625,-0.06640625,-0.892578125,0.05871206566962098,1.11717881912794,22.967985730118492,0.4116989166407126,1687,0,9.45589484250913,10.374585559639124,109.71553440928727,0.10768418773991012,0.11814628205314259,0.189453125,,
2.1527949999999256,1200,,,,0,0.0859375,-1.017578125,0.05871206566962098,1.11717881912794,22.96788790971155,0.4105672316394428,1687,0,9.4298621556953,10.374218998599892,110.01453496681532,0.10768799263623748,0.118472444313855,0.1875,,
2.163570000000298,1200,,,,-0.0625,0.2734375,-1.0390625,0.05325992323719226,1.11717881912794,22.967730544768475,0.41122690642887383,1687,0,9.444948779617093,9.410698513783819,99.63736949101101,0.11871369776553907,0.11828320567909226,0.1875,,
2.1716450000000185,1200,,,,0.01953125,-0.013671875,-0.98046875,0.05325992323719226,1.11717881912794,22.96781747853134,0.41271141551170043,1687,0,9.479080462779043,9.409710030597338,99.26817340084729,0.11872616855304097,0.11785729887141494,0.1875,,
2.179600000000093,1200,,,,-0.1875,-0.16015625,-0.9140625,0.05325992323719226,1.11717881912794,22.967761304790677,0.4120697705607694,1687,0,9.464320131159612,9.409369984592615,99.41939678914619,0.11873045920792422,0.11804110634950152,0.189453125,,
2.1875649999999442,1200,,,,-0.03125,0.064453125,-1.0078125,0.05325992323719226,1.11717881912794,22.96777333805291,0.41187778323820573,1688,0,9.459915568394798,9.4134849516778,99.50918571755417,0.11867855792650107,0.11809606661399706,0.1875,,
2.1952200000002047,1200,,,,-0.03125,0.220703125,-1.025390625,0.05325992323719226,1.11717881912794,22.96759431436321,0.4112941340891163,1690,0,9.446436815636128,9.42326793099563,99.75473413846215,0.11855534909001603,0.11826457329167121,0.189453125,,
2.204929999999702,1200,,,,-0.125,0.15234375,-0.97265625,0.05325992323719226,1.11717881912794,22.967614060774658,0.4117793783597509,1690,0,9.457589840352464,9.427287645612063,99.67959918698196,0.11850479810573422,0.11812510776913805,0.1875,,
2.213970000000205,1200,,,,0,-0.111328125,-0.953125,0.05325992323719226,1.0185829771060357,22.967637957122946,0.4123668800128534,1691,0,9.471093205643575,9.430424637002757,99.57060322649359,0.10801029819053501,0.1075465054550502,0.1875,,
2.2216800000001675,1200,,,,-0.03125,-0.03515625,-0.96875,0.05325992323719226,1.0185829771060357,22.967655603066582,0.4121665807029723,1691,0,9.466500076679417,9.43372301264722,99.65375731509324,0.10797253382789417,0.1075986868278066,0.1875,,
2.229814999999944,1200,,,,-0.25,0.22265625,-0.98046875,0.05325992323719226,1.0185829771060357,22.96760665567841,0.4098234353819928,1692,0,9.412663462132448,9.435042304979214,100.23775250158255,0.10795743613873278,0.108214107643797,0.189453125,,
2.2372949999999254,1200,,,,0,0.1328125,-1.021484375,0.05325992323719226,1.0185829771060357,22.9676257902344,0.4100634744661444,1692,0,9.418184431781743,9.43555350582172,100.18442061913085,0.10795158720445726,0.10815067218994127,0.189453125,,
2.245379999999888,1200,,,,0,-0.0234375,-0.966796875,0.05325992323719226,1.0185829771060357,22.967446057883752,0.4096511535991633,1691,0,9.408640772838634,9.433944613824682,100.26894257732846,0.10796999757804226,0.10826037487227011,0.1875,,
2.2527099999999627,1200,,,,-0.1875,-0.0078125,-0.82421875,0.05325992323719226,1.0185829771060357,22.967355933568793,0.4090364339556572,1691,0,9.394485368457284,9.43336613783711,100.41386800718612,0.10797661854982098,0.1084234992292401,0.1875,,
2.260804999999702,1200,,,,-0.03125,0.037109375,-1.046875,0.05325992323719226,1.0185829771060357,22.96748598194085,0.41123970685563793,1691,0,9.445142202424329,9.433090005077773,99.87239792595751,0.10797977932551675,0.1078419948875509,0.189453125,,
2.2683349999999627,1200,,,,0.0625,0.16796875,-1.12109375,0.05325992323719226,1.0185829771060357,22.96744633886229,0.41109508506360803,1691,0,9.441804306368445,9.432087363274585,99.89708595117455,0.10799125770103227,0.1078801195253546,0.189453125,,
2.2754849999998696,1200,,,,-0.125,0.119140625,-0.96484375,0.05325992323719226,1.0185829771060357,22.96738327118683,0.4121057128444476,1691,0,9.464989855144088,9.431710490451357,99.64839513615912,0.1079955728218383,0.1076158551350639,0.1875,,
2.2835800000000743,1200,,,,0.0625,-0.16796875,-0.87890625,0.05325992323719226,1.0185829771060357,22.967413557151215,0.4144653026028549,1691,0,9.51919600996959,9.431536478279341,99.07912882980409,0.1079975653438667,0.10700304690010155,0.189453125,,
2.29175,1200,,,,-0.03125,0.00390625,-0.904296875,0.05325992323719226,1.0185829771060357,22.967442642638165,0.4128719034934379,1691,0,9.482611762242374,9.433278189174718,99.47974699054862,0.10797762524113026,0.10741586839627916,0.189453125,,
2.299415000000037,1200,,,,-0.0625,0.140625,-1.05078125,0.05325992323719226,1.0185829771060357,22.96753474169318,0.4122244073231291,1692,0,9.467778396567848,9.435752792419413,99.66174108848973,0.10794930722690772,0.10758415907529911,0.189453125,,
2.307334999999963,1200,,,,0,0.02734375,-1.0859375,0.052587257636165376,1.0185829771060357,22.967753963687823,0.4129879541048083,1692,0,9.485405719846035,9.317553946936757,98.23042073405371,0.10931870992181436,0.10738422869723795,0.189453125,,
2.315935000000056,1200,,,,-0.0625,-0.02734375,-0.935546875,0.052587257636165376,1.0185829771060357,22.96770043735681,0.41254123526146275,1692,0,9.475123509542417,9.31972612915133,98.35994348533204,0.10929323061543543,0.1075007598666359,0.1875,,
2.3238349999999626,1200,,,,-0.25,-0.0546875,-0.859375,0.052587257636165376,1.0185829771060357,22.96771523852117,0.41211521702995685,1693,0,9.465344950205399,9.322369880736169,98.48948907597787,0.10926223590536188,0.10761181789618056,0.189453125,,
2.33175,1200,,,,-0.03125,0.1484375,-1.021484375,0.052587257636165376,1.0185829771060357,22.967630637905103,0.40999851443755847,1693,0,9.416694441691645,9.323406487142906,99.00933437814746,0.10925008777753864,0.10816778471608283,0.1875,,
2.3395699999998323,1200,,,,0,0.15625,-1.015625,0.052587257636165376,1.0185829771060357,22.967583789738498,0.41096825044058705,1693,0,9.43894772691642,9.323810878456312,98.78019402383404,0.10924534939458964,0.10791276809399106,0.189453125,,
2.349834999999963,1200,,,,-0.1875,0.1015625,-0.9609375,0.052587257636165376,1.0185829771060357,22.96760900599599,0.4127741164335735,1693,0,9.480434514041779,9.323001662203296,98.33939202253543,0.10925483165314752,0.10744053720294987,0.189453125,,
2.368174999999814,1200,,,,-0.0625,0.033203125,-1.001953125,0.052587257636165376,1.1406286119306506,22.967668511900058,0.41242928102420545,1693,0,9.472539011165225,9.323319844271055,98.42471837045711,0.12234146537743615,0.12041424274803182,0.189453125,,
2.376029999999795,1200,,,,-0.03125,0.173828125,-1.01171875,0.052587257636165376,1.1406286119306506,22.967506198287346,0.4122444489852386,1693,0,9.468226937278018,9.324597024989078,98.48303263915818,0.12232470838942089,0.12046908248890845,0.189453125,,
2.384089999999851,1200,,,,-0.03125,0.109375,-0.962890625,0.052587257636165376,1.1406286119306506,22.96753299650878,0.4120289485864244,1693,0,9.463288472175522,9.325204506233694,98.54084585556248,0.12231673966701377,0.1205319498908217,0.189453125,,
2.391595000000205,1200,,,,-0.125,-0.2109375,-0.9296875,0.052587257636165376,1.1406286119306506,22.967612279238285,0.4120537718611246,1693,0,9.463891270304016,9.324562379649201,98.52778432596743,0.12232516288593503,0.12052427266464244,0.189453125,,
2.3990849999999626,1200,,,,0,-0.033203125,-0.9765625,0.052587257636165376,1.1406286119306506,22.96771677926818,0.4133114311092695,1693,0,9.492819891351713,9.323450087198196,98.21581146495976,0.12233975634157361,0.12015698443513108,0.189453125,,
2.407160000000149,1200,,,,-0.25,0.234375,-1.0625,0.052587257636165376,1.1406286119306506,22.96773131100678,0.41172866401437347,1693,0,9.456473328121916,9.322928030395886,98.58778962206884,0.1223466070114257,0.1206188155301637,0.189453125,,
2.4149050000002608,1200,,,,-0.03125,0.08984375,-1.052734375,0.052587257636165376,1.1406286119306506,22.967556380039483,0.41278610670685406,1693,0,9.480688178686664,9.323317432636916,98.34009153044892,0.12234149702313056,0.12031074015226803,0.189453125,,
2.423060000000056,1200,,,,0,0.15625,-0.9375,0.052587257636165376,1.1406286119306506,22.96764443254209,0.41406613417326554,1693,0,9.51012374124883,9.324677411841618,98.05001139361768,0.12232365384373947,0.119938356530876,0.189453125,,
2.431695000000298,1200,,,,-0.125,-0.025390625,-0.89453125,0.052587257636165376,1.1406286119306506,22.967736231317527,0.41351495971754804,1693,0,9.497502522496536,9.325235102727143,98.1861819003328,0.12231633834058259,0.12009774245691089,0.189453125,,
2.439625,1200,,,,0,0.08203125,-1.005859375,0.052587257636165376,1.1406286119306506,22.967749029696293,0.4145210059125278,1693,0,9.520614431336192,9.325425650555507,97.9498300011159,0.12231383903239895,0.11980619740007331,0.189453125,,
2.4477400000002234,1200,,,,0.03125,0.05078125,-1.072265625,0.052587257636165376,1.1406286119306506,22.967564865218694,0.4129325702829238,1693,0,9.48405559293453,9.324607909521132,98.31878164514153,0.12232456560087444,0.12026802255149166,0.189453125,,
2.4567050000000745,1200,,,,-0.125,0.11328125,-0.99609375,0.06084845832580301,1.1406286119306506,22.96751507085447,0.4138762358139605,1693,0,9.505708683525656,10.789062843418348,113.50087828924185,0.10572082380875816,0.11999406355756242,0.189453125,,
2.46475,1200,,,,-0.125,-0.064453125,-0.859375,0.06084845832580301,1.1406286119306506,22.96743930083641,0.4122920980390558,1693,0,9.46929373592651,10.788928763329315,113.93593930238018,0.10572213766092829,0.12045551059453405,0.189453125,,
2.471910000000149,1200,,,,0,0.107421875,-0.984375,0.06084845832580301,1.1406286119306506,22.967340804768035,0.4106842349198475,1693,0,9.432324786549556,10.785863032810207,114.34999617687878,0.1057521876979987,0.12092762258962719,0.189453125,,
2.478814999999944,1200,,,,0,0.21484375,-1.0546875,0.06084845832580301,1.1406286119306506,22.967369499655383,0.4102949617003666,1692,0,9.423395989219275,10.784655405324594,114.4455291665834,0.10576402945313394,0.12104220317554026,0.189453125,,
2.4879900000002233,1200,,,,-0.0625,0.09765625,-1.009765625,0.06084845832580301,1.1406286119306506,22.967486989162857,0.40875054154685964,1692,0,9.38797274479077,10.784125093898478,114.87171285070474,0.10576923041962892,0.12149892665203638,0.189453125,,
2.4963900000001304,1200,,,,0.1875,-0.23828125,-0.91015625,0.06084845832580301,1.1406286119306506,22.967458316072605,0.4081429655574143,1692,0,9.37400654843817,10.781602307730482,115.01594597804967,0.1057939793524764,0.12167994614007327,0.19140625,,
2.505035000000149,1200,,,,-0.09375,-0.0703125,-0.96484375,0.06084845832580301,1.1406286119306506,22.967685898199544,0.4081484611607109,1692,0,9.374225655772705,10.779778604184761,114.99380322199208,0.1058118773875238,0.12167710206850468,0.19140625,,
2.516114999999758,1200,,,,-0.125,0.181640625,-0.98046875,0.06084845832580301,1.188329574554921,22.96777564199039,0.4079180110626741,1692,0,9.368969358414454,10.779041929027047,115.0504555695465,0.11024445237149047,0.1268367446935515,0.19140625,,
2.523825000000186,1200,,,,-0.03125,0.154296875,-0.95703125,0.06084845832580301,1.188329574554921,22.96778939867595,0.4060798992942972,1689,0,9.326757606026957,10.763879797583277,115.4085937714051,0.11039974404226686,0.12741079212641074,0.19140625,,
2.5327000000001862,1200,,,,0,-0.154296875,-0.9609375,0.06084845832580301,1.188329574554921,22.96786564207602,0.40661541634909304,1689,0,9.33908825070277,10.75942742789975,115.2085421945777,0.11044542867341817,0.1272425682951972,0.19140625,,
2.540910000000149,1200,,,,-0.03125,-0.04296875,-0.986328125,0.06084845832580301,1.188329574554921,22.967873158633537,0.40670545594974783,1688,0,9.341159325178028,10.757579048604915,115.16321126874574,0.11046440553081767,0.1272143567182196,0.19140625,,
2.549810000000056,1200,,,,-0.1875,0.26171875,-1.0234375,0.06084845832580301,1.188329574554921,22.96774786999489,0.40635369763569085,1688,0,9.333029273336686,10.753866751623601,115.22375465323003,0.11050253848231,0.12732517382644798,0.19140625,,
2.557510000000242,1200,,,,-0.03125,0.138671875,-1.001953125,0.06084845832580301,1.188329574554921,22.967689142787613,0.40645694545958977,1687,0,9.335376773242837,10.752334524571586,115.17836704127518,0.11051828529323669,0.1272931562827678,0.19140625,,
2.5659550000000744,1200,,,,0.03125,-0.111328125,-0.958984375,0.06084845832580301,1.188329574554921,22.967309569292503,0.42615266793436757,1687,0,9.787580248228531,10.751806871389544,109.85153223479858,0.11052370906299058,0.12141198788842611,0.193359375,,
2.5741200000001117,1200,,,,-0.0625,0.01953125,-0.9296875,0.06084845832580301,1.188329574554921,22.96662661733133,0.44574393381784344,1688,0,10.237234494934857,10.756723512749929,105.07450540545989,0.11047319131577527,0.11607915938067831,0.19140625,,
2.5821000000000933,1200,,,,-0.0625,0.037109375,-1.021484375,0.06084845832580301,1.188329574554921,22.9663002930663,0.45522705232833527,1688,0,10.454881185299955,10.758674936779007,102.90575996125331,0.11045315352846695,0.11366265703963878,0.193359375,,
2.5899699999997394,1200,,,,0.1875,0.1015625,-1.0390625,0.06084845832580301,1.188329574554921,22.966577105535084,0.44851923456543247,1689,0,10.300951583962581,10.759436883624462,104.45090238435535,0.11044533161057181,0.11536114550863592,0.193359375,,
2.597554999999702,1200,,,,-0.09375,0,-0.931640625,0.06084845832580301,1.188329574554921,22.966942836548633,0.43948720711458683,1710,0,10.093677563195126,10.898475228094195,107.97328485936212,0.10903631468479494,0.11773009065476414,0.193359375,,
2.6056549999997953,1200,,,,-0.0625,-0.15234375,-0.876953125,0.06428890043387127,1.188329574554921,22.96718747848716,0.43335572505629455,1719,0,9.952962182243652,11.571856561891643,116.26545293758015,0.10269135019079995,0.11939456342705013,0.193359375,,
2.613495000000112,1200,,,,0.0625,0.01171875,-1.0546875,0.06428890043387127,1.188329574554921,22.96749644120198,0.42867605487497834,1722,0,9.84561576476957,11.593900943358815,117.75699174494609,0.10249609517628461,0.12069631833562956,0.193359375,,
2.621904999999795,1200,,,,-0.125,0.236328125,-1.0078125,0.06428890043387127,1.188329574554921,22.96752343888716,0.42339682268633166,1716,0,9.724376448998672,11.554614267676529,118.82113293615157,0.10284459065667083,0.12220110778180376,0.193359375,,
2.62994000000041,1200,,,,-0.03125,0.1484375,-0.970703125,0.06428890043387127,1.188329574554921,22.967546724348125,0.41886162739075006,1714,0,9.620223998133547,11.540917822501111,119.96516738841221,0.1029666438000327,0.1235241065889394,0.193359375,,
2.6380150000001303,1200,,,,-0.0625,-0.1171875,-0.91015625,0.06428890043387127,1.188329574554921,22.967634880999682,0.41726931611696544,1713,0,9.583689299618898,11.535438053748344,120.36531750050639,0.10301555684474274,0.12399500207108922,0.193359375,,
2.6460499999998137,1200,,,,0,-0.041015625,-0.904296875,0.06428890043387127,1.188329574554921,22.967753827841555,0.41550811226578355,1706,0,9.543288035991669,11.484997262589525,120.34633366691723,0.10346798935910134,0.1245199317125545,0.193359375,,
2.6540599999995904,1200,,,,0,0.107421875,-1.0703125,0.06428890043387127,1.188329574554921,22.967894604387084,0.4149473889500718,1703,0,9.530467895770864,11.465855437221919,120.3073717116227,0.10364072537468198,0.12468743272114072,0.193359375,,
2.663214999999851,1200,,,,-0.125,0.05859375,-1.01953125,0.06428890043387127,1.1963691149798343,22.967680816862817,0.4129138586209582,1702,0,9.483673709665387,11.457716429346448,120.81516910128607,0.1044160171319649,0.12615038766681122,0.19140625,,
2.6738249999997206,1200,,,,-0.0625,-0.01953125,-0.912109375,0.06428890043387127,1.1963691149798343,22.967917564275517,0.4108750436659124,1699,0,9.436944132136778,11.440083599986048,121.22656910755394,0.10457695562480797,0.12677505538108383,0.19140625,,0.24967999999970197,6027,
2.682780000000261,1200,,,,-0.0625,0.021484375,-0.9140625,0.06428890043387127,1.1963691149798343,22.968012637519784,0.4089531778583812,1697,0,9.392841757205176,11.425111545887615,121.63636779171225,0.10471399864891985,0.12737030452600873,0.193359375,,
2.6920800000000744,1500,,,,-0.0625,0.201171875,-1.0390625,0.06428890043387127,1.1963691149798343,22.96801197025582,0.4069605967314822,1696,0,9.347075857151134,11.421017044114794,122.18812833723776,0.1047515392332173,0.1279939451935155,0.19140625,,
2.701219999999739,1500,,,,-0.0625,0.09765625,-1.001953125,0.06428890043387127,1.1963691149798343,22.96778815941131,0.40739593749841124,1693,0,9.35698358946828,11.399719801975746,121.83114027053183,0.10494723868322493,0.12785841757020963,0.19140625,,
2.7083149999999443,1500,,,,-0.0625,-0.14453125,-0.900390625,0.06428890043387127,1.1963691149798343,22.967798213690838,0.4070250914276922,1692,0,9.348470167820299,11.392788142983258,121.86794136863162,0.10501109122411531,0.1279748550835651,0.193359375,,
2.7151199999996463,1500,,,,0.0625,-0.02734375,-1.0390625,0.06428890043387127,1.1963691149798343,22.96786439991818,0.4083859542556358,1692,0,9.379753220174631,11.390125596188362,121.43310520888417,0.10503563853415207,0.1275480374480002,0.193359375,,
2.7232400000002235,1500,,,,0.53125,-0.0625,-1.154296875,0.06428890043387127,1.1963691149798343,22.956249333185376,0.41142859599286297,1691,0,9.444857432414556,11.383600980692961,120.52697525771725,0.10509584067545268,0.1266688378877928,0.197265625,,
2.730799999999814,1500,,,,-1.6875,0.64453125,-0.3828125,0.06428890043387127,1.1963691149798343,22.92269401732978,1.4795473925931653,1690,0,33.91521216455122,11.380957792218949,33.55708859198742,0.10512024882455678,0.03527529502617414,0.21484375,,
2.738354999999981,1500,,,,0.03125,1.041015625,-1.16015625,0.06428890043387127,1.1963691149798343,22.89391165564457,2.327594046112575,1810,0,53.287732461905584,12.18538273367958,22.867144407750292,0.09818067607126942,0.022451116977722715,0.22265625,,
2.7460999999996276,1500,,,,-1.125,1.0625,-1.16015625,0.06428890043387127,1.1963691149798343,22.874099280023348,2.9260296833677617,1979,0,66.93029347364946,13.322074452955412,19.90440167156944,0.08980351515108277,0.017874852370860235,0.23828125,,
2.7531549999997953,1500,,,,0.25,-0.388671875,-0.470703125,0.06571977467193009,1.1963691149798343,22.86104061320694,3.3209192131444505,2040,0,75.9196690048745,14.041637603121917,18.495388332396914,0.08520153765496997,0.01575835525446008,0.248046875,,
2.761260000000242,1500,,,,0.0625,0.52734375,-1.28515625,0.06571977467193009,1.1963691149798343,22.850611079230518,3.647831926819342,2431,0,83.35518864214887,16.72801245781631,20.06835174908083,0.07151890387437035,0.014352665196595638,0.251953125,,
2.768805000000168,1500,,,,0.375,-0.19140625,-0.755859375,0.06571977467193009,1.1963691149798343,22.841851522340484,3.921264789750851,2680,0,89.56894810727061,18.446122318593194,20.594327284609317,0.06485748572608815,0.013356962878999366,0.2578125,,
2.775995000000112,1500,,,,-0.0625,0.046875,-1.00390625,0.06571977467193009,1.1963691149798343,22.83605181862879,4.095759820211159,2908,0,93.53098349099976,20.013845069034367,21.398091115935124,0.05977707486258446,0.012791152945536574,0.259765625,,
2.7832800000002607,1500,,,,0.03125,0.3125,-1.09375,0.06571977467193009,1.1963691149798343,22.83117496263688,4.243198179354087,3119,0,96.87720003397541,21.46246240425038,22.15429677645862,0.055742397700969656,0.012349336216986664,0.259765625,,
2.7921699999999254,1500,,,,-0.8125,-0.19921875,-0.8515625,0.06571977467193009,1.1963691149798343,22.82770188781431,4.355270447473729,3255,0,99.42081541573792,22.400201928461357,22.530696247855854,0.05340885402732669,0.012033386670357702,0.265625,,
2.8003950000000186,1500,,,,0.21875,0.3828125,-1.052734375,0.06571977467193009,1.1963691149798343,22.82535536357441,4.4280460127579415,3397,0,101.07172380745875,23.376742188200588,23.128864639464535,0.05117775203012255,0.011836832992567861,0.267578125,,
2.8088999999999067,1500,,,,-0.3125,-0.29296875,-0.791015625,0.06571977467193009,1.1963691149798343,22.823898774449475,4.479413261538747,3499,0,102.23767485028694,24.08083667886456,23.553779674789794,0.04968137656237966,0.011701841974905562,0.271484375,,
2.8168900000001305,1500,,,,0,0.423828125,-1.13671875,0.06571977467193009,1.1997780592420688,22.823117656660663,4.500099344335514,3593,0,102.70629680243096,24.725259076318583,24.073751898465257,0.04852438777441144,0.011681640723061016,0.275390625,,
2.8274550000000747,1500,,,,-0.5625,-0.2734375,-0.609375,0.06571977467193009,1.1997780592420688,22.822965022473127,4.504083153884084,3664,0,102.79653227940689,25.218993482843697,24.5329223891493,0.047574383175056904,0.011671386501453211,0.279296875,,
2.8444650000003167,1500,,,,-0.53125,-0.111328125,-0.900390625,0.06571977467193009,1.1997780592420688,22.82415947780142,4.46982317872838,3775,0,102.01995706886983,25.98115949663963,25.466742236620167,0.04617877271402174,0.0117602290151146,0.2890625,,
2.8627299999999813,1500,,,,-0.0625,-0.0703125,-1.107421875,0.06571977467193009,1.1997780592420688,22.826581104903713,4.407897418957894,3846,0,100.61722793593812,26.470187968142266,26.307808822755028,0.045325634282840796,0.011924181214830867,0.298828125,,
2.8711450000000185,1500,,,,-0.34375,-0.037109375,-0.85546875,0.06571977467193009,1.1997780592420688,22.827911890239893,4.3736619845481535,3865,0,99.841570420957,26.60096958801563,26.643180266355287,0.045102794289971944,0.012016818787840625,0.302734375,,
2.879260000000242,1500,,,,0.75,0.3125,-0.93359375,0.06571977467193009,1.1997780592420688,22.828831849209102,4.33885289406893,3884,0,99.05094313715388,26.72976372857835,26.98587502752617,0.04488547191905464,0.012112737357591438,0.306640625,,
2.8880749999997204,1500,,,,-0.46875,0.005859375,-1.015625,0.06571977467193009,1.1997780592420688,22.83054134991877,4.293716261913405,3902,0,98.02786666243264,26.85251495868591,27.392736242190036,0.04468028641220364,0.012239153009150015,0.30859375,,
2.896235000000335,1500,,,,0.40625,0.146484375,-1.0390625,0.06571977467193009,1.1997780592420688,22.831978199605835,4.252179753426887,3911,0,97.085675431048,26.91486020485365,27.722792353614583,0.04457678955455652,0.012357930806117457,0.314453125,,
2.9043700000001116,1500,,,,-0.875,-0.140625,-0.734375,0.10461074286184338,1.1997780592420688,22.83335668200167,4.213694990011173,3917,0,96.21280065608858,42.915055595152246,44.60430972023314,0.02795704310767799,0.012470046096367782,0.3203125,,
2.9124500000001863,1500,,,,0.34375,0.1796875,-1.11328125,0.10461074286184338,1.1997780592420688,22.83506612698196,4.17225081096892,3924,0,95.2736231668294,42.99162491998848,45.124372823218614,0.02790725080698788,0.012592971898855899,0.3203125,,
2.920570000000298,1500,,,,-0.46875,0.236328125,-0.97265625,0.10461074286184338,1.1997780592420688,22.836582344713182,4.128167780338977,3931,0,94.27324344850288,43.0662506639121,45.68236870670224,0.02785889276977245,0.012726602112692264,0.328125,,
2.928975000000093,1500,,,,-0.125,-0.130859375,-0.845703125,0.10461074286184338,1.1997780592420688,22.83808368704827,4.085372152302128,3937,0,93.30207110701251,43.12783237999849,46.22387463460823,0.027819113389953104,0.012859072097831433,0.33203125,,
2.936995000000112,1500,,,,0.1875,0.33984375,-1.4375,0.10461074286184338,1.1997780592420688,22.839152011273324,4.04957382472933,3939,0,92.48883216386668,43.151895101778614,46.656330383028774,0.027803600662549277,0.012972139783496968,0.3359375,,
2.946469999999739,1500,,,,-0.125,-0.1484375,-0.77734375,0.10461074286184338,1.1997780592420688,22.840650867799035,4.010028479838026,3943,0,91.59166047791126,43.19293161647349,47.15814888724517,0.027777185162964995,0.013099206335836807,0.337890625,,
2.954220000000205,1500,,,,0.25,0.189453125,-1.01953125,0.10461074286184338,1.1997780592420688,22.84197590552654,3.978204723163431,3947,0,90.87005643375097,43.235169008680415,47.57911539342018,0.027750049016835966,0.013203227843451047,0.34375,,
2.962310000000056,1500,,,,-1.0625,-0.15234375,-0.94140625,0.10461074286184338,3.336267960134409,22.842996742848864,3.947381404241869,3949,0,90.17002055987919,43.261872427875495,47.97811086129962,0.07711797416296542,0.03699974713789595,0.349609375,,
2.9695950000002047,1500,,,,0.28125,0.158203125,-1.06640625,0.10461074286184338,3.336267960134409,22.844114639141196,3.914601926017577,3951,0,89.42561516454846,43.28188584749975,48.39987487685548,0.07708231503334863,0.03730774402832429,0.3515625,,
2.9797099999999626,1500,,,,-0.625,0.02734375,-0.859375,0.10461074286184338,3.336267960134409,22.845154525526716,3.8884881362144403,3952,0,88.83311234249626,43.29842342056861,48.741310845477805,0.07705287390555515,0.03755658078568069,0.35546875,,
2.9876199999996462,1500,,,,0.25,0.0859375,-1.09375,0.10461074286184338,3.336267960134409,22.846486332728073,3.8508667058209305,3952,0,87.97877356369547,43.29610060703424,49.211984724575,0.07705700775261899,0.03792128288443343,0.35546875,,
2.996524999999907,1500,,,,-0.53125,0,-0.8984375,0.10461074286184338,3.336267960134409,22.847612268310804,3.8241984965019533,3955,0,87.37380448513376,43.32460223981496,49.5853448240158,0.07700631483393992,0.03818384674667634,0.359375,,
3.0049749999996274,1500,,,,0.125,-0.04296875,-1.064453125,0.10461074286184338,3.336267960134409,22.848225161116826,3.804950707392827,3956,0,86.93637048946205,43.33992071186096,49.85246159674263,0.07697909699270315,0.0383759747658066,0.36328125,,
3.0126699999999254,1500,,,,-0.6875,0.32421875,-0.98828125,0.10461074286184338,3.336267960134409,22.848598375696966,3.799614523764985,3957,0,86.81586623597124,43.35138070707982,49.9348593599791,0.07695874746590378,0.038429242312300535,0.3671875,,
3.02025,1500,,,,0.28125,-0.02734375,-0.880859375,0.10461074286184338,3.336267960134409,22.84915450972931,3.7879002910135577,3961,0,86.5503190168174,43.39475641797201,50.138181939618356,0.07688182249486457,0.03854714804096963,0.37109375,,
3.0274199999999256,1500,,,,0.03125,0.220703125,-1.158203125,0.10461074286184338,3.336267960134409,22.849887894042908,3.763193610384753,3967,0,85.9885521208702,43.45960113184669,50.541147699239666,0.07676710952806308,0.03879897821101545,0.376953125,,
3.036310000000056,1500,,,,-0.125,-0.3515625,-0.546875,0.10461074286184338,3.336267960134409,22.85066014294096,3.737917310297078,3972,0,85.41387810001451,43.51124083635536,50.94165234530894,0.07667600132761154,0.03906002202859634,0.380859375,,
3.044385000000242,1500,,,,0.09375,0.224609375,-1.125,0.10461074286184338,3.336267960134409,22.85092366331559,3.7197990277022455,3973,0,85.00084362489957,43.526263068402606,51.2068600877419,0.07664953811659368,0.039249821741264526,0.384765625,,
3.052424999999814,1500,,,,-0.125,-0.2578125,-0.7734375,0.10461074286184338,3.336267960134409,22.85155999640588,3.702170106476889,3976,0,84.60036230505696,43.5516039881811,51.47921687514785,0.07660493884541647,0.03943562260530632,0.38671875,,
3.0613950000000187,1500,,,,-0.0625,0.21875,-1.0078125,0.15372759499747124,3.336267960134409,22.852238245168433,3.683968656323003,3977,0,84.1869294220263,64.01563059012618,76.03986869412701,0.05211645858017991,0.039629286672397894,0.392578125,,
3.0710300000002606,1500,,,,-0.59375,-0.01953125,-0.931640625,0.15372759499747124,3.336267960134409,22.853406587521558,3.6527704038433026,3977,0,83.47824720989631,64.02643303990914,76.69834379598572,0.05210766556454639,0.03996571647875827,0.39453125,,
3.079279999999795,1500,,,,0.46875,0.142578125,-1.041015625,0.15372759499747124,3.336267960134409,22.85443914786965,3.6266119024937606,3978,0,82.88418103848343,64.03539650215514,77.25888788407437,0.05210037170648465,0.04025216776389897,0.3984375,,
3.0874250000002794,1500,,,,-0.09375,-0.01953125,-0.931640625,0.15372759499747124,3.336267960134409,22.855094178596527,3.6035517460348636,3977,0,82.35951453307277,64.02884142045816,77.74310203679791,0.05210570558705162,0.04050859186153505,0.404296875,,
3.0956150000002234,1500,,,,0.3125,-0.01953125,-1.078125,0.15372759499747124,3.336267960134409,22.856063978635746,3.5796519233850432,3975,0,81.81675338213505,63.9972811823001,78.2202648440388,0.05213140149861757,0.04077732031912786,0.404296875,,
3.103915000000037,1500,,,,-0.21875,0.01171875,-0.86328125,0.15372759499747124,3.336267960134409,22.8566421500661,3.5596114083453414,3973,0,81.36076415384228,63.964109963967616,78.6178825004889,0.05215843637961666,0.041005858227019285,0.41015625,,
3.112654999999795,1500,,,,-0.3125,0.046875,-0.921875,0.15372759499747124,5.197221606176661,22.857299386421037,3.535896472888366,3971,0,80.82104428019956,63.924010450401255,79.09327455456064,0.08130312177783641,0.06430530132917292,0.4140625,,
3.1216650000000374,1500,,,,0.375,0.19921875,-1.12890625,0.15372759499747124,5.197221606176661,22.857889559880114,3.5182696052433076,3969,0,80.42021807853453,63.89714710496753,79.45408335322921,0.08133730286328567,0.06462580841426348,0.416015625,,
3.1337549999998884,1500,,,,-0.34375,-0.041015625,-0.888671875,0.15372759499747124,5.197221606176661,22.858374711732967,3.502068124808963,3966,0,80.0515854628993,63.841914858432645,79.750968690084,0.0814076710841354,0.06492340627763536,0.419921875,,
3.151,1500,,,,0.4375,0.046875,-1.0546875,0.15372759499747124,5.197221606176661,22.859395857747387,3.4669370303187583,3963,0,79.25208598993966,63.7937306009802,80.49470219506681,0.08146915938627995,0.06557835722881038,0.4296875,,
3.159535000000149,1500,,,,-0.8125,-0.20703125,-0.93359375,0.15372759499747124,5.197221606176661,22.859865829066983,3.4553892461904723,3961,0,78.98973455511509,63.759725039113704,80.71900152370478,0.08151261008400523,0.06579616497571972,0.435546875,,
3.167375,1500,,,,0.375,0.099609375,-1.05859375,0.15372759499747124,5.197221606176661,22.860134798319734,3.444053614935772,3961,0,78.73152989007211,63.76239949674553,80.98712115180915,0.08150919110943951,0.06601194735366142,0.4375,,
3.175685000000056,1500,,,,-0.5625,0.0859375,-0.904296875,0.15372759499747124,5.197221606176661,22.86032345122514,3.4325201661803475,3961,0,78.46852125173581,63.76345140289561,81.25991210964116,0.08150784645168448,0.06623320438910008,0.443359375,,
3.183614999999758,1500,,,,0.875,0.0703125,-1.0625,0.15372759499747124,5.197221606176661,22.860829562246455,3.423863787605672,3959,0,78.27236649280087,63.73536855954497,81.4276754560718,0.08154376013878603,0.06639918836048833,0.4453125,,
3.191339999999851,1500,,,,-0.9375,0.0703125,-0.93359375,0.15372759499747124,5.197221606176661,22.861183243133045,3.4157743025775864,3961,0,78.08864224841118,63.767151511733225,81.6599567820385,0.08150311693349462,0.066555410063906,0.44921875,,
3.200554999999702,1500,,,,0.40625,0.04296875,-1.041015625,0.15372759499747124,5.197221606176661,22.861557225385084,3.4057867781331557,3960,0,77.86158932575103,63.75010450506067,81.87619217268752,0.08152491115938626,0.06674949292947187,0.44921875,,
3.2095100000002423,1500,,,,-0.4375,-0.0390625,-0.900390625,0.16871526312330415,5.197221606176661,22.86180188124345,3.4016931078608317,3960,0,77.76883389270564,69.9586955048373,89.9572386559844,0.07428985873267603,0.06682910551734704,0.451171875,,
3.2175800000000745,1500,,,,0.1875,0.025390625,-1.126953125,0.16871526312330415,5.197221606176661,22.862040273450187,3.3962350147820697,3960,0,77.64486168604937,69.95642579865363,90.09794631551628,0.07429226903522972,0.0669358086719402,0.455078125,,
3.225029999999795,1500,,,,0.15625,0.140625,-1.037109375,0.16871526312330415,5.197221606176661,22.862136282740206,3.389552744940255,3960,0,77.49241679236026,69.97117916938794,90.29422757180828,0.07427660456593278,0.06706748635937547,0.458984375,,
3.2326099999998696,1500,,,,-0.5,-0.1328125,-0.796875,0.16871526312330415,5.197221606176661,22.862446994949153,3.3824476642028274,3962,0,77.33103043602671,69.99121738800332,90.50857979437458,0.07425533945731137,0.06720745316430436,0.4609375,,
3.2422150000003165,1500,,,,0.125,0.17578125,-1.09375,0.16871526312330415,5.197221606176661,22.862751005418797,3.375027674920369,3961,0,77.16241736810194,69.9900796119967,90.70488198692671,0.07425654657043464,0.06735431293428,0.46484375,,
3.250254999999888,1500,,,,-0.4375,-0.0546875,-0.92578125,0.16871526312330415,5.197221606176661,22.86325727383995,3.3668220719344153,3960,0,76.97651922587941,69.96758499149227,90.89471139397695,0.07428042009465695,0.06751697346727209,0.46875,,
3.2586450000000187,1500,,,,0.875,0.1640625,-1.09375,0.16871526312330415,5.197221606176661,22.863494071960805,3.358660660220626,3962,0,76.79071809468225,69.99148122042968,91.1457568792765,0.07425505955229954,0.06768033605010093,0.47265625,,
3.2678199999998325,1500,,,,-0.5,-0.0703125,-0.923828125,0.16871526312330415,5.999097695371371,22.863740510550677,3.351481238624803,3961,0,76.62739736589647,69.97913824671649,91.3239137074766,0.08572694442479586,0.078289200750557,0.474609375,,
3.2760449999999257,1500,,,,0.28125,0.03515625,-1.0234375,0.16871526312330415,5.999097695371371,22.86404891332374,3.344986974833331,3961,0,76.47994580702009,69.97467072350163,91.49414266070082,0.08573241764975564,0.07844014051093529,0.4765625,,
3.2913650000002237,1500,,,,-1,0.0078125,-0.89453125,0.16871526312330415,5.999097695371371,22.863941655273592,3.3596204056180334,3961,0,76.81416493791731,69.9792066279993,91.10195584962467,0.0857268606553633,0.07809884674551833,0.48046875,,
3.3087299999999815,1500,,,,0,-0.02734375,-0.93359375,0.16871526312330415,5.999097695371371,22.86367539726417,3.36480511898997,3969,0,76.93181201563952,70.12995356190147,91.15858800731836,0.08554258759170799,0.07797941499352452,0.484375,,
3.3178849999997766,1500,,,,0.625,0.0703125,-0.90625,0.16871526312330415,5.999097695371371,22.86418711382672,3.351885513893097,3972,0,76.638137573777,70.17497172724889,91.56664547033618,0.08548771089909718,0.07827822915968226,0.48828125,,
3.3259300000001675,1500,,,,-0.3125,-0.0078125,-0.94140625,0.16871526312330415,5.999097695371371,22.864247608669853,3.3396915337929327,3971,0,76.35953416522001,70.16159680760849,91.88321743267713,0.08550400743902131,0.0785638330688484,0.490234375,,
3.332625,1500,,,,0.3125,0.28125,-1.171875,0.16871526312330415,5.999097695371371,22.864483955164655,3.3324007984503243,3970,0,76.19362458834533,70.14778337726212,92.06516129958727,0.08552084480143295,0.07873490371120893,0.4921875,,
3.3397249999996275,1500,,,,-0.375,0.00390625,-0.888671875,0.16871526312330415,5.999097695371371,22.864635518358334,3.3247858834496764,3968,0,76.02001740165986,70.11209741680022,92.22846799199675,0.08556437357319552,0.07891471089350716,0.494140625,,
3.3470149999996646,1500,,,,0.125,0.47265625,-1.33984375,0.16871526312330415,5.999097695371371,22.864666723201356,3.3178069098103933,3967,0,75.86054924474922,70.09618364306495,92.40136584947905,0.0855837990541572,0.07908059927191478,0.49609375,,
3.3633650000002233,1500,,,,0.40625,0.072265625,-1.037109375,0.16975391729129757,5.999097695371371,22.864916529208415,3.3096881924395323,3963,0,75.67574425783658,70.45194359405873,93.09712680726375,0.08515162803652275,0.07927371913161113,0.50390625,,
3.3805750000001864,1500,,,,0.3125,0.08203125,-1.0390625,0.16975391729129757,5.999097695371371,22.865296558184383,3.3001184851064207,3963,0,75.4581878391045,70.45319203189969,93.36719320920257,0.08515011914087738,0.07950227625612916,0.5078125,,
3.3980449999999256,1500,,,,-0.03125,-0.01953125,-0.99609375,0.16975391729129757,5.999097695371371,22.865525002321483,3.2944201411478513,3962,0,75.32864610556767,70.42350358815257,93.48834371649147,0.08518601588547785,0.07963899532940055,0.513671875,,
3.4171150000002237,1500,,,,0.125,0.001953125,-1.01953125,0.16975391729129757,6.32158499562751,22.866026826729076,3.2919283763950067,3960,0,75.27332256631891,70.39657456528731,93.52127973793772,0.08979961077175332,0.08398174519343068,0.517578125,,
3.4245550000001677,1500,,,,0.28125,0.05078125,-1.078125,0.16975391729129757,6.32158499562751,22.866166294192244,3.2909399897872684,3961,0,75.251181070683,70.40978449637988,93.56635137758752,0.0897827630185764,0.0840064555224679,0.515625,,
3.4327400000002237,1500,,,,-0.5625,0.03515625,-0.873046875,0.16975391729129757,6.32158499562751,22.866256374234624,3.2881346753583776,3960,0,75.1873304797554,70.39513892356864,93.62633102464372,0.08980144214916824,0.08407779549148418,0.517578125,,
3.4438300000000743,1500,,,,0.8125,0.16015625,-1.2421875,0.16975391729129757,6.32158499562751,22.866712340870663,3.2883639296397744,3959,0,75.19407205116778,70.37250192145825,93.5878321280053,0.08983032893562518,0.08407025744430786,0.521484375,,
3.4520499999998138,1500,,,,-0.103515625,0.08203125,-1.005859375,0.16975391729129757,6.32158499562751,22.866794721156737,3.2865402076494634,3960,0,75.15264027114812,70.39043729920627,93.66329252736833,0.08980744030267294,0.08411660552203423,0.5234375,,
3.4593700000001117,1500,,,,-0.25,-0.3203125,-0.59375,0.16975391729129757,6.32158499562751,22.86691317335918,3.28468719847126,3958,0,75.1106569690867,70.35697938917993,93.67110105046312,0.08985014778220703,0.08416362272306159,0.525390625,,
3.468314999999944,1500,,,,0.09375,0.25,-1.1484375,0.16975391729129757,6.32158499562751,22.866972371416555,3.2856357651009795,3957,0,75.1325422631022,70.35036305109182,93.63500945400737,0.08985859804357328,0.08413910677333833,0.529296875,,
3.476325000000186,1500,,,,-0.5,-0.0703125,-0.912109375,0.16975391729129757,6.32158499562751,22.866827323468026,3.2826828534181565,3958,0,75.06454196682229,70.35594306587504,93.72726619310033,0.08985147124967881,0.08421532763660347,0.53125,,
3.4853950000000187,1500,,,,0.8125,0.20703125,-1.1015625,0.16975391729129757,6.32158499562751,22.866752415719777,3.286324449970174,3958,0,75.14756755519444,70.35818354950378,93.62669456709565,0.08984861002245266,0.08412228367850266,0.53515625,,
3.493459999999963,1500,,,,-0.5625,-0.037109375,-0.943359375,0.16975391729129757,6.32158499562751,22.866492017113934,3.2923658007557237,3959,0,75.28485630039968,70.38132233057878,93.48669279482324,0.08981907111570354,0.08396887908510159,0.533203125,,
3.5015349999996834,1500,,,,0.8125,0.1875,-1.03125,0.16975391729129757,6.32158499562751,22.866500671656958,3.2959778835975664,3962,0,75.36748048905024,70.42329904314825,93.43990085137541,0.08976553330388974,0.08387682531786293,0.537109375,,
3.5105750000001863,1500,,,,-0.4375,0.0234375,-0.9375,0.17020848743152175,6.32158499562751,22.866361936206964,3.2896282477084133,3963,0,75.22183014767087,70.64364631390748,93.91375638591114,0.08948554223174338,0.0840392341321311,0.537109375,,
3.518814999999944,1500,,,,0.5,0.017578125,-1.02734375,0.17020848743152175,6.32158499562751,22.866376898400084,3.283520633658392,3963,0,75.08222036290627,70.63316835474822,94.07442669295904,0.08949881681475712,0.08419549881546437,0.5390625,,
3.5273950000000185,1500,,,,-0.15625,0.03515625,-0.83984375,0.17020848743152175,6.32158499562751,22.866539430060957,3.2829336681182766,3963,0,75.06933216830123,70.64550948568878,94.10701740000232,0.08948318218170857,0.08420995382581627,0.54296875,,
3.535429999999702,1500,,,,-0.28125,-0.013671875,-0.943359375,0.17020848743152175,6.32158499562751,22.866513271371733,3.278646495847798,3963,0,74.9712136094401,70.63917186555939,94.22172653300194,0.08949121045273241,0.0843201635838468,0.54296875,,
3.5435099999997766,1500,,,,0.25,0.265625,-1.12890625,0.17020848743152175,6.32158499562751,22.866454921801356,3.276212376040676,3963,0,74.91536261098183,70.63133403306264,94.28150858701018,0.08950114113189998,0.08438302606174437,0.54296875,,
3.550854999999981,1500,,,,-0.21875,-0.1015625,-0.873046875,0.17020848743152175,6.32158499562751,22.866624571527783,3.2741830369022153,3962,0,74.86951428330765,70.61272146324018,94.31438435147356,0.08952473243675255,0.08443470024002712,0.546875,,
3.5581700000003913,1500,,,,0.375,0.40234375,-1.23046875,0.17020848743152175,6.450529583819778,22.86645149366193,3.2735549861257853,3960,0,74.85458630208042,70.57595587478394,94.28407711715914,0.09139840196092174,0.08617413978868653,0.548828125,,
3.5659550000000744,1500,,,,-0.09375,-0.150390625,-0.83984375,0.17020848743152175,6.450529583819778,22.86672286056571,3.272246570982291,3959,0,74.8255554700885,70.57483050550255,94.31915347920781,0.09139985937786765,0.0862075736463911,0.548828125,,
3.573975000000093,1500,,,,0.125,0.2890625,-1.40625,0.17020848743152175,6.450529583819778,22.866777966305865,3.2705890694336044,3960,0,74.78783406976514,70.58421138751388,94.3792693898182,0.09138771202536743,0.08625105492161281,0.55078125,,
3.5825849999999626,1500,,,,-0.125,-0.146484375,-0.8515625,0.17020848743152175,6.450529583819778,22.866734369041687,3.268157560482159,3960,0,74.73209081172082,70.57764929761942,94.44088681451713,0.09139620897004505,0.0863153902661598,0.552734375,,
3.5907450000001115,1500,,,,0.28125,0.146484375,-1.056640625,0.17020848743152175,6.450529583819778,22.866862602282307,3.2679601021534266,3959,0,74.72799464568286,70.55965200784112,94.4219797980588,0.0914195209339035,0.0863201215876925,0.552734375,,
3.600910000000149,1500,,,,-1,-0.09765625,-0.9921875,0.17020848743152175,6.450529583819778,22.86698270158591,3.2665115131346902,3958,0,74.69526226538218,70.5474115439945,94.44696946554532,0.09143538285309198,0.08635794812396425,0.55859375,,
3.608929999999702,1500,,,,-0.103515625,0.140625,-0.998046875,0.17020848743152175,6.450529583819778,22.86722550169216,3.26464079192802,3958,0,74.65327717104091,70.5478360683976,94.50065521807277,0.09143483263704721,0.08640651593955787,0.55859375,,
3.6180800000000746,1500,,,,-0.125,0.09765625,-0.84375,0.17020848743152175,6.450529583819778,22.86713130370289,3.2654810214796566,3959,0,74.67218328792515,70.56385214688324,94.49817728617793,0.09141407941267976,0.0863846388279216,0.556640625,,
3.626845000000205,1500,,,,0,0.056640625,-1.08203125,0.17020848743152175,6.450529583819778,22.86710557482276,3.2649245284802206,3957,0,74.65937388658563,70.53682026708985,94.47818350880051,0.09144911210052634,0.08639945994750396,0.55859375,,
3.6343000000002794,1500,,,,0.25,0.01171875,-1.109375,0.17020848743152175,6.450529583819778,22.867052729471396,3.262811004780324,3958,0,74.61087129261121,70.5435083995975,94.54856534637935,0.09144044193663302,0.08645562599747553,0.55859375,,
3.6414899999997576,1500,,,,-0.5625,-0.0859375,-0.9375,0.17020848743152175,6.450529583819778,22.867093996802268,3.2635313423912717,3958,0,74.6274779679715,70.54606250055149,94.53094814597424,0.0914371313603697,0.08643638723243743,0.560546875,,
3.6496750000002796,1500,,,,0.1875,0.169921875,-1.021484375,0.17020848743152175,6.450529583819778,22.866942920661472,3.263667804867079,3958,0,74.63010540589602,70.54724064726567,94.52919872426203,0.09143560435017231,0.08643334414090437,0.560546875,,
3.657444999999832,1500,,,,-0.375,-0.24609375,-0.74609375,0.17051382489970657,6.450529583819778,22.86712653628522,3.2626223578877416,3957,0,74.60679829793223,70.65842589870356,94.70775788627013,0.09129172496804988,0.0864603458529403,0.560546875,,
3.6641049999999815,1500,,,,0.09375,0.203125,-1.119140625,0.17051382489970657,6.450529583819778,22.867248894291624,3.262364452565449,3958,0,74.60129992070357,70.66745432127517,94.72684041215123,0.09128006160365931,0.08646671828341168,0.5625,,
3.6717650000001303,1500,,,,-0.0625,-0.375,-0.5390625,0.17051382489970657,6.450529583819778,22.86719506257195,3.2622543978350995,3958,0,74.59860765902842,70.67637530308336,94.74221774503808,0.09126853996342911,0.08646983886486911,0.564453125,,
3.680885000000242,1500,,,,0.125,0.2109375,-1.158203125,0.17051382489970657,6.450529583819778,22.867385976132887,3.262716490896866,3959,0,74.6097973280325,70.69197385812754,94.74891554432229,0.0912484010810819,0.08645687047585876,0.56640625,,
3.6898050000001676,1500,,,,-0.40625,-0.060546875,-0.935546875,0.17051382489970657,6.450529583819778,22.867346593476256,3.2592209010423807,3958,0,74.5297339688381,70.68081303058642,94.83572430318755,0.09126280962597834,0.08654974652823573,0.56640625,,
3.6980050000003537,1500,,,,0.375,0.109375,-1.05859375,0.17051382489970657,6.450529583819778,22.867181184111594,3.2592502989801737,3958,0,74.52986711114951,70.67701635103104,94.83046071399463,0.09126771214820356,0.08654959191326388,0.56640625,,
3.7066850000000557,1500,,,,-1,-0.09375,-0.87890625,0.17051382489970657,6.450529583819778,22.867226443140236,3.25808477114165,3958,0,74.50336223264284,70.68103927659718,94.86959669805216,0.0912625174988843,0.08658038228768081,0.568359375,,
3.714810000000056,1500,,,,0.40625,0.142578125,-1.04296875,0.17051382489970657,6.509905739311921,22.867166350223094,3.2540188836597492,3959,0,74.41019111941473,70.69293679102236,95.0043747066489,0.09208707453413711,0.0874867493468027,0.5703125,,
3.722630000000354,1500,,,,-0.0625,-0.005859375,-0.880859375,0.17051382489970657,6.509905739311921,22.86733925129537,3.254947359215935,3958,0,74.43198550829875,70.68177906164969,94.96156602428545,0.09210161127429864,0.08746113239967383,0.5703125,,
3.732045000000391,1500,,,,0.1875,0.109375,-1.140625,0.17051382489970657,6.509905739311921,22.86715632040913,3.2561658889526552,3957,0,74.45925438786432,70.66044422129936,94.89813563432068,0.09212941994708863,0.08742910190050106,0.56640625,,
3.7396149999997577,1500,,,,-0.25,0.13671875,-0.88671875,0.17051382489970657,6.509905739311921,22.86709990796759,3.255390316073064,3957,0,74.44133559707294,70.65321251569002,94.9112639489882,0.0921388498487066,0.08745014697946786,0.5703125,,
3.7481450000000187,1500,,,,-0.375,-0.072265625,-0.91015625,0.17051382489970657,6.509905739311921,22.867144846025003,3.2547458494520405,3957,0,74.4267447764185,70.65031890795963,94.9259827501479,0.09214262355691219,0.08746729094316819,0.5703125,,
3.760529999999795,1500,,,,0.125,0.41015625,-1.3203125,0.17051382489970657,6.509905739311921,22.867118900651818,3.2545490754338275,3958,0,74.42216067595177,70.68249880551353,94.97506947329649,0.09210067342446755,0.08747267857026197,0.5703125,,
3.7784199999999255,1500,,,,-0.15625,-0.17578125,-0.849609375,0.17051382489970657,6.509905739311921,22.867019403397045,3.2529011874195977,3957,0,74.38415457005722,70.65169853924682,94.9821893488148,0.09214082426759614,0.08751737217340685,0.576171875,,
3.7871349999997763,1500,,,,0.375,0.10546875,-1.103515625,0.17051382489970657,6.509905739311921,22.867275038269256,3.2522538109249703,3957,0,74.37018238868063,70.64969895685262,94.99734529036965,0.09214343210843218,0.08753381436244465,0.578125,,
3.794554999999702,1500,,,,-1,-0.07421875,-0.93359375,0.17051382489970657,6.509905739311921,22.867109259256708,3.2506581783291377,3957,0,74.33315572834877,70.64894402614782,95.04364954494204,0.09214441672196183,0.08757741650445237,0.58203125,,
3.8031500000003726,1500,,,,0.34375,0.21484375,-0.978515625,0.17051382489970657,6.509905739311921,22.866966178182075,3.248382980706187,3957,0,74.28066375359064,70.65375421900201,95.1172898149913,0.09213814341886889,0.08763930490587786,0.580078125,,
3.8115900000003164,1500,,,,-1,0.015625,-1,0.17064577173426246,6.509905739311921,22.867093686160796,3.246428105798222,3958,0,74.23637564067347,70.72166099853675,95.2655088401015,0.0920496725811716,0.08769158897010051,0.5859375,,
3.821310000000056,1500,,,,0.375,0.095703125,-1.03125,0.17064577173426246,6.509905739311921,22.867138310780135,3.2432454455633124,3953,0,74.16374217950401,70.64723222359328,95.25845129632286,0.09214664940741839,0.08777747114695902,0.583984375,,
3.830010000000242,1500,,,,-0.4375,-0.10546875,-0.865234375,0.17064577173426246,6.509905739311921,22.86725118430287,3.2454315445078814,3954,0,74.21409832972174,70.64974796864911,95.19720586614585,0.09214336818583836,0.08771791190387329,0.583984375,,
3.838,1500,,,,0.1875,-0.015625,-1.146484375,0.17064577173426246,6.509905739311921,22.867145318023706,3.2462268295855914,3954,0,74.23194064740109,70.65612305482041,95.18291242099453,0.09213505437116949,0.08769682811114593,0.587890625,,
3.8455349999996833,1500,,,,-0.375,0.1015625,-0.71875,0.17064577173426246,6.509905739311921,22.867182532091814,3.24738281070374,3954,0,74.25849548393978,70.66057999922248,95.1548769453652,0.0921292429156901,0.0876654677271215,0.5859375,,
3.8536349999997763,1500,,,,0.1875,0.005859375,-1.015625,0.17064577173426246,6.509905739311921,22.86741945086101,3.2467141649885054,3955,0,74.24397464784411,70.67056257912667,95.18693323509828,0.09211622918698391,0.08768261357490449,0.587890625,,
3.8620650000004098,1500,,,,0.09375,0.205078125,-1.119140625,0.17064577173426246,6.529006309063209,22.86712244910894,3.2454463816466275,3956,0,74.21401981113098,70.69023875097822,95.25186606368916,0.09236079018014151,0.08797537615775337,0.58984375,,
3.871274999999907,1500,,,,-0.375,-0.0625,-0.873046875,0.17064577173426246,6.529006309063209,22.86717339528146,3.249484316892563,3956,0,74.30652131962997,70.68728188892186,95.12931117426433,0.0923646536490525,0.08786585878483866,0.58984375,,
3.8797450000001117,1500,,,,0.875,0.26953125,-1.1796875,0.17064577173426246,6.529006309063209,22.86702755260315,3.251654824260053,3956,0,74.35568045790959,70.6965582652406,95.07889354231611,0.0923525341158415,0.08780776759563211,0.59375,,
3.8889749999996273,1500,,,,-0.40625,-0.068359375,-0.884765625,0.17064577173426246,6.529006309063209,22.86676043186498,3.2552108372612194,3957,0,74.43612637086292,70.71860907191844,95.00576201343054,0.09232373762362082,0.08771287044860122,0.59375,,
3.897479999999981,1500,,,,0.34375,0.083984375,-1.0390625,0.17064577173426246,6.529006309063209,22.866624656072805,3.256077857928981,3957,0,74.45551022821157,70.70923150174063,94.96843320932417,0.09233598174380507,0.08769003515053927,0.591796875,,
3.9060250000003727,1500,,,,-0.125,0.125,-0.900390625,0.17064577173426246,6.529006309063209,22.86654914139492,3.2568041700529227,3958,0,74.47187259841505,70.72246174695871,94.96533292284082,0.09231870819802135,0.08767076859031692,0.59375,,
3.9185099999997766,1500,,,,-0.28125,-0.080078125,-0.9609375,0.17064577173426246,6.529006309063209,22.866761479103264,3.2531580870359824,3958,0,74.38919003006767,70.73750973170087,95.09111431796634,0.0922990692466694,0.08776821345176931,0.59375,,
3.9273799999998884,1500,,,,0.375,0.076171875,-1.0703125,0.17064577173426246,6.529006309063209,22.865986199310203,3.2743613067570263,3959,0,74.8715004518615,70.75074263327518,94.49622647640707,0.09228180604273283,0.08720282443465953,0.591796875,,
3.9354799999999814,1500,,,,-0.1875,0.099609375,-0.841796875,0.17064577173426246,6.529006309063209,22.865193010490323,3.2877892509102793,3962,0,75.17593579987893,70.80324562615121,94.18339109822594,0.09221337597342738,0.0868496845379306,0.59375,,
3.9441299999998884,1500,,,,-0.375,-0.078125,-0.875,0.17064577173426246,6.529006309063209,22.865018436037257,3.2876836053544913,3967,0,75.17294624828789,70.89010404141398,94.30268145573521,0.09210039112439397,0.08685313846152347,0.591796875,,
3.952935000000056,1500,,,,0.3125,0.421875,-1.3125,0.17064577173426246,6.529006309063209,22.865254402080325,3.2821294017340885,3971,0,75.04672375119763,70.95497738925471,94.54773485447774,0.09201618475960434,0.08699921838971705,0.59375,,
3.961464999999851,1500,,,,-0.21875,-0.00390625,-0.80078125,0.1706982748173622,6.529006309063209,22.865332055502687,3.277803906155919,3969,0,74.94807472707886,70.94964552715174,94.66506749574653,0.09202309977101465,0.08711372950990919,0.595703125,,
3.9692299999999814,1500,,,,0.4375,0.07421875,-1.0234375,0.1706982748173622,6.529006309063209,22.86544723880113,3.2736573226728725,3968,0,74.85363878949154,70.9262627040438,94.75325962911091,0.09205343775558844,0.08722363287407472,0.595703125,,
3.977054999999702,1500,,,,-0.875,-0.2109375,-0.91015625,0.1706982748173622,6.529006309063209,22.865769664223688,3.2712668988080593,3967,0,74.80003541834442,70.9153007011611,94.80650684794915,0.09206766726656931,0.08728613927182707,0.599609375,,
3.9851899999999443,1500,,,,0.4375,0.11328125,-1.130859375,0.1706982748173622,6.529006309063209,22.865585215397445,3.2726177175754203,3967,0,74.83031929864026,70.91100020028125,94.76239158793723,0.09207325084433533,0.08725081451285278,0.599609375,,
3.9929000000003727,1500,,,,-0.8125,-0.16015625,-0.8515625,0.1706982748173622,6.529006309063209,22.86550800819918,3.277594004867669,3966,0,74.94385196592731,70.89347469836333,94.5954509124972,0.0920960121766177,0.08711863799089985,0.6015625,,
4.003975000000093,1500,,,,0.3125,0.181640625,-1.0703125,0.1706982748173622,6.529006309063209,22.86568360097989,3.2823012605508337,3968,0,75.05206210685282,70.92274427056327,94.49806211798608,0.0920580044697043,0.08699303024835958,0.599609375,,
4.011245000000112,1500,,,,-0.65625,0.09765625,-0.91796875,0.1706982748173622,6.537140107731562,22.865832515075446,3.276178330424837,3968,0,74.91254499301382,70.93454693751542,94.6898105572713,0.09215735336252977,0.08726362331357453,0.603515625,,
4.019159999999683,1500,,,,0,0.0234375,-1.03125,0.1706982748173622,6.537140107731562,22.86592728236295,3.2720507914138843,3968,0,74.81847546066803,70.92703718114359,94.79882708707402,0.09216711098528028,0.08737334017408745,0.60546875,,
4.027055000000168,1500,,,,-0.125,0.1171875,-0.80078125,0.1706982748173622,6.537140107731562,22.86602971066385,3.267916005783949,3967,0,74.72426448020971,70.91559432323186,94.90303426407554,0.09218198296323103,0.08748349887689943,0.6015625,,
4.035780000000261,1500,,,,0.09375,-0.013671875,-1.091796875,0.1706982748173622,6.537140107731562,22.8662115855436,3.26220695996971,3964,0,74.59431458250035,70.86029747463024,94.994233637283,0.09225391849465522,0.08763590287436142,0.603515625,,
4.04419999999972,1500,,,,0.3125,-0.048828125,-1.037109375,0.1706982748173622,6.537140107731562,22.866103270796636,3.271662590556208,3963,0,74.8101746628603,70.84166619763359,94.69522898040111,0.09227818116945886,0.08738303495736845,0.603515625,,
4.051890000000131,1500,,,,-0.46875,0.01953125,-0.849609375,0.1706982748173622,6.537140107731562,22.86548276985895,3.289647429073244,3965,0,75.21937660838505,70.87650123676184,94.22638744504154,0.09223282743450256,0.08690766132995095,0.60546875,,
4.060135000000242,1500,,,,0.75,0.16015625,-1.26171875,0.1706982748173622,6.537140107731562,22.865078611060888,3.307008049256827,3967,0,75.61499901366847,70.91180287237988,93.78007511388262,0.0921869116696478,0.08645295500896433,0.60546875,,
4.0698050000001675,1500,,,,-0.53125,0.046875,-0.880859375,0.1706982748173622,6.537140107731562,22.86560352649796,3.2959865611039096,3973,0,75.36472193486745,71.0199581223893,94.23501646269852,0.09204652157730159,0.0867400547617115,0.60546875,,
4.077645000000019,1500,,,,0.3125,-0.0625,-0.87109375,0.1706982748173622,6.537140107731562,22.865834106221225,3.285968976313011,3974,0,75.1364214905629,71.0333185589598,94.53912915972657,0.09202920883255,0.08700361260287894,0.607421875,,
4.087665000000038,1500,,,,-0.75,0.3359375,-1.22265625,0.1706982748173622,6.537140107731562,22.86580991666395,3.2813462408153184,3974,0,75.03063941324288,71.0292376388023,94.6669763103014,0.09203449628692638,0.08712627479724983,0.609375,,
4.099230000000447,1500,,,,0.375,-0.107421875,-0.943359375,0.1706982748173622,6.537140107731562,22.865674714261957,3.2742248219341654,3972,0,74.8673597197089,71.00485561372169,94.84087041342477,0.09206609958190323,0.08731629019916744,0.611328125,,
4.108485000000336,1500,,,,0,0.03125,-1.029296875,0.1703622485571917,6.537140107731562,22.86487023211773,3.288062206490467,3970,0,75.18111566653522,70.82721724283394,94.2087871600457,0.09229700618222395,0.08695189010930557,0.61328125,,
4.116339999999851,1500,,,,-0.125,0.1953125,-1.001953125,0.1703622485571917,6.537140107731562,22.864497810261287,3.3022203670952353,3970,0,75.50361035244923,70.8341348176463,93.8155599275241,0.09228799256969283,0.08658049697512916,0.6171875,,
4.128279999999795,1500,,,,-0.40625,-0.03515625,-0.951171875,0.1703622485571917,6.537140107731562,22.864534460750537,3.2945187382749554,3975,0,75.32763722287609,70.91013781296225,94.13561931214763,0.09218907633453484,0.08678275794566288,0.615234375,,
4.136310000000056,1500,,,,0.75,0.30859375,-0.890625,0.1703622485571917,6.537140107731562,22.8647048263501,3.284496976016706,3976,0,75.09905385966148,70.93048601195325,94.4492405250563,0.09216262957270473,0.08704690367934056,0.619140625,,
4.144095000000205,1500,,,,-0.28125,-0.1015625,-0.958984375,0.1703622485571917,6.537140107731562,22.864867313583513,3.2807161485433585,3976,0,75.01313942997463,70.92786011910366,94.55391503153308,0.09216604161967172,0.08714660068099182,0.615234375,,
4.152094999999739,1500,,,,0.3125,0.09375,-1.14453125,0.1703622485571917,6.537140107731562,22.864954798058086,3.2771694789383568,3974,0,74.9323320015011,70.8951419110319,94.61221880777937,0.0922085763779863,0.08724058004227875,0.615234375,,
4.160095000000205,1500,,,,-0.75,-0.171875,-0.59765625,0.1703622485571917,6.557417340121233,22.86490775978606,3.277597603712878,3973,0,74.94196688259078,70.87141161016568,94.56839012671992,0.09252556413283924,0.08749993645609185,0.615234375,,
4.168555000000167,1500,,,,0.34375,0.1171875,-1.15625,0.1703622485571917,6.557417340121233,22.86535559642524,3.2731946329866743,3971,0,74.84275921955091,70.84084401784209,94.65290264089646,0.09256548861091592,0.08761592181396034,0.61328125,,
4.177419999999925,1500,,,,-0.28125,0.142578125,-0.869140625,0.1703622485571917,6.557417340121233,22.865502073655566,3.2664517388965666,3970,0,74.68905900923528,70.82810032333965,94.83062347134643,0.09258214338921635,0.0877962237991298,0.6171875,,
4.18514000000013,1500,,,,0.4375,-0.11328125,-0.984375,0.1703622485571917,6.557417340121233,22.865763151875253,3.262168349502767,3968,0,74.59196884127408,70.7915037021203,94.90499419952184,0.09263000497508614,0.08791050084862229,0.6171875,,
4.193004999999888,1500,,,,-0.28125,0.109375,-1.01953125,0.1703622485571917,6.557417340121233,22.865680106666122,3.2577561458291497,3966,0,74.49080989605488,70.7468920122804,94.97398687301322,0.09268841575376882,0.08802988381078831,0.619140625,,
4.203165000000038,1500,,,,-0.15625,-0.177734375,-0.80078125,0.1703622485571917,6.557417340121233,22.865660945410117,3.254032320976809,3964,0,74.40559975686166,70.71034295788397,95.0336307871278,0.09273632492529302,0.08813069663505413,0.62109375,,
4.211789999999572,1500,,,,0.40625,0.126953125,-1.09375,0.1703622485571917,6.557417340121233,22.86580208280119,3.2500614387097277,3964,0,74.31526161448072,70.714291844834,95.15446801717906,0.09273114626545302,0.08823782891512401,0.62109375,,
4.221645000000018,1500,,,,-0.8125,-0.16015625,-0.82421875,0.1703622485571917,6.557417340121233,22.865554931219773,3.2479807836206147,3963,0,74.2668830234234,70.7007379789087,95.19820288756436,0.09274892352718338,0.08829530839543995,0.623046875,,
4.230985000000335,1500,,,,-0.166015625,0.099609375,-1.01953125,0.1703622485571917,6.557417340121233,22.865740099720796,3.2482194440734,3963,0,74.27294159504193,70.69293492071,95.17993148318915,0.0927591611166817,0.08828810599523866,0.623046875,,
4.248520000000019,1500,,,,-0.03125,0.0703125,-1.009765625,0.1703622485571917,6.557417340121233,22.86570997940342,3.247479258516847,3962,0,74.25591888937429,70.67894504425588,95.18291080547083,0.0927775214530336,0.08830834549216751,0.626953125,,
4.256069999999832,1500,,,,0.3125,0.142578125,-1.076171875,0.17023686273552546,6.557417340121233,22.865434750599075,3.244305834468548,3962,0,74.18246336902847,70.6283855664801,95.20900541564895,0.09284393643613668,0.08839578846958303,0.625,,
4.264294999999925,1500,,,,-0.4375,-0.095703125,-0.853515625,0.17023686273552546,6.557417340121233,22.865562338467186,3.2421658519551695,3961,0,74.1339453995305,70.61836406663532,95.25779814638405,0.09285711198200045,0.08845364029637577,0.625,,
4.2725400000000375,1500,,,,0.75,0.08203125,-1.41015625,0.17023686273552546,6.557417340121233,22.865747688119175,3.239194527538516,3960,0,74.0666047794321,70.59865762018055,95.31779920305652,0.09288303150748298,0.08853406146601434,0.625,,
4.281229999999981,1500,,,,-0.46875,-0.05859375,-0.849609375,0.17023686273552546,6.557417340121233,22.865651021659822,3.2372138804976816,3960,0,74.02100287393317,70.59881228964157,95.37673031785316,0.09288282801725481,0.08858860438961245,0.625,,
4.28994999999972,1500,,,,0.1875,0.009765625,-0.955078125,0.17023686273552546,6.557417340121233,22.865486461011415,3.237741890564043,3960,0,74.03254336294162,70.60166310861162,95.36571337619694,0.09287907750888935,0.08857479484358322,0.625,,
4.298274999999907,1500,,,,-0.5,0.28125,-1.0703125,0.17023686273552546,6.557417340121233,22.8654789895594,3.2369122579635587,3960,0,74.01354922551303,70.59211002895087,95.3772799273045,0.09289164663631586,0.0885975258414015,0.625,,
