Time (s),ESC signal (µs),Servo 1 (µs),Servo 2 (µs),Servo 3 (µs),AccX (g),AccY (g),AccZ (g),Torque (N·m),Thrust (N),Voltage (V),Current (A),Motor Electrical Speed (RPM),Motor Optical Speed (RPM),Electrical Power (W),Mechanical Power (W),Motor Efficiency (%),Propeller Mech. Efficiency (N/W),Overall Efficiency (N/W),Vibration (g),App message,90% settling time (s),Max acceleration (RPM/s),
0,1000,,,,0.03125,0.025390625,-0.9921875,0.0306447820328753,0.1334113436759222,22.98637907003173,0.08496504140672632,0,0,1.9530386494759533,0,0,0,0,0.087890625,,
0,1200,,,,0,-0.015625,-0.962890625,0.0306447820328753,0.13928185099655904,22.986670967455062,0.08136048334511475,0,0,1.8702066604072605,0,0,0,0,0.08984375,,
0.007684999999124557,1200,,,,-0.09375,0.0703125,-0.97265625,0.0306447820328753,0.13928185099655904,22.986638044246924,0.07983035721293161,0,0,1.8350315261965955,0,0,0,0,0.08984375,,
0.015054999999701977,1200,,,,0,0.02734375,-0.953125,0.0306447820328753,0.13928185099655904,22.98698660668356,0.07910840866943332,0,0,1.8184639305603132,0,0,0,0,0.08984375,,
0.0246949999993667,1200,,,,-0.03125,0.126953125,-0.984375,0.0306447820328753,0.13928185099655904,22.987035531083766,0.07834154510741921,0,0,1.800839880944247,0,0,0,0,0.08984375,,
0.03265499999979511,1200,,,,-0.09375,0.06640625,-0.982421875,0.0306447820328753,0.13928185099655904,22.98501075370523,0.15725844885070456,0,0,3.614587137944448,0,0,0,0,0.09375,,
0.040684999999590216,1200,,,,-0.25,-0.125,-0.82421875,0.0306447820328753,0.13928185099655904,22.983450090263077,0.2274554447334616,0,0,5.227710861790106,0,0,0,0,0.09765625,,
0.04908999999985099,1200,,,,-0.09375,0.177734375,-1.013671875,0.0306447820328753,0.13928185099655904,22.98198359587495,0.27116592622307706,1,0,6.231930868218994,0.0023592476370507738,0.037857410278445795,0,0.022349710537845555,0.10546875,,
0.05688999999966472,1200,,,,0.25,-0.146484375,-0.9296875,0.041366484462288224,0.13928185099655904,22.98091863645478,0.3009891227614176,2,0,6.917006540638037,0.007016272108828159,0.10143509432305618,0,0.020136145625750907,0.115234375,,
0.06632999999960884,1200,,,,0.09375,-0.03515625,-0.982421875,0.041366484462288224,0.13928185099655904,22.979750905421554,0.32731607078153824,2,0,7.521641773901079,0.008656230516990262,0.11508432304003136,0,0.018517479984203087,0.1171875,,
0.07504999999981374,1200,,,,-0.15625,0.048828125,-0.90234375,0.041366484462288224,0.13928185099655904,22.97836021096884,0.3834470515664935,2,0,8.810984472728832,0.00923463683736397,0.10480822961323334,0,0.015807751270888615,0.12109375,,
0.0830699999993667,1200,,,,-0.125,-0.0859375,-0.99609375,0.041366484462288224,0.13928185099655904,22.97760184265251,0.39953795045456914,2,0,9.180423946574516,0.009426585983334462,0.10268137983814785,0,0.015171614274799277,0.12109375,,
0.09200999999977648,1200,,,,0.125,0.005859375,-0.890625,0.041366484462288224,0.13928185099655904,22.97736922811196,0.4035625665375457,2,0,9.272806097977687,0.009508032872442555,0.10253673776825947,0,0.015020464088743872,0.123046875,,
0.10010999999940395,1200,,,,-0.15625,0.07421875,-0.9765625,0.041366484462288224,0.13928185099655904,22.977512659187546,0.40192699067542004,2,0,9.23528251631362,0.00953742323713798,0.10327159153269698,0,0.015081493257030882,0.126953125,,
0.10756499999947845,1200,,,,0.0625,0.0078125,-0.953125,0.041366484462288224,0.13928185099655904,22.977447338135907,0.39994876508129545,2,0,9.189801687607956,0.009546801881009499,0.10388474317006145,0,0.015156132387968122,0.126953125,,
0.11606499999947846,1200,,,,-0.03125,-0.041015625,-0.947265625,0.041366484462288224,0.13928185099655904,22.977474919525925,0.39679092370988467,410,0,9.1172534978394,1.774245096801964,19.460302351167744,0.07850203517406437,0.01527673339669298,0.12890625,,
0.1251099999998696,1200,,,,-0.125,0.123046875,-0.986328125,0.041366484462288224,0.13928185099655904,22.977686624472206,0.3890836602564835,576,0,8.940242416076089,2.4958833968707794,27.917401796429512,0.05580463060541371,0.015579202947126622,0.12890625,,
0.13308499999949708,1200,,,,0.0625,-0.109375,-0.95703125,0.041366484462288224,0.15493948763718512,22.97793419240943,0.38086869224564657,633,0,8.751575746369506,2.742328281560729,31.33525162823796,0.05649924871467434,0.01770418175280721,0.12890625,,
0.1409449999993667,1200,,,,-0.0625,0.068359375,-1.015625,0.041366484462288224,0.15493948763718512,22.978034527099783,0.37335021843488014,655,0,8.578854209896923,2.8372190589928192,33.072237732163416,0.05460963162012132,0.018060627194065204,0.130859375,,
0.14906999999983236,1200,,,,-0.125,0.078125,-0.974609375,0.041366484462288224,0.15493948763718512,22.978329285184145,0.3654257865995556,664,0,8.396874053782021,2.8753265698103103,34.242821214106925,0.053885874830352475,0.018452043777815043,0.130859375,,
0.15657999999960884,1200,,,,0,-0.0078125,-0.94140625,0.041366484462288224,0.15493948763718512,22.978540639296487,0.3564173108230826,667,0,8.189949661296971,2.890155134462836,35.289046379866846,0.05360940172022364,0.018918246637018854,0.130859375,,
0.16491999999945983,1200,,,,-0.0625,0.080078125,-0.978515625,0.041366484462288224,0.15493948763718512,22.978709890236644,0.34780535364600945,718,0,7.9921183197028105,3.109556282547411,38.90778587300795,0.0498268799657344,0.01938653576426864,0.130859375,,
0.17575999999931083,1200,,,,-0.09375,0.05859375,-0.98828125,0.041366484462288224,0.15493948763718512,22.978903767177336,0.3400299267235825,787,0,7.8135149641415635,3.409975782911186,43.642020250303894,0.045437122578304415,0.019829678236779013,0.130859375,,
0.18409499999927356,1200,,,,-0.0625,0.068359375,-0.994140625,0.041366484462288224,0.15493948763718512,22.97924807227125,0.32924686184427376,819,0,7.565845315336387,3.547692796892878,46.890897831356774,0.04367331009406548,0.020478807215779868,0.12890625,,
0.19165999999968336,1200,,,,0,0.05859375,-0.98046875,0.041366484462288224,0.15493948763718512,22.979350063290415,0.3206901290648677,827,0,7.369250737623379,3.5829535580989638,48.62032363488943,0.04324350989338321,0.02102513446124835,0.12890625,,
0.2005249999994412,1200,,,,-0.0625,0.056640625,-0.96484375,0.041366484462288224,0.15493948763718512,22.97947950099106,0.31384282660814566,830,0,7.211944800574975,3.5968845323139775,49.87398866429503,0.043076024889102615,0.021483731770219942,0.12890625,,
0.20964499999955297,1200,,,,-0.0625,0.06640625,-0.99609375,0.041410175922564074,0.15493948763718512,22.979876275473462,0.3049341380098704,832,0,7.007348763634972,3.6068337425755144,51.472159646075845,0.04295720254811308,0.022110999875052925,0.126953125,,
0.2173699999996461,1200,,,,-0.03125,0.080078125,-0.98046875,0.041410175922564074,0.15493948763718512,22.980329660533425,0.2985435991985731,850,0,6.860630327625372,3.68724129641277,53.744934799438646,0.042020436196546745,0.022583856036273768,0.126953125,,
0.2257099999994971,1200,,,,-0.0625,0.01171875,-0.9453125,0.041410175922564074,0.15493948763718512,22.979843949801758,0.29216803335182384,858,0,6.713975813545387,3.7203470673088765,55.411981970550286,0.0416465143799772,0.023077159039595594,0.126953125,,
0.23410499999998138,1200,,,,-0.1875,0.146484375,-1.005859375,0.041410175922564074,0.15493948763718512,22.977506171017048,0.3686227634206225,861,0,8.470031821274711,3.7329563560208965,44.07251867277046,0.04150583957063488,0.01829266889505821,0.12890625,,
0.24299499999918045,1200,,,,0.0625,-0.009765625,-0.912109375,0.041410175922564074,0.15493948763718512,22.97565457050571,0.4300562101563426,862,0,9.880822930452938,3.738266701957374,37.833556256088194,0.0414468789923571,0.015680828279966218,0.1328125,,
0.25084499999973925,1200,,,,0,0.265625,-1.02734375,0.041410175922564074,0.15493948763718512,22.97291940413786,0.5228586124291691,862,0,12.011588763094654,3.7400295812269664,31.136843385099283,0.04142734282501455,0.012899166854032945,0.134765625,,
0.2581149999992922,1200,,,,0.09375,-0.12109375,-1.00390625,0.041410175922564074,0.15493948763718512,22.970408052548226,0.6003217027498027,959,0,13.78963447496353,4.1597730225305,30.165941164597122,0.03724710141586796,0.01123593869862855,0.134765625,,
0.26595499999960887,1200,,,,0.1875,0.01171875,-1.04296875,0.041410175922564074,0.15493948763718512,22.968721650531556,0.657598707882236,998,0,15.10420167909629,4.326944951454694,28.647293272328593,0.03580805611707525,0.010258038850978545,0.134765625,,
0.2735899999993853,1200,,,,-0.03125,0.09375,-0.96875,0.041410175922564074,0.15493948763718512,22.967282476728894,0.6961702333864678,1012,0,15.989138402077286,4.389096067634671,27.45048518101792,0.03530100167542781,0.009690296233664198,0.134765625,,
0.2807399999992922,1200,,,,-0.09375,0.015625,-1.05078125,0.041410175922564074,0.28285467771957756,22.966191785162675,0.7219478416808895,1018,0,16.58039259092757,4.4155138769645195,26.630936829448736,0.06405928859044335,0.01705958867791523,0.13671875,,
0.2896749999998137,1200,,,,0.125,0.07421875,-0.921875,0.041410175922564074,0.28285467771957756,22.96520438671274,0.7445007594968931,1245,0,17.097612107909015,5.397327287706179,31.56772567795875,0.05240643426679959,0.01654351940694307,0.13671875,,
0.2979699999992736,1200,,,,-0.09375,-0.009765625,-0.9765625,0.041410175922564074,0.28285467771957756,22.964677592997408,0.7621927755993338,1323,0,17.503511355350522,5.738439215342285,32.78450305680033,0.0492912213765962,0.0161598819789444,0.13671875,,
0.306019999999553,1200,,,,0.0625,0,-1.0390625,0.041410175922564074,0.28285467771957756,22.964449216537247,0.7718264823046421,1354,0,17.724570056863538,5.869407028810781,33.114524132211336,0.04819135499227554,0.015958337878556716,0.134765625,,
0.3139049999997951,1200,,,,-0.03125,0.064453125,-0.98046875,0.041410175922564074,0.28285467771957756,22.964822784449545,0.7709103844068899,1404,0,17.7038203605961,6.089359650707412,34.39573790672139,0.046450644065130525,0.01597704178862633,0.134765625,,
0.3219949999996461,1200,,,,-0.1875,-0.0703125,-0.8828125,0.041410175922564074,0.28285467771957756,22.965241716212127,0.768130359674145,1494,0,17.6402993794777,6.477018938633811,36.71717128661104,0.04367050342132236,0.016034573542932265,0.13671875,,
0.33146499999938533,1200,,,,0,0.078125,-1.0625,0.041410175922564074,0.28285467771957756,22.96561470235193,0.7589310852692783,1539,0,17.429318889932045,6.673603886129763,38.28952771060225,0.04238409749003159,0.01622867075333432,0.134765625,,
0.3397649999996647,1200,,,,0.03125,0.0703125,-1.0078125,0.041410175922564074,0.28285467771957756,22.965983756810306,0.7533396687345337,1570,0,17.301186595518157,6.809573446521707,39.35899661521318,0.041537796741741316,0.016348860013616094,0.13671875,,
0.3477749999994412,1200,,,,-0.0625,0.140625,-0.994140625,0.041410175922564074,0.28285467771957756,22.96637582917066,0.7447731667292135,1609,0,17.104740454584697,6.978103879276412,40.796315488119696,0.04053460404331326,0.0165366249473702,0.13671875,,
0.35619999999925495,1200,,,,-0.03125,-0.04296875,-0.82421875,0.06405435237970664,0.28285467771957756,22.966663331779067,0.7329066490079053,1623,0,16.83242026138693,10.887728061325141,64.68308117461436,0.025979219551259754,0.01680415967087263,0.13671875,,
0.36384499999973924,1200,,,,0.0625,0.01953125,-0.953125,0.06405435237970664,0.28285467771957756,22.96709039804539,0.7229180115672803,1628,0,16.60332332204095,10.921470786114037,65.77882375883001,0.025898954752432198,0.017036027801981504,0.13671875,,
0.3712999999993481,1200,,,,-0.09375,0.0859375,-1.060546875,0.06405435237970664,0.28285467771957756,22.967476729717866,0.7152035263646813,1649,0,16.426420348792977,11.05915170669233,67.32539087559002,0.025576525688530978,0.017219495892199174,0.13671875,,
0.3800499999993481,1200,,,,0,0.0703125,-1.0234375,0.06405435237970664,0.28285467771957756,22.968017713543915,0.7016937007704742,1659,0,16.116513348778437,11.126979499355711,69.04086050472628,0.025420616415798715,0.017550612319073143,0.13671875,,
0.3893099999995902,1200,,,,0,0.08984375,-0.95703125,0.06405435237970664,0.28285467771957756,22.968458557557707,0.6890956886740536,1662,0,15.827465767501687,11.151388043077764,70.45592899638268,0.025364974891637807,0.01787112869960263,0.13671875,,
0.39814499999955294,1200,,,,-0.0625,-0.0546875,-0.919921875,0.06405435237970664,0.28285467771957756,22.968872827784637,0.6767670690597186,1673,0,15.54457674326522,11.221806070553132,72.19113299701162,0.02520580697449492,0.018196357635927658,0.138671875,,
0.4058449999997392,1200,,,,-0.125,0.09375,-1.03125,0.06405435237970664,0.28285467771957756,22.969224365399246,0.6654524416300728,1677,0,15.284926436303888,11.245712795701209,73.57387582180985,0.02515222315011475,0.018505465426889935,0.138671875,,
0.41401499999966473,1200,,,,0.0625,0.109375,-1.0078125,0.06405435237970664,0.28285467771957756,22.969552791441327,0.6551013135961815,1678,0,15.047384206390051,11.255011181903505,74.79712771023638,0.025131443509746894,0.018797597897411297,0.138671875,,
0.422089999999851,1200,,,,-0.0625,0.134765625,-0.970703125,0.06405435237970664,0.28285467771957756,22.969969367905453,0.6432426906655847,1682,0,14.775264900717563,11.284577236218373,76.37478794488712,0.02506559809894715,0.019143797395188542,0.140625,,
0.42967499999981373,1200,,,,-0.125,-0.1171875,-0.87890625,0.06405435237970664,0.5430885804651684,22.9703905283785,0.6322857635009786,1684,0,14.523850913151447,11.296066774395266,77.77597582034252,0.048077670866481105,0.0373928776680982,0.140625,,
0.43826499999966473,1200,,,,0.03125,-0.095703125,-0.89453125,0.06405435237970664,0.5430885804651684,22.97066839807855,0.6231259340350189,1685,0,14.313619200961389,11.300702108224883,78.95069688221034,0.04805795031707786,0.037942086682639375,0.140625,,
0.44626999999955297,1200,,,,-0.03125,0.1171875,-1.0546875,0.06405435237970664,0.5430885804651684,22.970931711722304,0.6121959467477587,1686,0,14.062711286935949,11.31261877611973,80.44408041448584,0.04800732626220874,0.038619052143215774,0.142578125,,
0.45944499999983235,1200,,,,-0.1875,0.0703125,-1.0234375,0.06405435237970664,0.5430885804651684,22.971556509239687,0.5978286636327463,1688,0,13.733054929482877,11.324602436823389,82.46236904296589,0.04795652505197416,0.039546086668541314,0.142578125,,
0.47451499999966473,1200,,,,-0.03125,0.08203125,-1.0078125,0.06405435237970664,0.5430885804651684,22.972015237783523,0.5794496912663826,1690,0,13.311127137300298,11.338137297740312,85.17789050311679,0.04789927712141974,0.04079959381826738,0.14453125,,
0.4848699999996461,1200,,,,0.125,0.18359375,-1.125,0.06405435237970664,0.5430885804651684,22.972147420293407,0.5720064541586882,1691,0,13.140216590292688,11.342157769806596,86.31636846979825,0.04788229819116941,0.04133026093849733,0.146484375,,
0.5019699999997392,1200,,,,-0.125,-0.052734375,-0.8984375,0.06405435237970664,0.5430885804651684,22.972820908073057,0.5538432672610134,1691,0,12.723342189929303,11.34568310201797,89.17219180820453,0.047867420196900566,0.04268442775161941,0.146484375,,
0.5245349999996833,1200,,,,0.03125,0.16015625,-1.025390625,0.05828892940972157,0.5430885804651684,22.973112058929107,0.5378556158597,1692,0,12.356217334669216,10.326357176270655,83.57215559244692,0.05259246520284551,0.04395265684922556,0.1484375,,
0.5417799999997951,1200,,,,0.0625,-0.0546875,-0.953125,0.05828892940972157,0.5430885804651684,22.97362491212244,0.5228243853877328,1692,0,12.011171324808721,10.329660489688365,86.00044250765747,0.05257564670274588,0.04521528881562408,0.150390625,,
0.5545799999996088,1200,,,,-0.15625,0.13671875,-0.94921875,0.05828892940972157,0.5430885804651684,22.97404889721057,0.5182365527317689,1693,0,11.905991902781503,10.33568486365348,86.81078357897115,0.05254500186775203,0.045614727852980555,0.150390625,,
0.5729949999996461,1200,,,,-0.125,-0.1640625,-0.9296875,0.05828892940972157,0.5430885804651684,22.974343623096814,0.5040575992559599,1693,0,11.580392491139653,10.33601525799962,89.25444682386951,0.052543322248372444,0.04689725161566798,0.15234375,,
0.5808849999997765,1200,,,,-0.0625,0.015625,-0.958984375,0.05828892940972157,0.9264187692897929,22.97460333237354,0.49936105108057194,1693,0,11.472622068213262,10.334482437112468,90.07951604843507,0.08964346061133191,0.0807503954877573,0.15234375,,
0.5894999999995343,1200,,,,0.0625,0.11328125,-1.1015625,0.05828892940972157,0.9264187692897929,22.974769337493743,0.4955454013463606,1693,0,11.385041292188397,10.333822301260279,90.76666510072836,0.08964918713347818,0.0813715774509694,0.15234375,,
0.5984149999995716,1200,,,,-0.0625,0.103515625,-0.96875,0.05828892940972157,0.9264187692897929,22.974836643393445,0.4914828550168012,1694,0,11.291738307039633,10.33772863170316,91.55125943060766,0.08961531128305153,0.08204394612229311,0.15234375,,
0.606074999999255,1200,,,,-0.0625,-0.05859375,-0.93359375,0.05828892940972157,0.9264187692897929,22.974960585605185,0.48735628918792573,1694,0,11.196991535239396,10.339066848406251,92.33790001418623,0.08960371210218056,0.08273818608991076,0.15234375,,
0.6143849999997765,1200,,,,0.03125,-0.013671875,-0.921875,0.05828892940972157,0.9264187692897929,22.975207352525377,0.48539614191390046,1694,0,11.152077008587698,10.339586152365904,92.71444363596008,0.0895992117709479,0.08307141069563999,0.15234375,,
0.6224499999997206,1200,,,,0,0.08203125,-1.021484375,0.05828892940972157,0.9264187692897929,22.974984946108194,0.4814023760559604,1694,0,11.060212342906405,10.338472547956382,93.47444901984255,0.08960886291398232,0.083761390881791,0.154296875,,
0.6303999999999068,1200,,,,-0.1875,0.08203125,-1.0390625,0.05828892940972157,0.9264187692897929,22.974969501580606,0.4788776647044905,1694,0,11.002199741573813,10.337372450109253,93.95732392539294,0.08961839904297943,0.08420304948556342,0.154296875,,
0.640804999999702,1200,,,,0,-0.0546875,-0.943359375,0.05828892940972157,0.9264187692897929,22.975116890090142,0.4760749519867101,1693,0,10.937877670338716,10.336941011110941,94.50591168287251,0.08962213949891042,0.08469822000314109,0.154296875,,
0.6486649999995716,1200,,,,-0.03125,0.005859375,-0.94921875,0.05828892940972157,0.9264187692897929,22.975043043641843,0.47222658429928654,1694,0,10.849426100628072,10.337502156378081,95.281557388364,0.08961727458680206,0.08538873491531157,0.154296875,,
0.6569749999996275,1200,,,,-0.25,0.234375,-1.03125,0.06075235912363968,0.9264187692897929,22.975086504484842,0.4687361573036539,1694,0,10.769253761831264,10.774866058702372,100.05211407396675,0.08597960886405324,0.08602441634101297,0.154296875,,
0.6643699999996461,1200,,,,0.03125,0.087890625,-1.005859375,0.06075235912363968,0.9264187692897929,22.97513026915189,0.4664680073221949,1694,0,10.717163234619125,10.775072239820606,100.54033893049628,0.0859779636433525,0.08644253605256547,0.154296875,,
0.6729399999994785,1200,,,,0,-0.044921875,-0.9609375,0.06075235912363968,0.9264187692897929,22.975374689000247,0.46485363514911465,1694,0,10.680186443094724,10.775157407160286,100.88922571316125,0.08597728406957386,0.08674181618699822,0.154296875,,
0.6821549999997951,1200,,,,-0.09375,-0.0390625,-0.943359375,0.06075235912363968,0.9264187692897929,22.975336667948195,0.46320295648318305,1694,0,10.642243870790088,10.775191635396776,101.24924561230544,0.08597701095602642,0.08705107499298594,0.154296875,,
0.690269999999553,1200,,,,-0.125,0.2109375,-1.0390625,0.06075235912363968,0.9264187692897929,22.97522784818056,0.46965475457458356,1694,0,10.790424996332378,10.775204129542296,99.85894098892994,0.08597691126331775,0.08585563308254114,0.15625,,
0.698339999999851,1200,,,,-0.0625,0.0859375,-1.02734375,0.06075235912363968,0.9264187692897929,22.97500375696472,0.47633666062097285,1696,0,10.94383656734688,10.78761675500242,98.5725315671236,0.08587798309206668,0.0846521019926365,0.15625,,
0.7075249999994412,1200,,,,0,0.0625,-0.9609375,0.06075235912363968,0.9264187692897929,22.974985256518135,0.4793027388586767,1696,0,11.01197335868686,10.792820806028454,98.0098702973566,0.0858365746953133,0.08412831552657019,0.154296875,,
0.7155249999994412,1200,,,,-0.03125,-0.0703125,-0.9140625,0.06075235912363968,0.9264187692897929,22.974936811954827,0.4725846980859002,1697,0,10.857603576820306,10.794563386072252,99.4193913021227,0.0858227179883079,0.08532442382291308,0.15625,,
0.7232599999993108,1200,,,,-0.0625,0.01953125,-1.00390625,0.06075235912363968,0.9264187692897929,22.974988495361817,0.46631795657436387,1706,0,10.713649687476641,10.852309229013244,101.29423254989085,0.08536604972636118,0.08647088492847577,0.154296875,,
0.7316099999994039,1200,,,,0.0625,0.1328125,-1.12109375,0.06075235912363968,1.118929106000562,22.97523883291688,0.46179269319741967,1709,0,10.609797417506627,10.875689769812908,102.50610206626138,0.1028835071322387,0.10546187283032192,0.154296875,,
0.7393799999998882,1200,,,,0,-0.05078125,-0.955078125,0.06075235912363968,1.118929106000562,22.97537329023073,0.4576013368353774,1711,0,10.513561531901406,10.884656233463506,103.52967641304123,0.10279875468740622,0.10642721808450771,0.154296875,,
0.7473799999994226,1200,,,,-0.1875,-0.0625,-0.86328125,0.06075235912363968,1.118929106000562,22.975598195260332,0.4549923253297136,1709,0,10.45372084870267,10.873598441364058,104.01653725729145,0.10290329480478735,0.1070364439796021,0.15625,,
0.7564449999998324,1200,,,,-0.0625,0.041015625,-0.955078125,0.06075235912363968,1.118929106000562,22.97571745219456,0.4500867698800347,1706,0,10.341066453734589,10.854380483295087,104.96384035299491,0.10308548771830837,0.10820248675575139,0.15625,,
0.7636999999997206,1200,,,,-0.03125,0.216796875,-1.041015625,0.06075235912363968,1.118929106000562,22.975805063696942,0.44664354688175345,1705,0,10.261995066113354,10.846523062397008,105.69604635860578,0.10316016474253328,0.10903621554988206,0.15625,,
0.7713699999996461,1200,,,,-0.1875,0.16015625,-0.984375,0.06075235912363968,1.118929106000562,22.975813666868838,0.44516940202411764,1703,0,10.228129231097551,10.836222407908235,105.94530204958537,0.10325822633392717,0.10939723978052365,0.158203125,,
0.7792649999996647,1200,,,,0,-0.08203125,-0.935546875,0.06075235912363968,1.118929106000562,22.9758230139806,0.4420385221544709,1701,0,10.156198850382667,10.82299191299759,106.56538014308177,0.10338445367004415,0.11017203606233081,0.158203125,,
0.7873999999994412,1200,,,,0.0625,-0.05859375,-0.90625,0.06075235912363968,1.118929106000562,22.975766841633533,0.4401846455318739,1700,0,10.11357978300744,10.817892135984932,106.96402627050867,0.10343319122941941,0.11063630583906164,0.158203125,,
0.800304999999702,1200,,,,-0.0625,0.03515625,-1.0390625,0.06075235912363968,1.118929106000562,22.975874859056336,0.4376960928493323,1700,0,10.056450655604163,10.812442213243795,107.51747891507168,0.10348532588040317,0.11126481343365571,0.158203125,,
0.8109549999996088,1200,,,,-0.041015625,0.123046875,-1.0078125,0.06016931400178424,1.118929106000562,22.975972713169906,0.43740055036505243,1698,0,10.049703109912944,10.697279000226768,106.44373155337357,0.10459941317570964,0.11133951856715642,0.16015625,,
0.8185099999993108,1200,,,,-0.125,0.0078125,-0.875,0.06016931400178424,1.118929106000562,22.975974140942522,0.43426462538427774,1697,0,9.977652803155257,10.695076248372112,107.190302763291,0.1046209564116827,0.11214351993153343,0.16015625,,
0.8261699999994598,1200,,,,0.125,-0.01171875,-0.94921875,0.06016931400178424,1.118929106000562,22.975782804849235,0.43405708356971,1696,0,9.972801277003951,10.685169549264291,107.14311107254262,0.10471795518467968,0.11219807503641673,0.16015625,,
0.8344599999999628,1200,,,,0,0.099609375,-1.05078125,0.06016931400178424,1.118929106000562,22.97599473418801,0.4314540694232647,1695,0,9.913086427112917,10.681113623917785,107.74760920780702,0.10475771959723275,0.11287393832663661,0.16015625,,
0.8425399999995716,1200,,,,-0.09375,0.01953125,-0.9609375,0.06016931400178424,1.118929106000562,22.976060143346537,0.42883898730136905,1695,0,9.853030364048077,10.679567342484681,108.38865757942335,0.10477288733873322,0.11356192609365454,0.16015625,,
0.850554999999702,1200,,,,-0.0625,-0.16015625,-0.88671875,0.06016931400178424,1.118929106000562,22.976253553994816,0.4282543825387165,1695,0,9.839681278819041,10.682023954524086,108.5606703290103,0.10474879206076572,0.1137159908227084,0.16015625,,
0.8597249999996275,1200,,,,-0.0625,0.044921875,-0.94921875,0.06016931400178424,1.118929106000562,22.976126773713037,0.4249273594029424,1695,0,9.763184879261127,10.683062322537422,109.42189925369836,0.10473861072962418,0.11460697711229267,0.16015625,,
0.8680349999996834,1200,,,,-0.0625,0.2109375,-1.03515625,0.06016931400178424,1.118929106000562,22.976184005553144,0.42516531883286185,1696,0,9.768676598283504,10.683395502821059,109.3637955493202,0.1047353442737468,0.1145425477794171,0.162109375,,
0.8749599999994971,1200,,,,-0.0625,0.03125,-1.00390625,0.06016931400178424,1.1968851989691345,22.976240555545303,0.42412110916270285,1694,0,9.744708628806949,10.676367921381194,109.56066854395326,0.11210602779735361,0.12282411353285069,0.16015625,,
0.8824649999993853,1200,,,,0.03125,-0.044921875,-0.9921875,0.06016931400178424,1.1968851989691345,22.976230166332964,0.42456367372046827,1694,0,9.754872687665369,10.673780148209655,109.41998414501306,0.1121332070128774,0.12269613733478511,0.16015625,,
0.8905099999993108,1200,,,,-0.1875,-0.09375,-0.90625,0.06016931400178424,1.1968851989691345,22.976480108409156,0.42525333216650807,1694,0,9.770824727558484,10.672581942877006,109.22907984190043,0.11214579615085066,0.12249582121694758,0.162109375,,
0.8983999999994412,1200,,,,-0.09375,0.0390625,-1.01171875,0.06016931400178424,1.1968851989691345,22.976456647824076,0.42378188671705946,1694,0,9.73700614828761,10.67415226036318,109.62458170204997,0.11212929793156345,0.1229212738229218,0.162109375,,
0.9065149999996647,1200,,,,0,0.26171875,-1.046875,0.06016931400178424,1.1968851989691345,22.976499461291304,0.42619986015610095,1694,0,9.792580857279082,10.675789398278969,109.01916005465888,0.11211210284478662,0.12222367284100169,0.162109375,,
0.9147649999996648,1200,,,,-0.09375,0.201171875,-1.029296875,0.06016931400178424,1.1968851989691345,22.97667246329019,0.42563486829199676,1694,0,9.779672957700868,10.676442534774948,109.16972971338403,0.11210524433308947,0.12238499223296255,0.162109375,,
0.9228149999994785,1200,,,,-0.0625,-0.091796875,-0.888671875,0.06016931400178424,1.1968851989691345,22.976704836133205,0.42351431314118626,1695,0,9.730963366922728,10.680781591430147,109.76078306630997,0.11205970169163178,0.12299760607850604,0.1640625,,
0.930339999999851,1200,,,,0.1875,-0.12109375,-0.98828125,0.06016931400178424,1.1968851989691345,22.97680012896921,0.4229839147656535,1696,0,9.718816867339369,10.684529220559941,109.93652176393923,0.11202039643131881,0.12315132750276782,0.166015625,,
0.9389749999996275,1200,,,,-0.0625,0.056640625,-1.0078125,0.06016931400178424,1.1968851989691345,22.976859578858765,0.4216104460818437,1696,0,9.687284016602527,10.686036160260397,110.30992940793479,0.1120045993686745,0.123552194497225,0.1640625,,
0.9504499999997206,1200,,,,-0.09375,0.1015625,-1.013671875,0.06016931400178424,1.1968851989691345,22.976959581011364,0.4208714752973161,1696,0,9.670346876707056,10.686115663016372,110.50395398696604,0.11200376607483672,0.12376859012700665,0.1640625,,
0.9602349999998696,1200,,,,-0.0625,-0.064453125,-0.87890625,0.055131553449118756,1.1968851989691345,22.977084956967488,0.42121931417554587,1696,0,9.678391967327098,9.789750602220689,101.15059025579376,0.12225900818123346,0.12366570841619683,0.166015625,,
0.9685049999994226,1200,,,,0,0.1015625,-0.986328125,0.055131553449118756,1.1968851989691345,22.977240500012773,0.4209907263180032,1696,0,9.673205166883816,9.789353057585275,101.20071774244064,0.12226397310716344,0.12373201832487403,0.166015625,,
0.9757199999997392,1200,,,,-0.0625,0.27734375,-1.05859375,0.055131553449118756,1.1968851989691345,22.977115376403724,0.41952446153420886,1695,0,9.639461955895163,9.784543732397893,101.50508168574703,0.12232406862326062,0.12416514577736995,0.166015625,,
0.9834949999996461,1200,,,,-0.03125,0.0703125,-1.052734375,0.055131553449118756,1.1968851989691345,22.977065626234847,0.42018428371210936,1694,0,9.654601861965618,9.78272489190582,101.32706694457224,0.12234681156774954,0.12397043566180324,0.166015625,,
0.9925499999998137,1200,,,,-0.03125,-0.125,-0.9375,0.055131553449118756,1.1968851989691345,22.977152476253536,0.41906723256248124,1694,0,9.628971700389732,9.781869463063368,101.58789294881245,0.1223575108509277,0.12430041713807202,0.166015625,,
1.0006149999997578,1200,,,,-0.125,0.04296875,-0.9765625,0.055131553449118756,1.1968851989691345,22.977161497394132,0.41831811320780704,1694,0,9.611762844460984,9.782827407731048,101.77974182299603,0.12234552947579094,0.12452296403243752,0.166015625,,
1.0092599999997764,1200,,,,-0.125,0.17578125,-0.998046875,0.055131553449118756,1.1968851989691345,22.977207646038032,0.41740701437842226,1695,0,9.590847642285791,9.783885635633995,102.01273130955708,0.12233229654790179,0.12479451698222163,0.166015625,,
1.0178799999994226,1200,,,,-0.03125,0.166015625,-0.990234375,0.055131553449118756,1.1968851989691345,22.977083288457216,0.41589375786716487,1695,0,9.556025513663306,9.784243341282385,102.38820864691887,0.12232782415776089,0.12524926783188423,0.16796875,,
1.026869999999646,1200,,,,0.03125,-0.0859375,-0.939453125,0.055131553449118756,1.1210045099714532,22.976951275575104,0.417136967136463,1695,0,9.584535769135684,9.783072408317738,102.07142676457408,0.11458614054807116,0.11695970853187639,0.16796875,,
1.0354199999994598,1200,,,,-0.03125,-0.064453125,-0.990234375,0.055131553449118756,1.1210045099714532,22.976898351994134,0.4166420519831058,1694,0,9.573142077582077,9.781980864450434,102.18150723321453,0.11459892689479648,0.1170989107741927,0.16796875,,
1.0439599999999627,1200,,,,-0.25,0.140625,-1.0390625,0.055131553449118756,1.1210045099714532,22.976920650776613,0.41665692999076415,1694,0,9.573493218993974,9.781610377536998,102.1738894443474,0.11460326742780379,0.11709461576129403,0.16796875,,
1.0519499999997206,1200,,,,-0.03125,0.181640625,-1.04296875,0.055131553449118756,1.1210045099714532,22.976877342397206,0.4150345187729846,1694,0,9.536197230707717,9.780863965908914,102.56566353738302,0.11461201320033704,0.11755257183247868,0.169921875,,
1.060904999999795,1200,,,,0,0.044921875,-0.921875,0.055131553449118756,1.1210045099714532,22.97682942316326,0.4149005324865868,1694,0,9.533098762523911,9.780204683797404,102.59208393229811,0.11461973917873014,0.117590779021224,0.16796875,,
1.0689399999994784,1200,,,,0,-0.0390625,-0.919921875,0.055131553449118756,1.1210045099714532,22.97685646054656,0.41686512090609434,1694,0,9.578250046467717,9.779971020185691,102.10603161056923,0.11462247767991535,0.11703646329267203,0.169921875,,
1.0768749999995344,1200,,,,-0.1875,0.08984375,-1.04296875,0.055131553449118756,1.1210045099714532,22.976934787389176,0.4155545710760847,1694,0,9.548170280216677,9.77902188531666,102.41775752133677,0.11463360273839426,0.11740516529058112,0.169921875,,
1.0859799999995157,1200,,,,0,0.09765625,-1.046875,0.055131553449118756,1.1210045099714532,22.977107619843615,0.4151430441790272,1694,0,9.538786403731,9.778545978568777,102.51352283917372,0.11463918177899977,0.11752066379565682,0.169921875,,
1.0944049999997951,1200,,,,-0.03125,-0.009765625,-0.93359375,0.055131553449118756,1.1210045099714532,22.977192008725392,0.414065753588681,1694,0,9.514068324444699,9.778382496834187,102.7781403641004,0.11464109839581195,0.11782598902419404,0.169921875,,
1.105609999999404,1200,,,,-0.25,0.02734375,-0.8359375,0.055131553449118756,1.1210045099714532,22.977199058671538,0.41335148174227304,1694,0,9.497659277189042,9.77926461229956,102.96499723660189,0.11463075746631761,0.11802955625748973,0.169921875,,
1.1253999999994413,1200,,,,-0.041015625,0.1328125,-1.01953125,0.05067308653183532,1.1210045099714532,22.976812784019877,0.4135598604405195,1694,0,9.502287488327205,8.988678808809425,94.59489433308866,0.12471293432721213,0.1179720684465206,0.169921875,,
1.1335199999995529,1200,,,,0.125,-0.20703125,-0.90625,0.05067308653183532,1.1210045099714532,22.976903613383623,0.41287469423155027,1694,0,9.486582053763566,8.987979260777607,94.74412607027259,0.12472264092368056,0.11816737615490529,0.171875,,
1.1417999999998136,1200,,,,-0.125,-0.0234375,-0.912109375,0.05067308653183532,1.1210045099714532,22.97685949061175,0.4126485679648359,1694,0,9.481368165130188,8.987703290691544,94.7933160505864,0.12472647056923476,0.11823235744543634,0.171875,,
1.149799999999348,1200,,,,-0.15625,0.236328125,-1.017578125,0.05067308653183532,1.1210045099714532,22.976817619791674,0.4115847878571483,1694,0,9.456908605674343,8.987594117306038,95.03733716865248,0.1247279856366573,0.11853815625317846,0.171875,,
1.1576049999995157,1200,,,,0.125,0.16015625,-1.0625,0.05067308653183532,1.1210045099714532,22.97684305421704,0.4112073646823293,1694,0,9.448247081044071,8.987550838326083,95.12400301594272,0.1247285862563464,0.11864682415222969,0.171875,,
1.165774999999907,1200,,,,0,0.056640625,-0.98046875,0.05067308653183532,1.1210045099714532,22.97680186908648,0.41233685585876256,1694,0,9.474182240388858,8.987533856867135,94.86342598048071,0.12472882192426164,0.11832203366244755,0.173828125,,
1.173644999999553,1200,,,,-0.0625,-0.1640625,-0.888671875,0.05067308653183532,1.1210045099714532,22.976860266527876,0.41118573795217334,1694,0,9.447757244516234,8.98752715763941,95.12868424785198,0.1247289148960844,0.11865297561726815,0.173828125,,
1.183119999999646,1200,,,,-0.0625,0.04296875,-1.05859375,0.05067308653183532,1.0891433792681147,22.97688637315695,0.40983096772158056,1694,0,9.41663957753971,8.987524334333564,95.44301085676403,0.12118391436309542,0.11566157654222078,0.173828125,,
1.1911249999995344,1200,,,,-0.03125,0.201171875,-1.09375,0.05067308653183532,1.0891433792681147,22.976639545352352,0.4164957178676129,1694,0,9.569671981626911,8.98752336386623,93.91673383499075,0.12118392744846114,0.11381198659255955,0.17578125,,
1.1984199999994598,1200,,,,-0.03125,0.068359375,-0.91796875,0.05067308653183532,1.0891433792681147,22.97660941474506,0.42336465690696207,1694,0,9.727484361758817,8.98752300436871,92.39308612718945,0.12118393229577241,0.11196557493834797,0.17578125,,
1.2067949999994598,1200,,,,-0.125,-0.08203125,-0.91015625,0.05067308653183532,1.0891433792681147,22.976578905475098,0.42636488641456727,1697,0,9.796406455228233,9.003244827831011,91.90354513134844,0.12097231610333786,0.11117784712646861,0.17578125,,
1.215859999999404,1200,,,,0.0625,-0.0234375,-0.904296875,0.05067308653183532,1.0891433792681147,22.976551122690356,0.4244432289845427,1698,0,9.752241549443115,9.009203206006433,92.38084557617307,0.12089230916025773,0.11168133743880743,0.17578125,,
1.2241249999995343,1200,,,,0,0.126953125,-1.103515625,0.05067308653183532,1.0891433792681147,22.97666830541821,0.4249887865908234,1700,0,9.764826383019516,9.018690181478219,92.35894042275257,0.12076513965463635,0.11153740338507952,0.17578125,,
1.2395699999993668,1200,,,,-0.03125,-0.095703125,-0.939453125,0.05067308653183532,1.0891433792681147,22.976703215300002,0.4219219427072405,1706,0,9.694375257607076,9.050425180004122,93.35748761017217,0.1203416809272621,0.11234796986154164,0.17578125,,
1.2480049999998883,1200,,,,-0.03125,-0.0546875,-0.921875,0.05067308653183532,1.0891433792681147,22.976872444989777,0.4215546246579281,1706,0,9.686006839360756,9.05402933493566,93.47535558351098,0.12029377628207724,0.11244503512450488,0.17578125,,
1.2589899999997578,1200,,,,-0.3125,0.23828125,-1.05078125,0.05067308653183532,1.0891433792681147,22.976896576395024,0.4192755256399404,1705,0,9.633650389642572,9.048204893670512,93.92291112617612,0.1203712108718938,0.11305614540871087,0.177734375,,
1.268054999999702,1200,,,,-0.01953125,0.1796875,-1.017578125,0.05410953315747737,1.0891433792681147,22.976835871381866,0.417936580024103,1705,0,9.602860203860468,9.659193044480409,100.58662564511035,0.11275718108672528,0.11341864362768352,0.177734375,,
1.276329999999609,1200,,,,-0.09375,-0.080078125,-0.94140625,0.05410953315747737,1.0891433792681147,22.977006485593737,0.4162440809199437,1703,0,9.56404294688755,9.648751769658567,100.88570098693026,0.11287919984562474,0.11387897203269641,0.177734375,,
1.2850049999994226,1200,,,,0.1875,-0.11328125,-0.9453125,0.05410953315747737,1.0891433792681147,22.977022536865512,0.4169139993232475,1701,0,9.579442358384991,9.640497854838344,100.63735960997677,0.11297584374457371,0.1136959061416321,0.177734375,,
1.293209999999497,1200,,,,-0.03125,0.08984375,-1.03515625,0.05410953315747737,1.0891433792681147,22.97696677513464,0.4154906151469272,1701,0,9.5467140596112,9.63704088726323,100.9461562071307,0.11301637006724524,0.1140856814677103,0.177734375,,
1.3026649999995716,1200,,,,-0.15625,0.109375,-1.025390625,0.05410953315747737,1.0891433792681147,22.977132676452026,0.41675654880939444,1700,0,9.57587051577371,9.631891167485954,100.58501889326892,0.11307679461170604,0.11373831522408741,0.177734375,,
1.310709999999497,1200,,,,-0.125,-0.013671875,-0.853515625,0.05410953315747737,1.0891433792681147,22.977274996196883,0.416334670689983,1698,0,9.56623621889481,9.62268717383247,100.59010621989619,0.11318495131275652,0.11385286275043957,0.177734375,,
1.3184699999992735,1200,,,,0.125,0.015625,-0.94140625,0.05410953315747737,1.0891433792681147,22.9772124178488,0.4161504938658628,1698,0,9.561978295348613,9.6191055686325,100.59744198866963,0.11322709492031834,0.11390356112792312,0.177734375,,
1.3276649999995715,1200,,,,-0.0625,0.177734375,-1.037109375,0.05410953315747737,1.2360697110766616,22.977368446635168,0.4164369400197805,1697,0,9.568625005623806,9.614321552917437,100.47756649745155,0.12856546395638077,0.1291794495395296,0.177734375,,
1.3347249999996276,1200,,,,0.0625,0.046875,-1.1015625,0.05410953315747737,1.2360697110766616,22.97731116600986,0.41572861428714647,1696,0,9.552325731089857,9.611463810196655,100.61909613189093,0.12860368987347526,0.12939987034295095,0.177734375,,
1.342084999999497,1200,,,,-0.03125,-0.025390625,-0.947265625,0.05410953315747737,1.2360697110766616,22.977247573648736,0.4156817219704703,1696,0,9.551221837556117,9.61008405635287,100.61627946453197,0.12862215396123844,0.12941482588294026,0.1796875,,
1.3497549999994225,1200,,,,-0.09375,-0.03515625,-0.919921875,0.05410953315747737,1.2360697110766616,22.977284033908383,0.4131155938541271,1696,0,9.492274338823014,9.608621794919356,101.225706842674,0.12864172796667303,0.13021849842889463,0.1796875,,
1.356769999999553,1200,,,,-0.125,0.0859375,-0.94140625,0.05410953315747737,1.2360697110766616,22.977228217879567,0.4138496327299771,1695,0,9.509117459122326,9.606347450384167,101.02249227312431,0.12867218445520934,0.12998784759892412,0.177734375,,
1.3646849999995903,1200,,,,-0.125,0.19140625,-1.015625,0.05410953315747737,1.2360697110766616,22.97735219130866,0.41476358320161666,1695,0,9.5301689273527,9.605349017288413,100.78886419022372,0.12868555935363643,0.1297007136493664,0.1796875,,
1.3724349999995902,1200,,,,-0.03125,0.150390625,-0.99609375,0.05410953315747737,1.2360697110766616,22.977479348585412,0.4132011449790136,1695,0,9.494320775567132,9.604908168994916,101.16477414279461,0.12869146579316096,0.1301904307107031,0.1796875,,
1.3810349999996834,1200,,,,0.03125,-0.11328125,-0.943359375,0.05410953315747737,1.2360697110766616,22.97753864732057,0.41208837478950716,1695,0,9.468776557837424,9.603799391292936,101.42597972009119,0.12870632347832212,0.13054164954959796,0.1796875,,
1.3908599999998696,1200,,,,0,-0.103515625,-0.9453125,0.05410953315747737,1.2360697110766616,22.977607614141842,0.4134435252993628,1695,0,9.499943094936285,9.60332392674689,101.08822580069673,0.12871269578171754,0.1301133805459865,0.1796875,,
1.398954999999609,1200,,,,-0.1875,0.21875,-1.0390625,0.05410953315747737,1.2360697110766616,22.977659248890276,0.41424782387290726,1695,0,9.518445341545977,9.603184755790954,100.8902652818219,0.1287145611075827,0.12986046215777294,0.1796875,,
1.4080599999995902,1200,,,,-0.0625,0.154296875,-1.0234375,0.05410953315747737,1.2360697110766616,22.97748342314741,0.4188092233990276,1694,0,9.623181988112398,9.601310240308036,99.77271813178447,0.1287396907442296,0.12844708876997124,0.1796875,,
1.4169149999995716,1200,,,,-0.03125,0.001953125,-0.9140625,0.05789193717584693,1.2360697110766616,22.977061811009573,0.43118209731856977,1694,0,9.907297701889522,10.271559512741666,103.67670198083047,0.12033904973663849,0.12476355796201803,0.1796875,,
1.4258549999995158,1200,,,,0.03125,0.013671875,-0.953125,0.05789193717584693,1.2360697110766616,22.97679798015848,0.43745127192744016,1694,0,10.051229501240165,10.271288852863531,102.1893774447814,0.1203422208043597,0.12297696624319938,0.1796875,,
1.434314999999944,1200,,,,0.0625,0.07421875,-1.095703125,0.05789193717584693,1.2360697110766616,22.976694701296214,0.4327813130820047,1701,0,9.943884103111316,10.310797201657634,103.6898368358046,0.11988110006449769,0.12430451705384528,0.1796875,,
1.4421949999993666,1200,,,,-0.1875,0.07421875,-1.00390625,0.05789193717584693,1.2360697110766616,22.97683934916645,0.4305676839467723,1703,0,9.893084502987662,10.322610883776454,104.341683128847,0.11974390248685363,0.12494280329894833,0.1796875,,
1.4499149999995715,1200,,,,0,-0.125,-0.931640625,0.05789193717584693,1.2360697110766616,22.9769932945297,0.42715693773844055,1704,0,9.814782094127988,10.328016588559086,105.2291990745078,0.11968122828597352,0.12593959796786322,0.1796875,,
1.4576849999995902,1200,,,,-0.125,-0.03125,-0.9140625,0.05789193717584693,1.2360697110766616,22.976847794894493,0.4237030573633234,1706,0,9.735360659268533,10.341079610329038,106.22184397949172,0.11953004499085679,0.12696701789880416,0.1796875,,
1.465904999999795,1200,,,,-0.125,0.08984375,-1,0.05789193717584693,1.2360697110766616,22.97687178947131,0.4225145617027332,1707,0,9.708062913428366,10.346298293729223,106.57428146059951,0.11946975391438594,0.12732403179700327,0.1796875,,
1.4738799999998882,1200,,,,-0.03125,0.201171875,-1.03515625,0.05789193717584693,1.2360697110766616,22.976927454872055,0.4211700214148435,1707,0,9.677193028215768,10.348352875811338,106.93548062582477,0.11944603415736829,0.12773019071466862,0.1796875,,
1.4819049999993295,1200,,,,-0.0625,0.15234375,-0.95703125,0.05789193717584693,1.3005747189394035,22.976684868592677,0.41925005316270236,1704,0,9.632976352660139,10.32820646672573,107.21718904535258,0.12592454683486923,0.1350127594344453,0.1796875,,
1.490769999999553,1200,,,,-0.09375,-0.041015625,-0.9296875,0.05789193717584693,1.3005747189394035,22.976782255920078,0.4176454324854321,1702,0,9.596148162397343,10.320308132856626,107.54636087526154,0.126020919355962,0.1355309127088852,0.1796875,,
1.5000499999993482,1200,,,,0,0.005859375,-1.001953125,0.05789193717584693,1.3005747189394035,22.976734579465937,0.418665379272432,1702,0,9.61956329715411,10.316840791289717,107.248535849251,0.12606327317151683,0.13520101472009344,0.181640625,,
1.5078549999995157,1200,,,,0.125,0.171875,-1.05078125,0.05789193717584693,1.3005747189394035,22.977023795909208,0.41921529839218036,1700,0,9.632319886766307,10.304977741282373,106.98334214834601,0.12620839671775527,0.13502196088049803,0.181640625,,
1.5161599999992177,1200,,,,-0.125,0.08203125,-1.02734375,0.05789193717584693,1.3005747189394035,22.977168494748827,0.41899894065274684,1699,0,9.627409258499428,10.300278412024287,106.98909888899577,0.12626597718185414,0.13509083119025075,0.181640625,,
1.5238499999991617,1200,,,,-0.09375,-0.0625,-0.865234375,0.05789193717584693,1.3005747189394035,22.977369673388672,0.4182707674649017,1699,0,9.610762047613038,10.29841686113129,107.15504982967548,0.1262888011309861,0.1353248277812079,0.18359375,,
1.5319799999995156,1200,,,,0.125,0.0078125,-0.9765625,0.05789193717584693,1.3005747189394035,22.97730149732489,0.4166867528764414,1697,0,9.574337150783304,10.287700144797812,107.45078205185354,0.12642035640949992,0.13583966163474823,0.18359375,,
1.5398099999995902,1200,,,,-0.0625,0.189453125,-1.033203125,0.05789193717584693,1.3005747189394035,22.977237908702282,0.41754817353849283,1696,0,9.594103721738056,10.28357622479854,107.18641910758475,0.12647105350404325,0.13555979345862157,0.18359375,,
1.5479199999999256,1200,,,,-0.0625,0.072265625,-0.994140625,0.05789193717584693,1.3005747189394035,22.97727579333651,0.415792986971918,1696,0,9.553790134588935,10.281933050275295,107.62150837969699,0.12649126507438024,0.13613180744160888,0.181640625,,
1.5589449999993668,1200,,,,0.1875,-0.18359375,-0.93359375,0.05789193717584693,1.3005747189394035,22.97720673777055,0.41538390089720584,1696,0,9.544361766456692,10.281262131408127,107.72079247395298,0.12649951944774276,0.13626628482485076,0.18359375,,
1.5674199999994598,1200,,,,-0.125,-0.005859375,-0.939453125,0.05442082038002835,1.3005747189394035,22.977391579597896,0.4146248386962044,1696,0,9.526997277350302,9.664562685715863,101.44395347621871,0.13457150222240694,0.1365146521067471,0.18359375,,
1.576014999999199,1200,,,,-0.125,0.27734375,-1.04296875,0.05442082038002835,1.3005747189394035,22.977454608558048,0.41409627012048067,1696,0,9.514878250266538,9.66449662155544,101.5724675329893,0.13457242212063436,0.13668852976683865,0.18359375,,
1.584889999999199,1200,,,,-0.03125,0.134765625,-1.029296875,0.05442082038002835,1.3005747189394035,22.97752095457336,0.4154384720103414,1695,0,9.545746195953559,9.661533342275819,101.21297113861401,0.13461369669434345,0.13624652198386722,0.18359375,,
1.593329999999609,1200,,,,0,-0.091796875,-0.9375,0.05442082038002835,1.3005747189394035,22.977437195293017,0.4150417962301808,1695,0,9.536596806300581,9.660462007868235,101.29884070893947,0.13462862520240895,0.13637723659242337,0.18359375,,
1.6007849999992176,1200,,,,0,-0.078125,-0.970703125,0.05442082038002835,1.3005747189394035,22.977374274512187,0.41560032486298704,1695,0,9.549404212985706,9.660123395037056,101.1594354954709,0.13463334429119003,0.13619433107364162,0.18359375,,
1.611554999999702,1200,,,,-0.125,0.21484375,-1.04296875,0.05442082038002835,1.3005747189394035,22.977292172846557,0.41516080329700517,1695,0,9.539271076068966,9.660971836795873,101.27578679499125,0.1346215205789015,0.13633900416166356,0.18359375,,
1.6181299999994225,1200,,,,-0.09375,0.166015625,-1.037109375,0.05442082038002835,1.3005747189394035,22.9773269692752,0.41593809776644314,1695,0,9.557145671357919,9.661227963446551,101.08905206290366,0.13461795165792112,0.13608401123749037,0.18359375,,
1.6253899999996648,1200,,,,-0.03125,-0.001953125,-0.92578125,0.05442082038002835,1.0969336433697234,22.97718186047494,0.4150342029360841,1695,0,9.536316359179667,9.66132277467554,101.31084593660258,0.11353866017653698,0.11502697708993412,0.18359375,,
1.6326849999991246,1200,,,,-0.0625,0.01171875,-0.90625,0.05442082038002835,1.0969336433697234,22.9773049444255,0.41473816550641196,1695,0,9.529565300932441,9.659629488533954,101.36484911424853,0.11355856295231523,0.11510846599292328,0.18359375,,
1.6453599999998696,1200,,,,0.125,-0.015625,-0.9765625,0.05442082038002835,1.0969336433697234,22.97782678093533,0.4152476507709971,1695,0,9.5414885906063,9.658674458601807,101.22817175624859,0.11356979139024796,0.11496462349173343,0.18359375,,
1.6532199999992736,1200,,,,-0.0625,0.11328125,-1.05859375,0.05442082038002835,1.0969336433697234,22.97783446956502,0.4149418768715677,1695,0,9.534465761245514,9.6588311157157,101.30437674836162,0.11356794939554578,0.11504930332105236,0.18359375,,
1.6621249999995344,1200,,,,-0.03125,-0.03125,-0.927734375,0.05442082038002835,1.0969336433697234,22.97795248508057,0.416469408240776,1695,0,9.569614274046174,9.660469112639163,100.94940962081822,0.11354869319281431,0.11462673541030027,0.18359375,,
1.6703199999993668,1200,,,,-0.1875,0.01171875,-0.921875,0.05442082038002835,1.0969336433697234,22.97785621037004,0.41434817550774883,1695,0,9.520832797846221,9.661031889897595,101.47255072143572,0.11354207872109102,0.11521404342043155,0.181640625,,
1.6788999999994412,1200,,,,-0.0625,0.115234375,-1.005859375,0.05442082038002835,1.0969336433697234,22.977754988344394,0.41448934183687497,1696,0,9.524034542007838,9.664690162222001,101.47684911886627,0.11349910084624258,0.11517531131701148,0.181640625,,
1.6872099999994972,1200,,,,0.03125,0.1484375,-1.033203125,0.05442082038002835,1.0969336433697234,22.977865697754787,0.4122555674943337,1697,0,9.472753063036484,9.669194327417033,102.07375050392773,0.11344622997795839,0.11579882174381334,0.181640625,,
1.6944149999995717,1200,,,,-0.0625,0.1015625,-0.96875,0.05442082038002835,1.0969336433697234,22.977971333676773,0.4129162751653096,1697,0,9.487978333957075,9.67096609762629,101.92862754559955,0.11342544605124433,0.11561300044750777,0.181640625,,
1.7022899999995715,1200,,,,-0.03125,-0.1796875,-0.87890625,0.05442082038002835,1.0969336433697234,22.97805794177322,0.41327255541190566,1697,0,9.496200723999452,9.669890956009834,101.82904971218036,0.1134380571983575,0.11551289565704706,0.181640625,,
1.712609999999404,1200,,,,-0.0625,-0.013671875,-0.99609375,0.050473200533582445,1.0969336433697234,22.97795771371348,0.41271017309070523,1696,0,9.483236905297595,8.966260853776221,94.54852750506974,0.12234014393053712,0.11567080463390579,0.18359375,,
1.7209799999995157,1200,,,,-0.03125,0.224609375,-1.056640625,0.050473200533582445,1.0969336433697234,22.978273798704286,0.4115377732604277,1696,0,9.456427632487191,8.965254824400219,94.80593700733702,0.12235387223844015,0.11599873504041319,0.18359375,,
1.729804999999702,1200,,,,0,0.046875,-0.921875,0.050473200533582445,1.0969336433697234,22.978027377108244,0.4115904019629407,1696,0,9.45753552445944,8.965569748730072,94.79816095369638,0.12234957444005147,0.11598514650384256,0.18359375,,
1.7387349999998696,1200,,,,-0.25,-0.09375,-0.83203125,0.050473200533582445,1.0969336433697234,22.978061725682437,0.41257523084868436,1696,0,9.48017912092875,8.966897619405213,94.58574046992003,0.12233145619905993,0.11570811367351672,0.185546875,,
1.7453349999994971,1200,,,,0.03125,-0.013671875,-0.98046875,0.050473200533582445,1.0969336433697234,22.97815558077616,0.41257608780178234,1697,0,9.48023753441732,8.967358298647795,94.59001703377628,0.12232517167682842,0.11570740072570807,0.185546875,,
1.7541499999994412,1200,,,,0,0.119140625,-1.06640625,0.050473200533582445,1.0969336433697234,22.978048535988293,0.41268477756873734,1696,0,9.48269084903798,8.965813839076993,94.5492580303467,0.12234624352658317,0.11567746548238549,0.185546875,,
1.7620149999996648,1200,,,,-0.25,0.1640625,-0.97265625,0.050473200533582445,1.0969336433697234,22.977946845056138,0.41375940464317706,1696,0,9.507341606532997,8.963480753570632,94.27956966867953,0.12237808877235068,0.11537753546332682,0.185546875,,
1.7694499999997206,1200,,,,-0.0625,-0.068359375,-0.880859375,0.050473200533582445,1.0969336433697234,22.97804527630626,0.41318404866329017,1696,0,9.49416177763261,8.962587665017422,94.40104218713094,0.12239028329410391,0.11553770296541609,0.185546875,,
1.7772899999995715,1200,,,,0.0625,0.0078125,-0.8828125,0.050473200533582445,1.0073857366107317,22.97778001791244,0.4141112812386485,1696,0,9.515357923237536,8.96224611678992,94.1871676198658,0.11240326626642062,0.10586945280855767,0.185546875,,
1.7862249999996274,1200,,,,-0.09375,0.205078125,-1.03125,0.050473200533582445,1.0073857366107317,22.97775550326672,0.41331040430166593,1695,0,9.496945416999997,8.960258420868652,94.34884615456829,0.1124282012072896,0.10607471059141414,0.185546875,,
1.7942249999996274,1200,,,,0,0.044921875,-1.015625,0.050473200533582445,1.0073857366107317,22.977668760767134,0.41467029393261096,1695,0,9.52815665891348,8.959585472233957,94.03272629708884,0.11243664561632369,0.1057272432300254,0.185546875,,
1.8021349999997764,1200,,,,0.125,-0.140625,-0.9765625,0.050473200533582445,1.0073857366107317,22.977588242647567,0.41519914955728265,1695,0,9.540275097224686,8.959325068541597,93.9105526542721,0.11243991359883924,0.10559294426465597,0.1875,,
1.8110949999997392,1200,,,,-0.09375,-0.076171875,-0.921875,0.050473200533582445,1.0073857366107317,22.977648115979566,0.4133702928768117,1695,0,9.498277131322794,8.95738759850252,94.30539322719312,0.1124642341902392,0.10605983829305644,0.1875,,
1.819209999999497,1200,,,,-0.15625,0.162109375,-0.990234375,0.050473200533582445,1.0073857366107317,22.97756742210426,0.41471493658240927,1695,0,9.529140416276002,8.95673998458377,93.99315775938658,0.11247236587694089,0.10571632829442752,0.185546875,,
1.8270249999994412,1200,,,,-0.03125,0.177734375,-1.033203125,0.050473200533582445,1.0073857366107317,22.97736112878895,0.41968902964348637,1695,0,9.643346395909397,8.956485127170895,92.87735563424475,0.11247556628600541,0.10446433170108393,0.1875,,
1.8357599999997765,1200,,,,0.125,0.0546875,-0.9296875,0.050473200533582445,1.0073857366107317,22.97729441984847,0.42999026615256836,1696,0,9.880012943056567,8.964116655850917,90.72980680810424,0.11237981111649262,0.10196198551730622,0.185546875,,
1.8442349999998695,1200,,,,-0.09375,-0.1015625,-0.8984375,0.050473200533582445,1.0073857366107317,22.977078801077223,0.4402706093643408,1697,0,10.116132485162746,8.967289697601519,88.64345846353608,0.11234004594277545,0.09958210196320151,0.1875,,
1.8522249999996274,1200,,,,0.125,-0.1171875,-0.96875,0.050473200533582445,1.0073857366107317,22.97735957819453,0.434301347670389,1697,0,9.979098230717007,8.968390317624555,89.87175103676847,0.11232625933229413,0.1009495761360343,0.1875,,
1.862804999999702,1200,,,,-0.03125,0.138671875,-1.04296875,0.052827863283089416,1.0073857366107317,22.977489695228538,0.43365931152951237,1707,0,9.964402361909272,9.444639174495258,94.78379968475677,0.10666217290027584,0.10109846030120638,0.1875,,
1.870089999999851,1200,,,,-0.09375,0.03515625,-0.962890625,0.052827863283089416,1.0073857366107317,22.977400014380404,0.42688746663902677,1712,0,9.808764082090388,9.46975669157259,96.5438317439321,0.10637926289143557,0.10270261657634275,0.185546875,,
1.8784799999995156,1200,,,,-0.09375,-0.048828125,-0.927734375,0.052827863283089416,1.0073857366107317,22.97753465379248,0.4252491004962392,1713,0,9.771175943146417,9.477454400114054,96.9940000595488,0.10629286030630848,0.10309769698879695,0.185546875,,
1.886174999999348,1200,,,,0.0625,-0.03125,-0.98828125,0.052827863283089416,1.0073857366107317,22.97752445608181,0.4206128252551838,1710,0,9.66464147884265,9.461635812800873,97.89950132670532,0.10647056772654634,0.10423415486400091,0.185546875,,
1.8937999999998136,1200,,,,-0.0625,0.2265625,-1.017578125,0.052827863283089416,1.0073857366107317,22.977635409485757,0.41889266845847684,1709,0,9.625163011545474,9.456013530286244,98.24263255535169,0.10653387216338268,0.10466168057646015,0.185546875,,
1.902144999999553,1200,,,,-0.0625,0.16015625,-1,0.052827863283089416,1.0073857366107317,22.97774911448836,0.41806846752679866,1709,0,9.606272359509404,9.453536063299524,98.41003575066571,0.10656179125624751,0.10486749687182294,0.185546875,,
1.9103849999993108,1200,,,,0.0625,-0.17578125,-0.98046875,0.052827863283089416,1.0073857366107317,22.977530275312162,0.41650677902144817,1705,0,9.570297124838078,9.432409287543885,98.55921048745364,0.10680046909553115,0.10526169913745242,0.185546875,,
1.918174999999348,1200,,,,0,-0.109375,-0.90234375,0.052827863283089416,1.0073857366107317,22.977553174836828,0.41610468270556983,1704,0,9.561067473165837,9.424218966513717,98.5686900857441,0.10689328634979625,0.10536331214459765,0.185546875,,
1.9260199999995529,1200,,,,-0.0625,0.12890625,-1.087890625,0.052827863283089416,1.2384917905228934,22.977542415125857,0.41486213521426574,1703,0,9.53251230831547,9.420950228143884,98.82966759902038,0.13146145139617207,0.1299229154356846,0.1875,,
1.9344799999995157,1200,,,,-0.125,0.1171875,-1.01171875,0.052827863283089416,1.2384917905228934,22.977369035468858,0.41485727911167836,1700,0,9.53232879919954,9.40521036965493,98.6664493827019,0.1316814554748054,0.12992541661245396,0.1875,,
1.9429049999997952,1200,,,,-0.03125,0.044921875,-0.916015625,0.052827863283089416,1.2384917905228934,22.97744133121729,0.4142485480689168,1699,0,9.518371709795481,9.398588358170656,98.74155627373162,0.1317742349515937,0.13011593035900723,0.185546875,,
1.9516849999995902,1200,,,,-0.0625,0.00390625,-0.87890625,0.052827863283089416,1.2384917905228934,22.97757009490475,0.4126371860720224,1699,0,9.481399866734147,9.396354310615765,99.10302742934861,0.13180556517794104,0.13062330541170286,0.185546875,,
1.9596849999995902,1200,,,,-0.125,0.09375,-1.109375,0.052827863283089416,1.2384917905228934,22.9774903283724,0.41219264125592237,1698,0,9.471152427884231,9.390889705041413,99.15255589587477,0.13188226349394994,0.13076463502758356,0.185546875,,
1.9682399999992921,1200,,,,0.0625,0.111328125,-1.068359375,0.052827863283089416,1.2384917905228934,22.977413826591864,0.40997981554329466,1697,0,9.420275882288081,9.388790086378457,99.66576567073982,0.13191175637420366,0.131470862000071,0.185546875,,
1.9771699999994599,1200,,,,-0.03125,-0.076171875,-0.93359375,0.052827863283089416,1.2384917905228934,22.977336901478886,0.41083218244166647,1697,0,9.439829465932009,9.387970739164968,99.45063915662675,0.1319232691422996,0.1311985343583339,0.1875,,
1.9850999999996275,1200,,,,-0.09375,-0.03125,-0.9296875,0.052827863283089416,1.2384917905228934,22.977271660502165,0.41102425814597376,1696,0,9.444216038476409,9.383502533090196,99.35713557230308,0.13198608794055822,0.1311375963316796,0.1875,,
1.9932949999994598,1200,,,,-0.125,0.0859375,-0.96484375,0.052827863283089416,1.2384917905228934,22.97727481481479,0.4106699518155056,1695,0,9.43607634105162,9.379600869994293,99.40149412726103,0.1320409906230527,0.131250717539751,0.1875,,
2.0020099999993106,1200,,,,0,0.205078125,-1.046875,0.052827863283089416,1.2384917905228934,22.977314559301927,0.4126765530403565,1695,0,9.482198970456718,9.378007037397051,98.90118385635766,0.13206343155684472,0.13061229725105003,0.1875,,
2.009394999999553,1200,,,,-0.1875,0.1640625,-0.95703125,0.059330991109902496,1.2384917905228934,22.977258003248814,0.41229818041755056,1696,0,9.473481665724087,10.536577329978588,111.22180526406544,0.11754213457904837,0.13073248402473492,0.1875,,
2.019704999999609,1200,,,,0,-0.111328125,-0.94140625,0.059330991109902496,1.2384917905228934,22.977097583205058,0.41241958015065755,1696,0,9.476204938346118,10.538518134611293,111.21032315338022,0.11752048767229971,0.13069491411179288,0.1875,,
2.028079999999143,1200,,,,-0.03125,-0.04296875,-0.96484375,0.059330991109902496,1.2384917905228934,22.97709113437435,0.41017982405481157,1696,0,9.424739198789043,10.539397234476088,111.82693772396657,0.11751068519095045,0.13140860074749056,0.1875,,
2.0361999999997207,1200,,,,-0.0625,0.1875,-1.06640625,0.059330991109902496,1.2384917905228934,22.977037739846924,0.4100854235573939,1696,0,9.42254825363935,10.534579240724888,111.80180729407279,0.11756442874672157,0.13143915607378717,0.189453125,,
2.0438199999998323,1200,,,,-0.25,0.17578125,-0.9765625,0.059330991109902496,1.2384917905228934,22.977050697297987,0.41038393942200607,1695,0,9.4294125814563,10.532797162716212,111.70151981078659,0.11758431985255371,0.13134347233447896,0.189453125,,
2.052519999999553,1200,,,,0,-0.01171875,-0.912109375,0.059330991109902496,1.2384917905228934,22.976993663602087,0.41026799420660104,1695,0,9.42672510326381,10.531929346492122,111.72415903849426,0.11759400863578702,0.13138091722798736,0.189453125,,
2.0603699999996463,1200,,,,0.03125,-0.03125,-0.943359375,0.059330991109902496,1.2384917905228934,22.977079483598956,0.4094973955065113,1695,0,9.409054204879869,10.53214082252364,111.93623283689129,0.11759164745255793,0.1316276602892316,0.1875,,
2.0675899999993854,1200,,,,-0.1875,0.2109375,-1.05078125,0.059330991109902496,1.2384917905228934,22.977216584143907,0.4088284717305972,1695,0,9.393740340718487,10.532710044066432,112.12477311525124,0.11758529242154481,0.1318422423445618,0.189453125,,
2.08416999999946,1200,,,,-0.03125,-0.029296875,-0.888671875,0.059330991109902496,1.3352493449874152,22.977373350301395,0.4065951829398905,1695,0,9.34248932084396,10.533740259757487,112.75089430667838,0.1267592813246523,0.14292222331026383,0.1875,,
2.091799999999348,1200,,,,-0.1875,0.015625,-0.8984375,0.059330991109902496,1.3352493449874152,22.97730960925212,0.40848750660092764,1695,0,9.385943910680934,10.534346495915266,112.23534464048397,0.12675198651431901,0.1422605289030057,0.1875,,
2.100079999999609,1200,,,,-0.0625,0.126953125,-1.00390625,0.059330991109902496,1.3352493449874152,22.977243069009496,0.4097985623430777,1696,0,9.41604117628754,10.534608215568946,111.8793771006259,0.12674883751386876,0.1418058098928008,0.1875,,
2.1075399999995716,1200,,,,0.125,0.203125,-1.109375,0.059330991109902496,1.3352493449874152,22.977308188014348,0.40913296457530324,1696,0,9.400774216922699,10.535675389184103,112.07242239919373,0.12673599894299883,0.14203610406723535,0.189453125,,
2.1150899999993853,1200,,,,-0.0625,0.0703125,-0.974609375,0.059330991109902496,1.3352493449874152,22.97715715688149,0.4087952595052624,1696,0,9.392952922640566,10.538063512690103,112.1911671386044,0.12670727818061517,0.14215437424039035,0.1875,,
2.123114999999758,1200,,,,-0.0625,-0.1484375,-0.912109375,0.059330991109902496,1.3352493449874152,22.977298856163294,0.4084438851677531,1696,0,9.384937215471906,10.539108213579398,112.29812167741238,0.12669471817994782,0.1422757887805725,0.189453125,,
2.1370449999999255,1200,,,,-0.25,0.09765625,-0.94921875,0.059330991109902496,1.3352493449874152,22.97708696020244,0.4080113097522428,1697,0,9.374911344923376,10.543500149363663,112.46506512376877,0.1266419430048571,0.1424279436744187,0.189453125,,
2.156504999999888,1200,,,,0.03125,0.0234375,-0.958984375,0.05842046236698301,1.3352493449874152,22.976937833511183,0.4075457652908888,1697,0,9.364153713399492,10.382485557283891,110.87478778170026,0.12860594292381786,0.1425915662914376,0.189453125,,
2.181069999999367,1200,,,,-0.01953125,0.08984375,-1.060546875,0.05842046236698301,1.3352493449874152,22.976751075736598,0.40702016667343965,1696,0,9.352001052460444,10.373802585230155,110.92602029274667,0.12871358732896027,0.14277686000004466,0.189453125,,
2.1890949999992735,1200,,,,-0.0625,0.05078125,-0.955078125,0.05842046236698301,1.3352493449874152,22.976720651178173,0.4061869656654894,1695,0,9.33284444224565,10.36984329229256,111.1112839870434,0.12876273125360016,0.14306992399266116,0.189453125,,
2.195864999999292,1200,,,,-0.25,-0.10546875,-0.828125,0.05842046236698301,1.3352493449874152,22.97681459454622,0.40754360113586596,1695,0,9.364053762492489,10.367857351819787,110.71975465741141,0.12878739547405613,0.14259308829854514,0.19140625,,
2.2031699999994596,1200,,,,0,0.07421875,-0.96875,0.05842046236698301,1.3352493449874152,22.97677908645254,0.40757455208136867,1695,0,9.364750444433454,10.367106876813052,110.70350393560582,0.12879671839535273,0.14258248021773043,0.189453125,,
2.2116199999991806,1200,,,,0.0625,0.10546875,-1.064453125,0.05842046236698301,1.3352493449874152,22.97683884909557,0.4082451590148882,1695,0,9.380183229608482,10.368745699306693,110.53883965270337,0.12877636154937205,0.14234789580364593,0.189453125,,
2.220469999999739,1200,,,,-0.25,0.109375,-0.984375,0.05842046236698301,1.3352493449874152,22.977013057552305,0.4080064914073789,1695,0,9.374770480633448,10.370486588504756,110.62123184699055,0.12875474391601668,0.1424300837813358,0.19140625,,
2.2284299999992365,1200,,,,-0.03125,-0.12109375,-0.93359375,0.05842046236698301,1.0893245225781858,22.976963157716916,0.40673370431086503,1695,0,9.345505338952472,10.371075467495917,110.9739397854584,0.10503486605533319,0.11656132900998235,0.19140625,,
2.2364849999998695,1200,,,,-0.0625,0.02734375,-0.90234375,0.05842046236698301,1.0893245225781858,22.97704693123215,0.4072348305291163,1695,0,9.357053813099876,10.371306370625497,110.83944345928273,0.10503252759589321,0.11641746903850561,0.189453125,,
2.2446899999999443,1200,,,,-0.09375,0.126953125,-0.998046875,0.05842046236698301,1.0893245225781858,22.97699607778526,0.40791787545531516,1695,0,9.372727424395272,10.37139674918605,110.65505566919025,0.10503161232007406,0.11622278908302605,0.189453125,,
2.2527499999995344,1200,,,,0,0.1484375,-0.994140625,0.05842046236698301,1.0893245225781858,22.97707793431456,0.40750956988329956,1695,0,9.36337914618758,10.371432780540344,110.76591707560199,0.10503124743015811,0.1163388244319593,0.189453125,,
2.2615299999993295,1200,,,,0.125,-0.0546875,-0.96875,0.05842046236698301,1.0893245225781858,22.977019427735016,0.40802306839952523,1695,0,9.375153969579944,10.372146940695162,110.6344170383784,0.10502401564561493,0.11619270745982138,0.189453125,,
2.2687549999994228,1200,,,,-0.09375,-0.109375,-0.91796875,0.05842046236698301,1.0893245225781858,22.977164071607287,0.40803419749817516,1696,0,9.375468702742182,10.373708439538039,110.64735821158345,0.10500820694230881,0.11618880688701727,0.189453125,,
2.2774699999997394,1200,,,,-0.125,0.072265625,-1.044921875,0.05842046236698301,1.0893245225781858,22.977172626652024,0.40913144732719187,1696,0,9.400683892228876,10.374339692042609,110.35728688440007,0.10500181745675112,0.11587715692458092,0.189453125,,
2.2853899999996647,1200,,,,-0.0625,0.203125,-1.080078125,0.05842046236698301,1.0893245225781858,22.977408908841543,0.40876971998717987,1696,0,9.39246900569809,10.37391976005647,110.44933716324184,0.10500606788694268,0.11597850596231192,0.19140625,,
2.294424999999348,1200,,,,0.0625,0.1328125,-0.92578125,0.05842046236698301,1.0893245225781858,22.977478089474857,0.40874131283243514,1695,0,9.391844559870467,10.372339675129453,110.43985671833254,0.10502206413372114,0.11598621715191693,0.19140625,,
2.3020949999997393,1200,,,,-0.0625,-0.083984375,-0.873046875,0.05842046236698301,1.0893245225781858,22.977405817273624,0.40903609709287225,1695,0,9.398588396816661,10.371805482858102,110.35492826104687,0.10502747321848215,0.1159029927246462,0.19140625,,
2.309694999999832,1200,,,,0.125,-0.078125,-0.94140625,0.051735002320970225,1.0893245225781858,22.977635998804242,0.4097612561952851,1695,0,9.41534499126803,9.184711782264763,97.55045397468535,0.118601927681783,0.11569671887630734,0.19140625,,
2.317454999999609,1200,,,,0,0.103515625,-1.0625,0.051735002320970225,1.0893245225781858,22.977848568082653,0.4096878540580461,1695,0,9.413745470728529,9.184631355210433,97.56617473639466,0.118602966243192,0.11571637728737987,0.19140625,,
2.3283149999994786,1200,,,,-0.125,0.064453125,-1.00390625,0.051735002320970225,1.0893245225781858,22.97775755324582,0.40961708049901085,1695,0,9.412081965374648,9.184599193662416,97.5830770221817,0.1186033815530943,0.11573682917186803,0.189453125,,
2.336464999999851,1200,,,,-0.09375,-0.037109375,-0.896484375,0.051735002320970225,1.0893245225781858,22.977907344594247,0.4101776564403566,1695,0,9.425024184509326,9.183569191599354,97.43814988499638,0.11861668375892921,0.11557790210963759,0.19140625,,
2.344379999999888,1200,,,,0.125,0.015625,-0.984375,0.051735002320970225,1.0893245225781858,22.977814948289655,0.4090302376818493,1695,0,9.398621109708468,9.182427141265089,97.69972673736089,0.11863143652758745,0.11590258931205866,0.189453125,,
2.352489999999758,1200,,,,-0.09375,0.1953125,-1.0234375,0.051735002320970225,1.0893245225781858,22.978022680607538,0.4106065684584864,1695,0,9.434927042845533,9.181967860560452,97.31890685390196,0.11863737045488801,0.11545659204691106,0.189453125,,
2.3606049999995156,1200,,,,-0.0625,0.06640625,-0.994140625,0.051735002320970225,1.0893245225781858,22.977989405479107,0.4100729850389242,1695,0,9.422652705697592,9.182227276728364,97.44843159905649,0.118634018713411,0.1156069905791502,0.189453125,,
2.368179999999702,1200,,,,0.1875,-0.15234375,-0.96484375,0.051735002320970225,1.0893245225781858,22.977890797432526,0.40933671320458553,1695,0,9.405694295394923,9.182774664722972,97.62995028680558,0.11862694690342254,0.11581542928856667,0.189453125,,
2.377089999999851,1200,,,,-0.09375,-0.0703125,-0.935546875,0.051735002320970225,0.9897513261416881,22.97779928097554,0.4118089237478343,1695,0,9.462462791992298,9.182985904018402,97.04646777358631,0.10778099155184163,0.10459764523240977,0.19140625,,
2.384479999999516,1200,,,,-0.15625,0.1875,-1.015625,0.051735002320970225,0.9897513261416881,22.97771036036558,0.4105581511564343,1695,0,9.433686283359739,9.1833661539058,97.34652900324357,0.10777652873186752,0.10491670980065657,0.19140625,,
2.39318499999959,1200,,,,0.0625,0.1640625,-1.1171875,0.051735002320970225,0.9897513261416881,22.97772466587988,0.4107652505369081,1695,0,9.438450829148241,9.184101832647567,97.30518279848232,0.10776789545422161,0.10486374766980766,0.19140625,,
2.401359999999404,1200,,,,-0.03125,0.1171875,-0.98828125,0.051735002320970225,0.9897513261416881,22.97777074291707,0.40958278636043943,1695,0,9.411299365235358,9.184389740767536,97.5889660326181,0.10776451719469116,0.10516627808034203,0.19140625,,
2.4104199999994598,1200,,,,-0.1875,-0.078125,-0.91796875,0.051735002320970225,0.9897513261416881,22.97774440647995,0.40871545431794926,1695,0,9.39135924429617,9.184516224967386,97.79751776129307,0.10776303311992927,0.10538957145557097,0.19140625,,
2.4185449999999253,1200,,,,0.03125,-0.08203125,-0.970703125,0.051735002320970225,0.9897513261416881,22.977856378317362,0.40933883001075244,1695,0,9.405728846055535,9.183668918973448,97.63909920521245,0.10777297558025674,0.10522856254321625,0.19140625,,
2.428854999999516,1200,,,,0,0.11328125,-1.06640625,0.051735002320970225,0.9897513261416881,22.978046636717153,0.40880489511649254,1695,0,9.39353794530503,9.183321478902169,97.76211617361989,0.10777705304290502,0.10536512780430873,0.19140625,,
2.4366449999995528,1200,,,,-0.09375,0.126953125,-0.96484375,0.051735002320970225,0.9897513261416881,22.977762868201875,0.410861963531561,1695,0,9.440688769592015,9.183190463873949,97.27246271959038,0.10777859067992795,0.10483888943883285,0.19140625,,
2.4445649999994785,1200,,,,-0.125,0.009765625,-0.875,0.051735002320970225,0.9897513261416881,22.97787272149678,0.40881576989440827,1695,0,9.393716727174429,9.183151304656636,97.7584439830013,0.10777905027436499,0.10536312248787591,0.19140625,,
2.453489999999758,1200,,,,0.0625,0.046875,-0.98046875,0.051735002320970225,0.9897513261416881,22.977845819386093,0.41008963877175325,1695,0,9.422976491825084,9.183135711761484,97.45472377786706,0.10777923328237918,0.1050359540852456,0.189453125,,
2.46055999999959,1200,,,,0.03125,0.078125,-1.076171875,0.051592733545131844,0.9897513261416881,22.97776675988806,0.410569112370741,1695,0,9.433961302869157,9.158148525798937,97.0763842651513,0.10807329924312888,0.10491365126128664,0.189453125,,
2.4686749999993483,1200,,,,-0.09375,0.03515625,-0.97265625,0.051592733545131844,0.9897513261416881,22.977580368788942,0.4101317369987023,1695,0,9.423834948678692,9.158862492431469,97.18827358829778,0.1080648745365028,0.1050263859173871,0.189453125,,
2.4787799999997953,1200,,,,-0.0625,-0.16796875,-0.921875,0.051592733545131844,0.9897513261416881,22.977503088892632,0.4100396919571298,1695,0,9.421688288513533,9.159140091173056,97.21336357879126,0.10806159926471066,0.10505031538225958,0.189453125,,
2.4872849999996833,1200,,,,-0.03125,-0.017578125,-0.9140625,0.051592733545131844,0.9897513261416881,22.977492928664134,0.4109813991981906,1695,0,9.443322193888916,9.159018952715375,96.98937264517436,0.108063028502442,0.10480965340589445,0.189453125,,
2.495234999999404,1200,,,,-0.0625,0.212890625,-1.03125,0.051592733545131844,0.9897513261416881,22.97755805133625,0.4108301971885981,1695,0,9.43987470514293,9.158280647877483,97.01697251223014,0.10807174012199247,0.10484793040764223,0.189453125,,
2.503484999999404,1200,,,,-0.0625,0.11328125,-0.96484375,0.051592733545131844,0.9897513261416881,22.97761359006246,0.4109183290139653,1695,0,9.441922581157046,9.1580310831637,96.99328716632458,0.108074685175645,0.10482518974651459,0.1875,,
2.5116549999993296,1200,,,,-0.0625,-0.15625,-0.919921875,0.051592733545131844,0.9897513261416881,22.977536562852787,0.4101687005934932,1695,0,9.424666314824808,9.157936478052962,97.1698750081763,0.1080758016299449,0.10501712135790202,0.1875,,
2.5196599999996834,1200,,,,0.125,-0.15625,-1.0078125,0.051592733545131844,0.9897513261416881,22.97765958116201,0.40974814896976497,1695,0,9.415053481038518,9.15789747611558,97.26867186213187,0.10807626190651587,0.10512434455470715,0.189453125,,
2.5277199999992734,1200,,,,-0.25,0.140625,-1.03515625,0.051592733545131844,1.1817439247997197,22.977838847871794,0.41115792298035697,1695,0,9.447520495268325,9.157882487217282,96.93424313611064,0.12904117588855465,0.12508508718150776,0.189453125,,
2.536709999999497,1200,,,,-0.03125,0.18359375,-1.02734375,0.051592733545131844,1.1817439247997197,22.977847702465954,0.40957285721038894,1695,0,9.411102736044151,9.157876192291583,97.30927872264404,0.1290412645886634,0.12556912382580707,0.189453125,,
2.5445299999993294,1200,,,,0.03125,0.021484375,-0.923828125,0.051592733545131844,1.1817439247997197,22.97788791815586,0.40908298700831525,1695,0,9.399863024701478,9.15787405337985,97.42561172768458,0.12904129472752243,0.12571927076961315,0.189453125,,
2.5538249999997205,1200,,,,-0.0625,-0.0546875,-0.908203125,0.051592733545131844,1.1817439247997197,22.977784516369116,0.4087990888475497,1695,0,9.39329737402703,9.157873158572784,97.49369996413392,0.12904130733602448,0.12580714500397963,0.189453125,,
2.561564999999944,1200,,,,-0.125,0.02734375,-1.03125,0.051592733545131844,1.1817439247997197,22.97782804005114,0.40962724067870654,1695,0,9.41234429683596,9.15816627147169,97.29952477992423,0.12903717728743716,0.1255525602901047,0.189453125,,
2.5697849999992175,1200,,,,0.03125,0.091796875,-1.0625,0.051592733545131844,1.1817439247997197,22.97773983674072,0.4105041362635637,1695,0,9.432457244970129,9.158859684245368,97.09940311819958,0.12902740794604586,0.12528484297449494,0.189453125,,
2.577679999999702,1200,,,,-0.0625,0.01171875,-0.939453125,0.051592733545131844,1.1817439247997197,22.97778528381571,0.4103939843870516,1695,0,9.429944855015288,9.159138891802602,97.12823386163643,0.12902347466936837,0.12531822221327338,0.189453125,,
2.585679999999236,1200,,,,-0.09375,0.03515625,-0.892578125,0.051592733545131844,1.1817439247997197,22.977895624447992,0.41126032934664614,1695,0,9.44989692220334,9.159250225832093,96.92434003498653,0.12902190634194205,0.12505363122248575,0.189453125,,
2.594004999999888,1200,,,,-0.0625,0.09765625,-1.046875,0.051592733545131844,1.1817439247997197,22.977804326848467,0.41174302771290805,1695,0,9.460950723731347,9.158423723038021,96.80236152235227,0.12903354993578667,0.12490752349396514,0.189453125,,
2.602464999999851,1200,,,,0.03125,0.15625,-1.076171875,0.051592733545131844,1.1817439247997197,22.977852169285768,0.41010840144056104,1695,0,9.423410221683314,9.158068975968387,97.18423331391882,0.12903854818092375,0.1254051237290425,0.189453125,,
2.6110699999998324,1200,,,,-0.1875,0.0859375,-0.9453125,0.0560146456819088,1.1817439247997197,22.97795853847584,0.4108757693575206,1695,0,9.44108639276147,9.94285948821516,105.31478131413353,0.11885352761953337,0.12517033269664485,0.189453125,,
2.619904999999795,1200,,,,0,-0.138671875,-0.951171875,0.0560146456819088,1.1817439247997197,22.977740290984148,0.4110902406992709,1695,0,9.445924786946009,9.944829072101317,105.28168809733462,0.11882998855303807,0.125106217914508,0.189453125,,
2.629869999999646,1200,,,,-0.03125,0.025390625,-0.970703125,0.0560146456819088,1.1817439247997197,22.97778618671264,0.41760476839465366,1695,0,9.595633078724003,9.94549443774706,103.64604769849726,0.11882203868261562,0.12315434688931065,0.189453125,,
2.6386849999995903,1200,,,,-0.09375,0.236328125,-1.04296875,0.0560146456819088,1.1817439247997197,22.977208276284927,0.4289872065561664,1697,0,9.856928392902699,9.953477106592636,100.97950101534121,0.11872674364388677,0.1198896733033602,0.189453125,,
2.6475949999997392,1200,,,,-0.0625,0.15625,-0.986328125,0.0560146456819088,1.1817439247997197,22.976941768315637,0.43009140499866183,1700,0,9.88218516770731,9.969325095611701,100.88178805016877,0.1185380066821073,0.11958326065993835,0.189453125,,
2.655834999999963,1200,,,,-0.0625,-0.068359375,-0.890625,0.0560146456819088,1.1817439247997197,22.97710440231003,0.42569829513492635,1701,0,9.78131417120059,9.975488958908382,101.98516052453878,0.11846476194476567,0.120816477634382,0.189453125,,
2.6633149999994785,1200,,,,0.1875,-0.12109375,-1.02734375,0.0560146456819088,1.1817439247997197,22.97718062910079,0.42294384595162554,1705,0,9.71805714439708,10.00397027283835,102.94208116080192,0.11812749264242191,0.12160289934918228,0.189453125,,0.223339999999851,5003,
2.6715149999996646,1200,,,,-0.03125,0.142578125,-1.0390625,0.0560146456819088,1.1817439247997197,22.977517774221283,0.42125219742454717,1710,0,9.679329853752305,10.028599133933472,103.60840353059947,0.11783738775649015,0.12208943621666153,0.19140625,,
2.680064999999944,1500,,,,-0.125,0.03125,-1.046875,0.0560146456819088,1.2612748298571954,22.977787236475862,0.41648715613322973,1711,0,9.569953260354255,10.038537089707598,104.89640666579385,0.1256432903107333,0.13179529675263077,0.189453125,,
2.6889149999995716,1500,,,,-0.0625,-0.0546875,-0.896484375,0.0560146456819088,1.2612748298571954,22.977901043760625,0.4140561583493233,1710,0,9.51414143311043,10.03329566635523,105.45665877362383,0.12570892673746706,0.1325684339175154,0.189453125,,
2.6964849999998695,1500,,,,-0.0625,0.009765625,-0.95703125,0.0560146456819088,1.2612748298571954,22.97793901142777,0.41333933193334177,1707,0,9.497685960188626,10.013840067165857,105.43452488470129,0.12595316296220463,0.13279811894645402,0.189453125,,
2.7129099999996833,1500,,,,-0.53125,0.41015625,-0.87109375,0.0560146456819088,1.2612748298571954,22.931865018611564,1.5142528735073304,1742,0,34.72464249931479,10.218853787197078,29.428247641134746,0.12342625270139515,0.036322183299139325,0.20703125,,
2.7212299999995158,1500,,,,1.125,-1.98046875,-1.22265625,0.0560146456819088,1.2612748298571954,22.90509429784396,2.287199812957277,1773,0,52.38852739379749,10.402331518788365,19.856125064549808,0.12124924374685814,0.02407540147819699,0.22265625,,
2.7284649999993853,1500,,,,-0.3125,0.560546875,-0.7265625,0.0560146456819088,1.2612748298571954,22.8875130774432,2.919699032793426,1904,0,66.8246497952578,11.17022539310489,16.715726049188486,0.11291399998389916,0.018874394908489318,0.234375,,
2.7368549999995158,1500,,,,-0.4375,-0.12109375,-1.06640625,0.0560146456819088,1.2612748298571954,22.872524653874297,3.369727346951074,2218,0,77.07417181997286,13.010648557633681,16.8806855142388,0.09694173386284984,0.01636442922543802,0.23828125,,
2.7467749999994413,1500,,,,0.0625,0.203125,-0.83984375,0.0560146456819088,1.2612748298571954,22.857841866983076,3.771938084501407,2357,0,86.21836426758422,13.82289675697418,16.032427516339713,0.09124533388566576,0.01462884201726152,0.23828125,,
2.754799999999348,1500,,,,-0.01953125,0.076171875,-1.08984375,0.0560146456819088,1.2612748298571954,22.84986848317489,4.023680982945973,2706,0,91.94058127856736,15.870065342434017,17.261219280689442,0.07947508738257984,0.013718369106626655,0.2421875,,
2.762829999999609,1500,,,,0.0625,0.19140625,-1.0078125,0.06318110758576286,1.2612748298571954,22.84354207813407,4.1968469685628245,3027,0,95.8708503218543,20.030446300755933,20.893155983816154,0.06296788453533339,0.013155978335676456,0.2421875,,
2.770879999999888,1500,,,,-0.09375,-0.119140625,-0.80078125,0.06318110758576286,1.2612748298571954,22.83962210694995,4.327909001758671,3209,0,98.84780611343504,21.229633068915863,21.477090796080304,0.059411051795517686,0.012759765537029632,0.2421875,,
2.781869999999646,1500,,,,-0.03125,0.5703125,-1.05078125,0.06318110758576286,1.2612748298571954,22.836907545520894,4.413837340367168,3332,0,100.79839526293286,22.047177147627906,21.872547762410097,0.05720799635307953,0.012512846326245147,0.248046875,,
2.7901549999993294,1500,,,,-0.25,-0.34765625,-0.841796875,0.06318110758576286,1.2612748298571954,22.83489787946979,4.483639521711545,3510,0,102.38345060663791,23.223082044071724,22.68245688777956,0.05431125926625952,0.012319127968279497,0.25390625,,
2.797979999999516,1500,,,,0.4375,0.4921875,-1.203125,0.06318110758576286,1.2612748298571954,22.8342594562363,4.501205873109746,3613,0,102.78170277252259,23.90308832808814,23.25617078069885,0.05276618705270362,0.01227139457543976,0.2578125,,
2.806989999999292,1500,,,,-0.21875,-0.369140625,-0.81640625,0.06318110758576286,1.2612748298571954,22.833972552466516,4.507569665766569,3672,0,102.9257220264445,24.295080752135963,23.604479301970674,0.0519148235284753,0.012254223774433554,0.259765625,,
2.8159749999996273,1500,,,,0.15625,0.36328125,-1.029296875,0.06318110758576286,1.2612748298571954,22.834083354139615,4.502237962300872,3735,0,102.8044769113498,24.710265884494905,24.036176854246364,0.05104254384606258,0.012268676109745844,0.26171875,,
2.8239399999994785,1500,,,,-0.375,-0.064453125,-0.900390625,0.06318110758576286,1.3816375446753812,22.834996899011347,4.486645418505927,3778,0,102.45253421854632,24.99640775774598,24.39803753846144,0.05527344401105932,0.01348563561861872,0.265625,,
2.8319999999995344,1500,,,,0.4375,0.2890625,-1.16796875,0.06318110758576286,1.3816375446753812,22.836045799537303,4.463743735535318,3818,0,101.93425638208225,25.259317766346886,24.78000886342553,0.054698133871063766,0.013554202421377963,0.267578125,,
2.8402949999999256,1500,,,,-0.375,-0.03515625,-0.892578125,0.06318110758576286,1.3816375446753812,22.837034580575324,4.434233414748453,3840,0,101.26474183095303,25.405941100090324,25.088634642946012,0.05438245878128361,0.013643816393486956,0.26953125,,
2.8489749999996277,1500,,,,0.28125,0.076171875,-1.12109375,0.06318110758576286,1.3816375446753812,22.83827510192217,4.391896431257384,3868,0,100.30333891620634,25.591123790717255,25.513730716478083,0.05398893600665348,0.013774591749429245,0.275390625,,
2.857214999999851,1500,,,,-0.75,0.24609375,-0.8984375,0.06318110758576286,1.3816375446753812,22.839472717570608,4.354849654432322,3887,0,99.46246987152881,25.71557773923095,25.854553755247185,0.05372764939158239,0.013891043993377403,0.279296875,,
2.865774999999441,1500,,,,0.25,-0.15625,-0.87109375,0.06318110758576286,1.3816375446753812,22.841095609504578,4.30725412390938,3904,0,98.38240325864703,25.827411392193703,26.25206392274594,0.05349500666926997,0.014043543346293956,0.28125,,
2.874239999999292,1500,,,,0.03125,0.240234375,-1.158203125,0.06318110758576286,1.3816375446753812,22.842429628762346,4.265998794642632,3914,0,97.44577726300932,25.892944368862164,26.57164332424202,0.053359615074787876,0.01417852659686111,0.287109375,,
2.882979999999516,1500,,,,-0.375,-0.03125,-0.861328125,0.06318110758576286,1.3816375446753812,22.84427490804954,4.220594078182594,3923,0,96.41641139728911,25.954553416629825,26.919227795860046,0.05323295386735981,0.014329900114019677,0.291015625,,
2.891149999999907,1500,,,,0.5,0.12890625,-1.1953125,0.06318110758576286,1.3816375446753812,22.845839388153735,4.178541800938476,3932,0,95.46229486092707,26.012135786268104,27.24859676185611,0.05311511350039748,0.014473123097325504,0.294921875,,
2.8999299999992365,1500,,,,-0.34375,-0.076171875,-0.896484375,0.06318110758576286,1.3816375446753812,22.84726653586532,4.134486791545277,3934,0,94.46172171544958,26.03186269834337,27.558107374710023,0.053074862935694064,0.01462642771679874,0.296875,,
2.908869999999646,1500,,,,0.46875,0.115234375,-1.03125,0.06318110758576286,1.3816375446753812,22.84878171705876,4.090684499289533,3945,0,93.46715719762234,26.100813039184047,27.925117037632564,0.0529346554301273,0.014782064482330569,0.302734375,,
2.917124999999534,1500,,,,-0.15625,0.01171875,-0.822265625,0.13160105328338373,1.3816375446753812,22.850111769886546,4.051357625427949,3948,0,92.57397456081078,54.41394914520677,58.77888402583695,0.02539123820968042,0.014924686459992051,0.306640625,,
2.928929999999702,1500,,,,-0.3125,0.01171875,-0.89453125,0.13160105328338373,1.3816375446753812,22.85138108004661,4.005939337307788,3951,0,91.54124638036964,54.447896031900484,59.479085313804994,0.025375407414565544,0.015093060224835036,0.3125,,
2.9407949999999254,1500,,,,0.34375,0.126953125,-1.078125,0.13160105328338373,1.3816375446753812,22.85323770633876,3.9533270760819303,3956,0,90.34632340060553,54.51232736359374,60.337073288395025,0.025345414725369313,0.015292681458093748,0.31640625,,
2.949204999999609,1500,,,,-0.5,0.2265625,-1.017578125,0.13160105328338373,1.3816375446753812,22.854618775939862,3.909457183240902,3958,0,89.34915354383048,54.54943684206091,61.05199062160285,0.025328172473635058,0.015463353483227069,0.32421875,,
2.9579899999997576,1500,,,,-0.0625,-0.0859375,-0.81640625,0.13160105328338373,1.3816375446753812,22.855654557074637,3.8780227973582075,3959,0,88.63474942087944,54.55983941459102,61.55581165521804,0.025323343314421265,0.015587989515429404,0.328125,,
2.9654549999996087,1500,,,,0.0625,0.23828125,-1.3984375,0.13160105328338373,1.3816375446753812,22.856761883675862,3.8491119543628796,3962,0,87.97823540448258,54.59994164716434,62.06073740413123,0.02530474397946791,0.01570431071188529,0.33203125,,
2.9736450000000185,1500,,,,-0.09375,-0.16796875,-0.845703125,0.13160105328338373,3.9067126613890686,22.85776378216071,3.8197968502762305,3963,0,87.31201409945558,54.615031317789395,62.5515650750862,0.07153182131594898,0.044744273759840206,0.337890625,,
2.983769999999553,1500,,,,0.34375,0.103515625,-1.06640625,0.13160105328338373,3.9067126613890686,22.859124124218685,3.7799456507473495,3965,0,86.40624681323423,54.641093934614915,63.23743473399649,0.07149770218846556,0.045213312757738086,0.341796875,,
2.991889999999665,1500,,,,-0.5625,0.064453125,-0.91015625,0.13160105328338373,3.9067126613890686,22.86013262910354,3.7501791157209254,3966,0,85.72959196827459,54.65788559837089,63.75614807381539,0.0714757370985004,0.045570176781370916,0.34765625,,
2.999964999999851,1500,,,,0.75,0.05859375,-1.09375,0.13160105328338373,3.9067126613890686,22.861117614325874,3.7217781667414864,3967,0,85.08400840430726,54.66354443141773,64.24655520654863,0.07146833784791488,0.04591594513066332,0.3515625,,
3.0094549999996087,1500,,,,-0.46875,0.0234375,-0.90625,0.13160105328338373,3.9067126613890686,22.86215992414739,3.694853531382945,3965,0,84.47233233077763,54.639878211813915,64.6837570411274,0.07149929299337975,0.04624842896596158,0.353515625,,
3.0179099999996835,1500,,,,0.09375,-0.01171875,-1.017578125,0.13160105328338373,3.9067126613890686,22.86305944834026,3.6683100343361668,3966,0,83.86879038997088,54.65731964740006,65.17003451850908,0.07147647719631461,0.04658124486145251,0.359375,,
3.0262649999996647,1500,,,,0.28125,0.10546875,-1.10546875,0.13160105328338373,3.9067126613890686,22.8641045945363,3.6440236686102003,3966,0,83.31733830406951,54.655098497528584,65.59870923632116,0.07147938195675788,0.046889551933732995,0.359375,,
3.0352649999996646,1500,,,,-0.4375,-0.02734375,-0.8984375,0.13160105328338373,3.9067126613890686,22.864944444027124,3.6212760220070215,3966,0,82.80027505967809,54.6583151481429,66.01223861726069,0.07147517538366358,0.047182363326369575,0.36328125,,
3.0427999999993482,1500,,,,0.03125,0.1484375,-1.021484375,0.13160105328338373,3.9067126613890686,22.865764783134892,3.598492886490777,3967,0,82.28229191628223,54.663978268947325,66.43468113961258,0.07146777064354891,0.04747938554463137,0.3671875,,
3.0512549999994225,1500,,,,-0.59375,0.08203125,-0.93359375,0.13160105328338373,3.9067126613890686,22.86626773100208,3.583132312690269,3966,0,81.93286277758035,54.653654981476414,66.7054135894682,0.07148126987505517,0.047681876709159486,0.37109375,,
3.059179999999702,1500,,,,0.28125,-0.033203125,-0.927734375,0.13160105328338373,3.9067126613890686,22.86695395778795,3.562747770049336,3966,0,81.46918922092986,54.66192443607443,67.09521103473986,0.07147045592874907,0.04795325323288493,0.375,,
3.068144999999553,1500,,,,-0.8125,0.32421875,-1.19140625,0.159107356854884,3.9067126613890686,22.867367994960357,3.543708489630949,3966,0,81.03528609925607,66.08323619293738,81.54871707615781,0.05911805907905275,0.04821001873929255,0.37890625,,
3.0767599999997763,1500,,,,0.40625,-0.1328125,-0.904296875,0.159107356854884,3.9067126613890686,22.867919063564162,3.5270427386800947,3966,0,80.65612788186809,66.07922552579033,81.92709873522863,0.05912164723940812,0.048436650307723456,0.384765625,,
3.084144999999553,1500,,,,0.03125,0.14453125,-1.109375,0.159107356854884,3.9067126613890686,22.86826629684985,3.5127650417973304,3966,0,80.33084641408624,66.08715238490392,82.2687116282088,0.0591145558615636,0.04863278349204617,0.390625,,
3.0942149999993855,1500,,,,0.0625,-0.28515625,-0.8828125,0.159107356854884,3.9067126613890686,22.868841359887238,3.4967508055642575,3966,0,79.9666394475069,66.07607364825768,82.62954915297207,0.05912446738566287,0.048854280839869244,0.390625,,
3.102944999999367,1500,,,,0.01953125,0.078125,-0.98828125,0.159107356854884,3.9067126613890686,22.86940484317445,3.4801747897752016,3965,0,79.58952619237861,66.05825623417513,82.99868009579981,0.05914041459919642,0.049085763520516724,0.396484375,,
3.1111349999993108,1500,,,,-0.9375,-0.01171875,-0.92578125,0.159107356854884,3.9067126613890686,22.86966494901766,3.468209498278444,3966,0,79.31678919862867,66.07957915558508,83.31096079810496,0.05912133084550481,0.04925454876401644,0.400390625,,
3.1200749999997206,1500,,,,0.46875,0.0390625,-1.072265625,0.159107356854884,5.398991731726291,22.870349897209948,3.452307940063275,3966,0,78.9554905421632,66.08317570609948,83.6967451564502,0.08169994365491674,0.06838019363381907,0.40234375,,
3.1281699999999253,1500,,,,-0.6875,-0.09765625,-0.73046875,0.159107356854884,5.398991731726291,22.870756093996757,3.4405763023567135,3966,0,78.68858143398563,66.0745209767597,83.96964308244867,0.08171064507036337,0.06861213702595055,0.404296875,,
3.1374099999996834,1500,,,,0.34375,0.107421875,-1.095703125,0.159107356854884,5.398991731726291,22.871154806270344,3.429549357831991,3965,0,78.4377542787205,66.07087969763711,84.23351778132381,0.08171514828369048,0.06883154395957752,0.404296875,,
3.145119999999646,1500,,,,-0.28125,0.103515625,-0.861328125,0.159107356854884,5.398991731726291,22.871523266601027,3.4182519595880207,3965,0,78.18062922482197,66.06965104863713,84.50897837959627,0.08171666788056481,0.06905792119171301,0.408203125,,
3.1532399999992924,1500,,,,-0.34375,-0.029296875,-0.912109375,0.159107356854884,5.398991731726291,22.871938789215406,3.406650294923247,3967,0,77.91669702174711,66.09139271041732,84.82314476442802,0.08168978607217793,0.06929184549775504,0.41015625,,
3.1617349999994038,1500,,,,0.125,0.421875,-1.2578125,0.159107356854884,5.398991731726291,22.872205508861526,3.3996109072597456,3968,0,77.75659932101209,66.107456479594,85.01845123997064,0.08166993587770008,0.06943451461189772,0.4140625,,
3.168769999999553,1500,,,,-0.1875,-0.03515625,-0.806640625,0.159107356854884,5.398991731726291,22.872456135060652,3.393204149978085,3966,0,77.61091307767951,66.08412525267825,85.14798065387494,0.08169876972847546,0.06956485264285613,0.416015625,,
3.176999999999534,1500,,,,0.40625,0.01171875,-1.08984375,0.159107356854884,5.398991731726291,22.87262947369795,3.385404267118379,3966,0,77.43309742047464,66.07488786420008,85.33158308959592,0.08171019136381326,0.06972459983628014,0.419921875,,
3.1850399999995718,1500,,,,-0.6875,-0.17578125,-0.8515625,0.159107356854884,5.398991731726291,22.872859242892428,3.375668086431503,3966,0,77.2111809916718,66.08602464174673,85.59126255156613,0.08169642161098811,0.06992499871629525,0.423828125,,
3.1941249999995343,1500,,,,0.375,0.111328125,-1.068359375,0.159107356854884,5.398991731726291,22.87281210495167,3.3639388360945675,3968,0,76.94274093054085,66.1064020233514,85.9163596511699,0.08167123858622881,0.0701689550753094,0.423828125,,
3.2023399999993853,1500,,,,-0.8125,-0.13671875,-0.859375,0.159107356854884,5.398991731726291,22.872903444736295,3.3592438030356107,3968,0,76.83565915416227,66.11330857847075,86.04508545416614,0.08166270676528246,0.0702667458203724,0.427734375,,
3.212009999999311,1500,,,,0.28125,0.19921875,-0.9765625,0.16341159763449703,5.398991731726291,22.87329177851309,3.3485823109582187,3968,0,76.59310024291499,67.8940561281791,88.642522515544,0.07952083053534734,0.07048927011184285,0.4296875,,
3.2202549999994226,1500,,,,-0.59375,0.06640625,-0.90625,0.16341159763449703,5.398991731726291,22.87355375938464,3.3429211098208573,3968,0,76.46448571886916,67.89664067534224,88.79500076018607,0.07951780350286199,0.07060783422484958,0.435546875,,
3.228174999999348,1500,,,,-0.0625,0.056640625,-1.033203125,0.16341159763449703,5.398991731726291,22.87360877102429,3.339037065190755,3968,0,76.37582750112246,67.8949566030691,88.89587036169434,0.0795197758692173,0.07068979686860931,0.4375,,
3.2363349999994973,1500,,,,0.3125,0.11328125,-1.080078125,0.16341159763449703,5.398991731726291,22.873531345242974,3.3352204256968383,3967,0,76.28826895047125,67.8867700538755,88.98716799820131,0.07952936525690657,0.07077092986906658,0.4375,,
3.2486599999996835,1500,,,,-0.5625,-0.1875,-0.98828125,0.16341159763449703,5.398991731726291,22.873775081276115,3.3290000859728166,3967,0,76.14679921209105,67.88301055131103,89.14755610703615,0.07953376975886081,0.07090241201982139,0.44140625,,
3.2585499999998135,1500,,,,-0.01953125,-0.033203125,-1.015625,0.16341159763449703,5.398991731726291,22.874106652108335,3.3233693418491717,3966,0,76.01910476980504,67.8646314351172,89.27312632872939,0.07955530911396846,0.07102151160652424,0.443359375,,
3.281084999999497,1500,,,,0,0.02734375,-0.947265625,0.16341159763449703,6.072475093186185,22.874773210469705,3.3037619534693903,3968,0,75.57280542699067,67.90489266265007,89.85360842300818,0.08942617910250002,0.08035264879841834,0.44921875,,
3.2891349999997765,1500,,,,-0.25,-0.3359375,-0.65234375,0.16341159763449703,6.072475093186185,22.874833295672108,3.2984268069566602,3966,0,75.45096334710965,67.87542100825385,89.95964795836368,0.08946500814260516,0.08048240637100901,0.453125,,
3.2971149999997578,1500,,,,0.15625,0.14453125,-1.181640625,0.16341159763449703,6.072475093186185,22.874955966561426,3.292705185605934,3968,0,75.32048613160421,67.90942562248031,90.16063107163849,0.08942020989757848,0.08062182554924052,0.455078125,,
3.305329999999609,1500,,,,-0.125,-0.21484375,-0.7109375,0.16341159763449703,6.072475093186185,22.875335545646003,3.2918334735015247,3969,0,75.30179526673678,67.91270526362891,90.1873654181365,0.0894158916157672,0.08064183691339684,0.45703125,,
3.313604999999516,1500,,,,-0.0625,0.189453125,-1.0546875,0.16341159763449703,6.072475093186185,22.875170648511396,3.2936309356831557,3968,0,75.34236970696846,67.89360511328346,90.11344529956288,0.08944104651762111,0.0805984085290131,0.462890625,,
3.321299999999348,1500,,,,-0.5625,-0.017578125,-0.9921875,0.16341159763449703,6.072475093186185,22.87495361132819,3.2963946196283946,3967,0,75.40487400863137,67.88622641726346,90.02896339233021,0.08945076805214724,0.08053159922382586,0.462890625,,
3.329329999999609,1500,,,,0.8125,0.13671875,-0.953125,0.16341159763449703,6.072475093186185,22.875103849296693,3.2904209587064734,3969,0,75.26872113831297,67.91377884855063,90.2284213435127,0.08941447812421026,0.08067727206401543,0.46875,,
3.3372799999993292,1500,,,,-0.40625,0.03125,-0.939453125,0.16341159763449703,6.072475093186185,22.875344660151427,3.287422668322526,3970,0,75.20092658147246,67.93221656735054,90.33428131201678,0.08939020983020193,0.08075000361341668,0.466796875,,
3.3452449999996463,1500,,,,0.5625,-0.044921875,-1.02734375,0.16341159763449703,6.072475093186185,22.875573023771096,3.2854301353570454,3970,0,75.15609697585825,67.94200596617888,90.40118992342472,0.08937733007484391,0.08079816990944584,0.470703125,,
3.3541049999995156,1500,,,,-0.9375,-0.12109375,-0.69140625,0.16341159763449703,6.072475093186185,22.87574368151987,3.2828195629224335,3970,0,75.09693887409269,67.93531786356235,90.4634980893995,0.08938612910271235,0.08086181919302035,0.474609375,,
3.3628949999995528,1500,,,,0.5,0.06640625,-1.07421875,0.16517247801110754,6.072475093186185,22.87575759239079,3.280875779178598,3970,0,75.05251901523587,68.66497961068895,91.48924048338706,0.08843627606991808,0.08090967728815944,0.4765625,,
3.3708549999995157,1500,,,,-0.3125,0.080078125,-0.88671875,0.16517247801110754,6.072475093186185,22.875704060338215,3.2813348757305425,3970,0,75.06284554007857,68.66414893485947,91.47554751064877,0.08843734594230593,0.08089854640461087,0.48046875,,
3.3780549999992364,1500,,,,-0.3125,-0.05859375,-0.884765625,0.16517247801110754,6.072475093186185,22.87554432897591,3.2773196245699525,3970,0,74.97047035207264,68.66862980939959,91.59423635322193,0.08843157508809013,0.0809982258970622,0.482421875,,
3.386269999999553,1500,,,,0.125,0.48046875,-1.34765625,0.16517247801110754,6.072475093186185,22.87563319742066,3.27321648487991,3971,0,74.87689968386344,68.68108440496813,91.7253314372596,0.08841553894782309,0.08109944614193007,0.484375,,
3.3941549999997953,1500,,,,-0.15625,-0.08203125,-0.79296875,0.16517247801110754,6.072475093186185,22.875651242082306,3.2674541246145803,3971,0,74.74514100418648,68.6859128046148,91.89348214724447,0.08840932361865901,0.08124240601601199,0.48828125,,
3.4058149999994787,1500,,,,0.1875,0.44140625,-1.3203125,0.16517247801110754,6.072475093186185,22.875932161117706,3.2625711102449193,3969,0,74.63435538878525,68.65691054685536,91.99102770997058,0.08844666974990062,0.08136300047817725,0.490234375,,
3.413854999999516,1500,,,,-0.0625,-0.2109375,-0.845703125,0.16517247801110754,6.072475093186185,22.875801479855916,3.259077799301119,3968,0,74.5540167442181,68.62587677558415,92.0485304112153,0.0884866668158426,0.08145067641385162,0.4921875,,
3.4208799999994226,1500,,,,0.3125,0.0703125,-1.044921875,0.16517247801110754,6.313225164337263,22.875811013718046,3.254454932023388,3968,0,74.44829597762964,68.63321299698315,92.1890986163151,0.09198498640322678,0.08480012982747479,0.494140625,,
3.4282199999997394,1500,,,,-0.8125,-0.19921875,-0.9453125,0.16517247801110754,6.313225164337263,22.876164094638135,3.2544053906973143,3969,0,74.44831174806669,68.65034652996977,92.21209308584827,0.0919620290857699,0.08480011186420501,0.498046875,,
3.437239999999292,1500,,,,0.28125,0.138671875,-0.953125,0.16517247801110754,6.313225164337263,22.876046073535264,3.2525686460567473,3967,0,74.40591020453036,68.61008201002873,92.2105271226845,0.09201599793182669,0.08484843673013584,0.498046875,,
3.445324999999255,1500,,,,-0.5,0.025390625,-0.896484375,0.16517247801110754,6.313225164337263,22.876043851198087,3.2499088685308863,3966,0,74.34505778891011,68.60397900780302,92.27779363974955,0.09202418366461217,0.08491788630069493,0.5,,
3.453334999999497,1500,,,,0.09375,0.033203125,-1.046875,0.16517247801110754,6.313225164337263,22.876235797202213,3.2491267007773255,3967,0,74.32778854196778,68.61436819159182,92.31321089668909,0.09201024990434731,0.08493761604077081,0.501953125,,
3.461304999999702,1500,,,,-0.1875,-0.0625,-0.875,0.16517247801110754,6.313225164337263,22.876224278634556,3.248158530658535,3968,0,74.30560303990472,68.62880428023941,92.36020094390906,0.09199089552191218,0.08496297595413954,0.5,,
3.470394999999553,1500,,,,0.0625,0.009765625,-1.09765625,0.16517247801110754,6.313225164337263,22.87628520864365,3.246654591561541,3967,0,74.27139641051427,68.61310051955341,92.38159484751543,0.09201194985406783,0.085002106725484,0.50390625,,
3.478494999999646,1500,,,,0.1875,0.07421875,-1.091796875,0.16517247801110754,6.313225164337263,22.876369464461376,3.246341970231043,3966,0,74.26451831899281,68.59752236784519,92.36917429827547,0.09203284530428699,0.08500997929077908,0.50390625,,
3.4875099999997765,1500,,,,-0.53125,-0.009765625,-0.853515625,0.16517247801110754,6.313225164337263,22.87642317137907,3.2439518973345787,3966,0,74.21001635102385,68.59643532759694,92.43554805745644,0.09203430373877457,0.08507241306180041,0.5078125,,
3.496109999999404,1500,,,,0.6875,0.3515625,-1.18359375,0.16517247801110754,6.313225164337263,22.876598334630216,3.2428155425003298,3966,0,74.18458863907603,68.60631922112769,92.48055489653274,0.09202104465025827,0.085101572714145,0.509765625,,
3.504394999999553,1500,,,,-0.4375,0,-0.876953125,0.16517247801110754,6.313225164337263,22.876675330054926,3.238034727511639,3967,0,74.07546916872663,68.61045593303862,92.62237108044502,0.0920154964499689,0.0852269345734039,0.509765625,,
3.512304999999702,1500,,,,0.6875,0.0859375,-1.2421875,0.16589290823296493,6.313225164337263,22.876707406352505,3.2393056335446153,3966,0,74.1046471783495,68.89573913850101,92.97087532538671,0.09163447904442674,0.08519337726746161,0.51171875,,
3.52118499999959,1500,,,,-0.375,-0.05078125,-0.8359375,0.16589290823296493,6.313225164337263,22.8764780276377,3.238401287919496,3966,0,74.08321590776397,68.89018079825848,92.99026770655989,0.09164187248724506,0.08521802255719345,0.513671875,,
3.529639999999665,1500,,,,0.40625,-0.046875,-0.978515625,0.16589290823296493,6.313225164337263,22.876597611113493,3.2348322443186945,3965,0,74.00195559273395,68.88784568273704,93.08922329277058,0.0916449789040119,0.08531159904856814,0.515625,,
3.5379099999996835,1500,,,,-0.09375,0.1953125,-0.99609375,0.16589290823296493,6.313225164337263,22.876638665972244,3.2311445685941984,3967,0,73.91772677324825,68.91995668380095,93.23873946397381,0.09160227992164617,0.08540881111920366,0.51953125,,
3.546154999999795,1500,,,,-0.0625,-0.02734375,-1.03125,0.16589290823296493,6.313225164337263,22.876607182272622,3.229345799550356,3966,0,73.8764753120356,68.89964466984298,93.2633079459033,0.09162928480385224,0.08545650205524549,0.517578125,,
3.556779999999795,1500,,,,-0.1875,0.111328125,-0.96875,0.16589290823296493,6.313225164337263,22.876773222839745,3.2282883789291192,3965,0,73.8528211426904,68.87630833551577,93.26158062728632,0.09166033019051742,0.08548387274386626,0.521484375,,
3.565174999999348,1500,,,,-0.28125,-0.044921875,-0.91796875,0.16589290823296493,6.313225164337263,22.8765889094764,3.2269209389893643,3964,0,73.82094376464126,68.86565810471842,93.28742575315555,0.0916745056692445,0.08552078641076885,0.521484375,,
3.5722899999995716,1500,,,,0.34375,0.115234375,-1.1328125,0.16589290823296493,6.422899113036912,22.87673663113009,3.2252434635890808,3965,0,73.78304528780122,68.87745071223249,93.35132542112655,0.09325111551923654,0.08705115230719315,0.5234375,,
3.582114999999292,1500,,,,-0.75,-0.08984375,-0.62109375,0.16589290823296493,6.422899113036912,22.87660179238954,3.228228792735228,3965,0,73.85090458613023,68.88296050660506,93.27300849276506,0.09324365657049588,0.08697116371196328,0.525390625,,
3.5896549999993295,1500,,,,0.40625,0.115234375,-1.126953125,0.16589290823296493,6.422899113036912,22.87680782037717,3.2251418499199733,3966,0,73.78095029407494,68.90249560633694,93.38792104426206,0.09321722031278937,0.08705362410536356,0.5234375,,
3.5974799999995155,1500,,,,-0.28125,0.095703125,-0.888671875,0.16589290823296493,6.422899113036912,22.876859455127658,3.227485261074969,3966,0,73.83472671110806,68.89348923614641,93.30770533722546,0.09322940649763177,0.08699021990245438,0.52734375,,
3.605489999999758,1500,,,,0.375,-0.1328125,-0.94921875,0.16589290823296493,6.422899113036912,22.876882686402887,3.227156073831431,3965,0,73.82727091175418,68.88927923675448,93.3114259622273,0.09323510398422205,0.086999005025043,0.52734375,,
3.613519999999553,1500,,,,-0.25,0.08984375,-1.01171875,0.16589290823296493,6.422899113036912,22.876839147830797,3.226839934817752,3965,0,73.81989814462253,68.88760845259999,93.3184821220431,0.09323736528691316,0.08700769405633207,0.529296875,,
3.6213099999995904,1500,,,,-0.15625,-0.162109375,-0.7734375,0.16589290823296493,6.422899113036912,22.876990442123493,3.224678282099537,3964,0,73.77093423851431,68.87172482411208,93.35888929024236,0.09325886827199438,0.08706544358338418,0.53125,,
3.629179999999702,1500,,,,0.375,0.146484375,-1.064453125,0.16589290823296493,6.422899113036912,22.876841578411504,3.229023490869451,3964,0,73.86985885358972,68.86520675925378,93.22504175315242,0.09326769518736447,0.08694884778062345,0.533203125,,
3.6374999999995343,1500,,,,-0.875,-0.125,-0.921875,0.16589290823296493,6.422899113036912,22.87673585754026,3.2319998762153643,3964,0,73.93760745978172,68.8626978075042,93.13622684499494,0.09327109331370093,0.08686917704945542,0.53515625,,
3.6475049999998883,1500,,,,0.28125,0.138671875,-1.025390625,0.16589290823296493,6.422899113036912,22.876316828867473,3.2312995923880448,3966,0,73.92023324445924,68.89621387786677,93.20345844962678,0.0932257195500303,0.08688959478517808,0.53515625,,
3.6565399999995716,1500,,,,-0.65625,0.138671875,-0.91796875,0.16589290823296493,6.422899113036912,22.876156023358654,3.2338906029437013,3967,0,73.9789859954135,68.92249567270521,93.16496400339716,0.09319017035508362,0.08682058866601816,0.5390625,,
3.664119999999646,1500,,,,0.875,0.078125,-1.09375,0.16566689076759997,6.422899113036912,22.87627995945254,3.2355970410593176,3969,0,74.0184237472492,68.85321746813682,93.02172889178237,0.09328393572906359,0.08677432979347403,0.541015625,,
3.6714449999998324,1500,,,,-0.5,0.005859375,-0.8203125,0.16566689076759997,6.422899113036912,22.876439602870235,3.234122258626257,3968,0,73.98520251776183,68.83350726676487,93.03685726918138,0.09331064721349895,0.08681329366497238,0.54296875,,
3.6795399999995717,1500,,,,0.15625,-0.005859375,-1.080078125,0.16566689076759997,6.422899113036912,22.87651614218266,3.2299594626583055,3967,0,73.89021978609836,68.82421343972982,93.14387430294036,0.09332324761926297,0.08692488845790809,0.54296875,,
3.6877349999998694,1500,,,,-0.375,-0.0859375,-0.84375,0.16566689076759997,6.422899113036912,22.876490649839862,3.227352641546142,3969,0,73.8305025280663,68.85156683137836,93.25626194296154,0.09328617210363534,0.0869951970135281,0.54296875,,
3.694859999999404,1500,,,,0.21875,0.0078125,-1.140625,0.16566689076759997,6.422899113036912,22.8762753239926,3.2272442610061356,3968,0,73.8273282525514,68.84682017719973,93.253842183867,0.0932926037325397,0.08699893745396298,0.546875,,
3.702659999999683,1500,,,,-0.5,0.14453125,-0.76953125,0.16566689076759997,6.422899113036912,22.87626326580912,3.2272450864248277,3967,0,73.82730822034326,68.83047985674344,93.23173432155158,0.09331475134860114,0.08699896106014428,0.548828125,,
3.7132899999995717,1500,,,,0.15625,-0.03515625,-1.03515625,0.16566689076759997,6.422899113036912,22.876057446015015,3.226931338451849,3965,0,73.81946667277062,68.79247957414523,93.19016063756031,0.0933662974906181,0.08700820261284944,0.55078125,,
3.7350799999996087,1500,,,,0.041015625,0.025390625,-0.953125,0.16566689076759997,6.4609847388378565,22.876259661059642,3.2330125693672476,3968,0,73.95923502431475,68.84411372524812,93.08386397265332,0.0938494867494871,0.08735872858492587,0.556640625,,
3.7429699999997394,1500,,,,-0.125,-0.40234375,-0.78125,0.16566689076759997,6.4609847388378565,22.87643679895853,3.233871003446376,3967,0,73.97944562632561,68.82868229405116,93.0375751147268,0.09387052785981168,0.08733486286816283,0.55859375,,
3.7502349999998694,1500,,,,-0.03125,0.18359375,-1.140625,0.16566689076759997,6.4609847388378565,22.876416706718736,3.232364481634829,3969,0,73.94491682987524,68.85238391021458,93.11307235441616,0.09383821404445718,0.08737564413930732,0.560546875,,
3.7581749999998135,1500,,,,-0.46875,-0.05859375,-0.90234375,0.16566689076759997,6.4609847388378565,22.87649351520737,3.2299110553428174,3969,0,73.88903931224655,68.862465287457,93.19713171049926,0.09382447624939587,0.08744172070683555,0.560546875,,
3.765644999999553,1500,,,,0.6875,0.2265625,-1.01171875,0.16566689076759997,6.4609847388378565,22.876531770163194,3.2275204059762848,3970,0,73.83447310616648,68.86634409383424,93.27126096614981,0.0938191917090067,0.08750634313524003,0.564453125,,
3.7727799999993294,1500,,,,-0.34375,-0.0703125,-0.88671875,0.16566689076759997,6.4609847388378565,22.876685090677363,3.228947629929399,3969,0,73.86761810418389,68.85337257875423,93.21184890738253,0.09383686661750382,0.08746707833092973,0.5625,,
3.7804149999995715,1500,,,,0.8125,0.078125,-0.95703125,0.16566689076759997,6.4609847388378565,22.876653500736317,3.2291707412818793,3967,0,73.8726201430214,68.81775289575292,93.15731967069534,0.0938854360534721,0.08746115578855927,0.56640625,,
3.7878999999994414,1500,,,,0.1875,-0.03515625,-1.08203125,0.16566689076759997,6.4609847388378565,22.876436068086434,3.2293858803310114,3967,0,73.87683963057341,68.8179943718107,93.15232583843618,0.09388510661805065,0.08745616043060975,0.564453125,,
3.806734999999404,1500,,,,-0.40625,0.03125,-0.90625,0.16566689076759997,6.4609847388378565,22.876057812822904,3.2282667073778377,3968,0,73.85001583318686,68.84591777002208,93.22397157711099,0.09384702750888732,0.08748792625084864,0.56640625,,
3.8270399999995717,1500,,,,-0.40625,0.197265625,-0.962890625,0.16577639735535404,6.4609847388378565,22.876213530358708,3.224529940436145,3968,0,73.7650354524521,68.87986848739078,93.37739494721693,0.09380077054038817,0.08758871597103096,0.568359375,,
3.844549999999348,1500,,,,0.40625,0.041015625,-1.05859375,0.16577639735535404,6.4609847388378565,22.87587347078621,3.2270883139386655,3969,0,73.82246394871372,68.90704670030881,93.34156978041295,0.09376377378264421,0.0875205783340754,0.5703125,,
3.8522799999993294,1500,,,,-0.34375,0.095703125,-1.0390625,0.16577639735535404,6.4609847388378565,22.875879141764077,3.22594128777923,3969,0,73.79624301766444,68.90169245017839,93.36748001342772,0.09377106002889089,0.08755167573085401,0.572265625,,
3.863274999999441,1500,,,,0.6875,-0.02734375,-0.9296875,0.16577639735535404,6.4609847388378565,22.876083478921853,3.2258992637976394,3966,0,73.79594085322735,68.84750213899645,93.29442967049793,0.09384486783258676,0.08755203421944441,0.572265625,,
3.8709849999998696,1500,,,,-0.53125,0.095703125,-0.947265625,0.16577639735535404,6.475547112126059,22.87616652079766,3.224693410488664,3969,0,73.76862343685761,68.89435463036493,93.39249049338054,0.09399241994309918,0.0877818618598572,0.57421875,,
3.878514999999665,1500,,,,-0.125,-0.05859375,-0.9921875,0.16577639735535404,6.475547112126059,22.876247919904152,3.2227864974362723,3966,0,73.72526290827172,68.84756910299092,93.38395875054447,0.09405629271295135,0.08783348958935384,0.576171875,,
3.8866599999992175,1500,,,,0.25,0.22265625,-1.03515625,0.16577639735535404,6.475547112126059,22.876331489703865,3.222069323566632,3965,0,73.70912592871618,68.83183407513465,93.38305563642373,0.09407779407791977,0.08785271878530396,0.578125,,
3.8941699999999253,1500,,,,-0.6875,-0.0625,-0.82421875,0.16577639735535404,6.475547112126059,22.87638050514361,3.222217080436197,3965,0,73.71266400223138,68.83564907756654,93.38374892472045,0.09407258010786206,0.08784850201493241,0.580078125,,
3.902444999999367,1500,,,,0.34375,0.126953125,-1.08203125,0.16577639735535404,6.475547112126059,22.87636194464181,3.2227824613853335,3968,0,73.72553805549451,68.88344773183725,93.43227536703424,0.09400730255743464,0.08783316179058336,0.576171875,,
3.91054499999946,1500,,,,-0.6875,-0.234375,-0.96484375,0.16577639735535404,6.475547112126059,22.876605803464958,3.2226829077916084,3966,0,73.72404651111283,68.85601882822482,93.39696081094215,0.09404475051455724,0.08783493878282934,0.580078125,,
3.918269999999553,1500,,,,0.21875,0.06640625,-1.064453125,0.16577639735535404,6.475547112126059,22.876576394378738,3.223856049859938,3966,0,73.75078920910094,68.84524054191306,93.34847976571547,0.09405947399056205,0.08780308904581823,0.578125,,
3.925619999999646,1500,,,,-0.5625,-0.1484375,-0.8984375,0.16577639735535404,6.475547112126059,22.876609469444602,3.2259941800798018,3965,0,73.79980900838677,68.8412176528349,93.28102413518663,0.09406497056432288,0.08774476789486221,0.578125,,
3.9335699999993667,1500,,,,0.125,0.185546875,-0.99609375,0.16577639735535404,6.475547112126059,22.876385002211055,3.223837265166628,3965,0,73.74974246242695,68.83936610959725,93.34183932190491,0.09406750058994616,0.08780433525479951,0.578125,,
3.941679999999702,1500,,,,-0.4375,0.0078125,-0.890625,0.16577639735535404,6.475547112126059,22.876167674936955,3.21916531716444,3965,0,73.64216556879533,68.83862480559517,93.47718698099288,0.09406851357669378,0.08793260032632673,0.578125,,
3.949804999999702,1500,,,,0.8125,0.11328125,-1.18359375,0.16577639735535404,6.475547112126059,22.875633104536398,3.2398025477271974,3965,0,74.11253441294964,68.8383356974424,92.88352671071834,0.09406890864688133,0.08737451988950726,0.58203125,,
3.958774999999441,1500,,,,-0.4375,-0.072265625,-0.853515625,0.16577639735535404,6.475547112126059,22.874995430971147,3.2567807833604103,3968,0,74.49884553904401,68.88724311870548,92.46753103389025,0.09400212316477075,0.08692144240990013,0.58203125,,
3.967679999999702,1500,,,,0.34375,-0.056640625,-0.927734375,0.1655766479455736,6.475547112126059,22.874608542611636,3.2671588627020136,3975,0,74.7349800308328,68.92056309965193,92.21995251917902,0.09395667738180105,0.08664680327009515,0.583984375,,
3.976484999999404,1500,,,,-0.03125,0.130859375,-1.1015625,0.1655766479455736,6.475547112126059,22.874466182128394,3.2716143039963894,3980,0,74.83643075773293,69.00551920157714,92.20845850461238,0.09384100267704468,0.08652934201377495,0.5859375,,
3.9847449999996463,1500,,,,0.125,-0.09765625,-1,0.1655766479455736,6.475547112126059,22.874410868946125,3.2695506667589918,3983,0,74.78904530828193,69.0603196114727,92.34015399822889,0.09376653841970205,0.08658416597556133,0.58203125,,
3.9928149999994784,1500,,,,-0.1875,0.169921875,-0.982421875,0.1655766479455736,6.475547112126059,22.874686196555956,3.26106008692837,3984,0,74.59572615659995,69.08727239165067,92.61559066616591,0.09372995760227236,0.08680855386449143,0.5859375,,
4.001359999999404,1500,,,,-0.375,-0.041015625,-0.943359375,0.1655766479455736,6.475547112126059,22.874947076820433,3.2526822414508243,3984,0,74.40493413090127,69.08747159816876,92.85334689850347,0.09372968734171624,0.08703115173428648,0.5859375,,
4.009739999999758,1500,,,,0.6875,0.2890625,-0.9609375,0.1655766479455736,6.475547112126059,22.875150485159622,3.245957533969335,3981,0,74.25176705798617,69.02189013614603,92.95656234314811,0.09381874502933793,0.08721068021275569,0.587890625,,
4.021354999999516,1500,,,,-0.3125,-0.087890625,-0.939453125,0.1655766479455736,6.475547112126059,22.87480075364194,3.241857822473424,3979,0,74.1568517607151,68.99957209788575,93.04544416277196,0.09384909087464442,0.0873223034470364,0.587890625,,
4.032454999999609,1500,,,,0.375,0.080078125,-1.12890625,0.1655766479455736,6.482127776329326,22.87490168683198,3.257187353104156,3977,0,74.50784047785005,68.95942257888957,92.55324290252389,0.0939991597074899,0.0869992706104045,0.587890625,,
4.040334999999497,1500,,,,0.01953125,0.01171875,-0.9453125,0.1655766479455736,6.482127776329326,22.874523054323408,3.267936307323769,3979,0,74.75248440193806,68.99776057051518,92.30162866496825,0.09394692991093011,0.08671454638852469,0.58984375,,
4.049314999999479,1500,,,,-0.875,-0.09765625,-0.6484375,0.1655766479455736,6.482127776329326,22.874799162525324,3.262937666513982,3982,0,74.63904380134638,69.03715317383929,92.49469132748183,0.09389332378765645,0.0868463400145059,0.58984375,,
4.057734999999404,1500,,,,0.375,0.142578125,-1.109375,0.1655766479455736,6.482127776329326,22.87493656684806,3.2547666531923976,3982,0,74.45258073166845,69.05293591533498,92.7475384153652,0.09387186352622268,0.08706384268520258,0.58984375,,
4.066129999999423,1500,,,,-0.53125,0.21875,-1.0546875,0.1655766479455736,6.482127776329326,22.874794821524265,3.249982589510676,3983,0,74.34268490858284,69.05832747892312,92.89189321564353,0.09386453470521275,0.0871925433457269,0.59375,,
4.072804999999702,1500,,,,-0.1875,-0.072265625,-0.740234375,0.1655766479455736,6.482127776329326,22.87498383986329,3.2453759051361026,3982,0,74.23792138427005,69.04499213225289,93.00501798112376,0.09388266369721751,0.0873155882527551,0.59765625,,
4.079749999999534,1500,,,,0.1875,0.48046875,-1.34765625,0.1655766479455736,6.482127776329326,22.875027248868342,3.2451588299754275,3980,0,74.23309666259361,69.01137551540859,92.96577755482984,0.09392839554229755,0.08732126326067303,0.59765625,,
4.087824999999255,1500,,,,-0.0625,-0.18359375,-0.828125,0.1655766479455736,6.482127776329326,22.875252430291425,3.2411037159549627,3979,0,74.14106565522533,68.99607864515434,93.06054348612079,0.09394922006606779,0.08742965479445435,0.599609375,,
4.09566999999946,1500,,,,0.0625,0.29296875,-1.27734375,0.1655766479455736,6.482127776329326,22.8752887348846,3.2360176012046447,3977,0,74.02483697872489,68.9586086103338,93.15604251874657,0.0940002692478622,0.08756693078827478,0.599609375,,
4.103874999999534,1500,,,,-0.09375,-0.119140625,-0.86328125,0.1655766479455736,6.482127776329326,22.875453547365602,3.2344253224269663,3976,0,73.98894621560108,68.93589858403874,93.17053710045019,0.09403123640184452,0.08760940799779258,0.6015625,,
4.112669999999926,1500,,,,-0.1875,0.33203125,-1.01171875,0.1652953486266859,6.482127776329326,22.87563146069857,3.2315064059949425,3974,0,73.92274960642688,68.79552700201715,93.06408023009473,0.09422309936137656,0.08768786078495337,0.599609375,,
4.120839999999386,1500,,,,-0.15625,-0.021484375,-1,0.1652953486266859,6.482127776329326,22.87564925899842,3.2278563740321125,3973,0,73.83931027078101,68.77761099558634,93.14498028674349,0.09424764370988842,0.08778694915429583,0.603515625,,
4.129694999999367,1500,,,,0.25,0.240234375,-1.005859375,0.1652953486266859,6.482127776329326,22.875815891943056,3.2272246350675844,3971,0,73.82539659374918,68.73715754018343,93.10773895118287,0.09430311069438539,0.08780349412817337,0.603515625,,
4.1376399999996645,1500,,,,-0.46875,0.06640625,-0.857421875,0.1652953486266859,6.482127776329326,22.875824932350472,3.224370397452502,3971,0,73.76013272917675,68.7440980955317,93.19953144327668,0.0942935896449074,0.08788118373009976,0.60546875,,
4.145629999999889,1500,,,,0.875,0.109375,-1.35546875,0.1652953486266859,6.482127776329326,22.87563206654822,3.225720523624904,3970,0,73.79039584795656,68.72603632589266,93.13683106877636,0.09431837077860362,0.08784514165889018,0.60546875,,
4.153944999999832,1500,,,,-0.4375,-0.08984375,-0.876953125,0.1652953486266859,6.482127776329326,22.875649923978614,3.2261099338743424,3969,0,73.79936146357925,68.70392171247609,93.09555035429702,0.09434873024362192,0.08783446967259091,0.60546875,,
4.161979999999516,1500,,,,0.1875,0,-1.119140625,0.1652953486266859,6.482127776329326,22.87560185625228,3.225211908850605,3969,0,73.77866352890986,68.69505066873175,93.10964360558508,0.0943609141157505,0.08785911083614752,0.607421875,,
4.1730449999999255,1500,,,,-0.5,0.17578125,-0.73046875,0.1652953486266859,6.484534174899816,22.87562381497695,3.2253246491536927,3969,0,73.78131335521239,68.70765035409826,93.12337667847208,0.09437863384179937,0.08788857069649475,0.607421875,,
4.182489999999293,1500,,,,-0.125,0.10546875,-1.0234375,0.1652953486266859,6.484534174899816,22.875581296030074,3.2225724339463175,3970,0,73.71821769508449,68.71261178641683,93.20981154295944,0.09437181918009534,0.0879637948074293,0.609375,,
4.190339999999385,1500,,,,0.75,0.12109375,-1.0703125,0.1652953486266859,6.484534174899816,22.87553232951598,3.2206170657666315,3970,0,73.67332980893548,68.71392758551629,93.26838866075293,0.09437001205948595,0.08801738962684076,0.611328125,,
4.197714999999385,1500,,,,-0.46875,0.01953125,-0.93359375,0.1652953486266859,6.484534174899816,22.875380007052335,3.217814159813526,3969,0,73.60872169780825,68.70957423993715,93.34433835438148,0.09437599121565664,0.08809464456564388,0.611328125,,
4.205844999999739,1500,,,,0.9375,0.06640625,-1.02734375,0.1652953486266859,6.484534174899816,22.875410721004705,3.2151703442323005,3969,0,73.54834216230796,68.69720512898051,93.40415175827911,0.09439298385902252,0.08816696589284931,0.615234375,,
4.2137999999998135,1500,,,,-0.46875,-0.04296875,-0.94140625,0.1652953486266859,6.484534174899816,22.87534164634289,3.213530384479107,3969,0,73.5106054358632,68.70778506065317,93.46649324035235,0.09437844880569886,0.08821222647332794,0.615234375,,
4.223269999999553,1500,,,,0.6875,0.1171875,-1.12109375,0.1652953486266859,6.484534174899816,22.87537398080194,3.211969792772715,3968,0,73.47501022471475,68.6811829811984,93.47556777623441,0.0944150041311165,0.08825496117751633,0.615234375,,
4.230689999999479,1500,,,,-0.5,-0.04296875,-0.94140625,0.1652953486266859,6.484534174899816,22.875335246196684,3.2124501931744995,3966,0,73.48587513057598,68.65378852513487,93.42446885628695,0.0944526779104952,0.08824191265841962,0.615234375,,
