Time (s),ESC signal (µs),Servo 1 (µs),Servo 2 (µs),Servo 3 (µs),AccX (g),AccY (g),AccZ (g),Torque (N·m),Thrust (N),Voltage (V),Current (A),Motor Electrical Speed (RPM),Motor Optical Speed (RPM),Electrical Power (W),Mechanical Power (W),Motor Efficiency (%),Propeller Mech. Efficiency (N/W),Overall Efficiency (N/W),Vibration (g),App message,90% settling time (s),Max acceleration (RPM/s),
0,1000,,,,-0.0625,0.05078125,-0.953125,-0.000521540062238542,-0.019599490436624897,15.145196478518981,0.04892503816403204,0,0,0.7409793157133049,0,0,0,0,0.05859375,,
0,1200,,,,-0.0625,0.05078125,-0.953125,-0.000521540062238542,-0.019599490436624897,15.145140325886423,0.04956690863926355,0,0,0.7506977868620386,0,0,0,0,0.05859375,,
0.007839999999850989,1200,,,,-0.0625,0.0546875,-0.95703125,-0.000521540062238542,-0.019599490436624897,15.145255122228516,0.05011406790320254,0,0,0.7589903436066859,0,0,0,0,0.05859375,,
0.016235000000335276,1200,,,,-0.0625,0.05078125,-0.95703125,-0.000521540062238542,-0.019599490436624897,15.145113469652138,0.05059272833483677,0,0,0.7662326113703878,0,0,0,0,0.05859375,,
0.024490000000223517,1200,,,,-0.0625,0.046875,-0.955078125,-0.000521540062238542,-0.019599490436624897,15.145157201854282,0.05185498583682492,0,0,0.7853519121986408,0,0,0,0,0.05859375,,
0.03232499999925494,1200,,,,-0.0625,0.05078125,-0.95703125,-0.000521540062238542,-0.019599490436624897,15.145165848241932,0.05241241994792502,0,0,0.7937947926190282,0,0,0,0,0.05859375,,
0.040875,1200,,,,-0.0625,0.048828125,-0.95703125,-0.000521540062238542,-0.019599490436624897,15.145248875793357,0.052049183784998634,0,0,0.7882978422057124,0,0,0,0,0.05859375,,
0.04908000000007451,1200,,,,0.0625,-0.0078125,-1,-0.000521540062238542,-0.019599490436624897,15.144733358982476,0.07627302570564162,0,0,1.1551346367947586,0,0,0,0,0.05859375,,
0.05733999999985099,1200,,,,-0.1875,0.08203125,-0.962890625,-0.000521540062238542,-0.019599490436624897,15.14361373335739,0.10145676182404306,0,0,1.5364220117005483,0,0,0,0,0.060546875,,
0.06740000000037252,1200,,,,0,0.041015625,-0.951171875,-0.000521540062238542,-0.019599490436624897,15.142855510561468,0.12635332269626492,0,0,1.9133501088688867,0,0,0,0,0.0625,,
0.07546999999973923,1200,,,,-0.0625,0.046875,-0.998046875,-0.000521540062238542,-0.019599490436624897,15.142190155169391,0.1470997013933633,0,0,2.227411650266943,0,0,0,0,0.064453125,,
0.0916949999993667,1200,,,,-0.03125,0.056640625,-0.966796875,-0.0004681412417541342,-0.019536326519368857,15.14166387630019,0.1653627859199498,0,0,2.5038677220484655,0,0,0,0,0.064453125,,
0.1107399999992922,1200,,,,0,-0.01171875,-0.96484375,-0.0004681412417541342,-0.019536326519368857,15.140872375449575,0.18325341323341382,0,0,2.774616542132641,0,0,0,0,0.064453125,,
0.12666500000003725,1200,,,,-0.1875,0.1640625,-0.99609375,-0.0004681412417541342,-0.019536326519368857,15.140134320169546,0.21915037577282676,0,0,3.317966125516227,0,0,0,0,0.06640625,,
0.1379400000004098,1200,,,,0.0625,-0.08984375,-0.966796875,-0.0004681412417541342,-0.019536326519368857,15.139632455941545,0.22419039236324786,0,0,3.3941601405328967,0,0,0,0,0.068359375,,
0.14557000000029802,1200,,,,-0.0625,0.0625,-0.943359375,-0.0004681412417541342,-0.019536326519368857,15.139650816575742,0.22119198166037896,0,0,3.348769365764563,0,0,0,0,0.0703125,,
0.157054999999702,1200,,,,-0.0625,0.05859375,-1.052734375,-0.0004681412417541342,-0.019536326519368857,15.139482488146728,0.21696454141760652,0,0,3.2847308753406392,0,0,0,0,0.072265625,,
0.1660699999993667,1200,,,,0,0.0234375,-0.994140625,-0.0004681412417541342,-0.019536326519368857,15.139661008735832,0.21175350219451056,1,0,3.205876240637489,0.000034712230437761276,0.0010827688853908704,562.8081593430685,0.006093911633807815,0.072265625,,
0.1819199999999255,1200,,,,-0.125,0.1171875,-0.91796875,-0.0004681412417541342,-0.019536326519368857,15.139823753518813,0.20026469326241428,3,0,3.0319721600454588,0.00012257037393818712,0.00404259562648324,159.38865071278258,0.006443438622825596,0.07421875,,
0.18957500000018626,1200,,,,0,0.005859375,-1,-0.0004681412417541342,-0.019536326519368857,15.140018627787432,0.19569278945327484,3,0,2.962792477646265,0.00013216435697681336,0.004460803717235331,147.81842068657187,0.006593889604745157,0.07421875,,
0.20885500000044704,1200,,,,-0.03125,0.037109375,-0.947265625,-0.0004681412417541342,-0.019536326519368857,15.14060095231902,0.18144703380341706,3,0,2.7472171327994777,0.00013805017115417823,0.005025091373593099,141.51613399703902,0.0071113150417276595,0.07421875,,
0.23547999999951572,1200,,,,-0.041015625,0.05078125,-0.970703125,-0.0004681412417541342,-0.019536326519368857,15.141381007907475,0.16851454572904484,3,0,2.5515429422579152,0.0001387952525816454,0.005439659677403763,140.7564463192049,0.007656671653772263,0.07421875,,
0.24358499999996275,1200,,,,-0.03125,0.01171875,-0.95703125,0.0013530837694653284,-0.01951007803870198,15.141692041172117,0.1643046790685786,3,0,2.4878508513800357,0.0004012642660485363,0.016128951855210735,48.62151875826907,0.007842141351793475,0.07421875,,
0.2555100000007078,1200,,,,-0.03125,0.01953125,-0.955078125,0.0013530837694653284,-0.01951007803870198,15.141913185227569,0.16189939127685413,370,0,2.451466527455315,0.05246402441496287,2.1401077203131087,0.37187536137882815,0.007958533318810574,0.07421875,,
0.26400499999988825,1200,,,,-0.03125,0.017578125,-0.994140625,0.0013530837694653284,-0.01951007803870198,15.142318019046124,0.1579364638882981,467,0,2.391524163000204,0.06614930927734455,2.765989585250906,0.29494001149584154,0.008158010000712803,0.072265625,,
0.272375,1200,,,,-0.03125,0.076171875,-0.95703125,0.0013530837694653284,-0.01951007803870198,15.142482157949638,0.15348861773811528,506,0,2.324198655547763,0.07168627959648767,3.0843439060329705,0.272159165582613,0.008394324638357506,0.072265625,,
0.28035500000044705,1200,,,,0,-0.03515625,-0.94921875,0.0013530837694653284,-0.01951007803870198,15.14249124722184,0.1501126439640402,519,0,2.273079397322807,0.07358981309527153,3.2374501824240856,0.2651192769499721,0.00858310451525829,0.072265625,,
0.2885200000004843,1200,,,,-0.0625,0.05859375,-1.0078125,0.0013530837694653284,-0.01951007803870198,15.142696061694338,0.14755310211314618,525,0,2.234351778259521,0.07433621341008297,3.32697000236857,0.2624572485428163,0.008731873928061419,0.072265625,,
0.2962949999999255,1200,,,,-0.0625,0.05078125,-0.96484375,0.0013530837694653284,-0.01951007803870198,15.14275967029253,0.1447125217933038,527,0,2.19134693879797,0.07462994652439084,3.4056654929012735,0.26142425322957485,0.008903235582314472,0.072265625,,
0.30440000000037254,1200,,,,-0.03125,0.021484375,-1.001953125,0.0013530837694653284,-0.01951007803870198,15.142820734307485,0.14198216162131955,528,0,2.150010420901114,0.07474696549220229,3.4765861953764063,0.2610149844910734,0.009074410918680524,0.072265625,,
0.312535000000149,1200,,,,-0.0625,0.087890625,-0.962890625,0.0013530837694653284,-0.01951007803870198,15.142780076513136,0.1413048475282436,528,0,2.1397482298654134,0.07479319081012811,3.495420151128364,0.26085366632145374,0.009117931617557236,0.07421875,,
0.3203650000002235,1200,,,,0,-0.03515625,-0.97265625,0.0013530837694653284,-0.01951007803870198,15.142935146872734,0.13691746779132405,528,0,2.0733323352380566,0.07481099903609326,3.6082492789321003,0.26079157196242175,0.009410010014849772,0.072265625,,
0.32846999999973925,1200,,,,-0.09375,0.080078125,-0.935546875,0.0013530837694653284,-0.01951007803870198,15.142888764106646,0.13422770063570297,537,0,2.032595139788257,0.07612905939946076,3.745411858428009,0.25627635744623656,0.009598605082138697,0.07421875,,
0.3364349999995902,1200,,,,0,-0.015625,-0.94921875,0.0013530837694653284,-0.01951007803870198,15.142943046002392,0.1307634126954385,541,0,1.9801429109479314,0.07663913143090696,3.870383849932244,0.25457070917212893,0.009852863614456059,0.07421875,,
0.3443549999995157,1200,,,,-0.0625,0.0390625,-1.0078125,0.0013530837694653284,-0.01951007803870198,15.142929457692013,0.12850738780820486,542,0,1.9459783083719169,0.07684216934233874,3.9487680315731764,0.25389806411871113,0.010025845588702832,0.07421875,,
0.3522049999991432,1200,,,,-0.0625,0.064453125,-0.966796875,0.0013530837694653284,-0.01951007803870198,15.143079446208239,0.12754311422205925,543,0,1.931395511481455,0.07692178398489849,3.9827049160892227,0.25363527765466615,0.010101544672088937,0.07421875,,
0.3587099999999627,1200,,,,0,0.03515625,-0.97265625,0.0013530837694653284,-0.01951007803870198,15.143118151826803,0.12520697983486367,543,0,1.8960240890727367,0.076950717640051,4.0585305895393065,0.25353991017944,0.010289994811323054,0.07421875,,
0.3655400000000373,1200,,,,0,0,-1.021484375,0.0013530837694653284,-0.01951007803870198,15.142639528812635,0.13684030174548673,543,0,2.072123362345856,0.0769637786808218,3.7142469449160074,0.25349688350948385,0.009415500251208292,0.07421875,,
0.3756150000002235,1200,,,,-0.1875,0.01171875,-0.8828125,0.0013530837694653284,-0.01951007803870198,15.141821961014793,0.1567412711350506,543,0,2.3733484214700833,0.07696954575009575,3.243078220365967,0.2534778898403166,0.008220486238854546,0.07421875,,
0.3912400000002235,1200,,,,-0.03125,0.080078125,-0.9296875,0.00794398782387208,0.012662039739688383,15.139732232576431,0.2236555460735084,543,0,3.3860850798835784,0.4519123460963431,13.346160401612853,0.02801879578875007,0.003739433428566932,0.076171875,,
0.399089999999851,1200,,,,0,0.060546875,-0.984375,0.00794398782387208,0.012662039739688383,15.138945214105123,0.25196084499267324,585,0,3.8144214284437132,0.48649299970005677,12.754044324319619,0.026027177672638784,0.0033195177767377697,0.076171875,,
0.40727500000037253,1200,,,,-0.125,0.0859375,-0.93359375,0.00794398782387208,0.012662039739688383,15.138295111773719,0.26989287839580606,601,0,4.085718041721769,0.49956589408923363,12.227126027490403,0.025346085250220585,0.003099097786579627,0.076171875,,
0.4152099999999627,1200,,,,0,0.025390625,-1.03125,0.00794398782387208,0.012662039739688383,15.137588518359307,0.28509934215427224,607,0,4.315716528386303,0.5049326813770276,11.69985744095727,0.025076688847228287,0.002933936846038141,0.076171875,,
0.424339999999851,1200,,,,-0.03125,0.025390625,-0.958984375,0.00794398782387208,0.012662039739688383,15.137318491989737,0.29545557087361224,609,0,4.472405076546515,0.5070104072333421,11.336415162663297,0.024973924714450518,0.0028311477880410846,0.076171875,,
0.4330599999995902,1200,,,,-0.03125,0.064453125,-0.9609375,0.00794398782387208,0.012662039739688383,15.137025579412564,0.300473477319199,611,0,4.548274712115756,0.5078979030525848,11.166825559143106,0.024930285523107252,0.002783921495761694,0.076171875,,
0.440464999999851,1200,,,,-0.0625,0.05078125,-0.96875,0.00794398782387208,0.012662039739688383,15.136823884322702,0.30399093178382464,673,0,4.60145719684291,0.5594557661439015,12.158230365105814,0.022632780830846765,0.0027517456314438593,0.076171875,,
0.44748500000033525,1200,,,,-0.0625,0.06640625,-0.9453125,0.00794398782387208,0.012662039739688383,15.13671663299612,0.3042416775529851,791,0,4.605220061066912,0.658192919414184,14.292322857242517,0.019237581210928348,0.0027494972165901044,0.076171875,,
0.4554300000006333,1200,,,,-0.0625,0.015625,-0.9765625,0.00794398782387208,0.012662039739688383,15.136486205886015,0.3048703156141874,857,0,4.614665326878264,0.7128442611641702,15.447366399729711,0.01776270137745035,0.0027438695642645924,0.076171875,,
0.46341500000003727,1200,,,,-0.03125,0.0390625,-0.99609375,0.00794398782387208,0.012662039739688383,15.136560425432053,0.3035546896656104,883,0,4.594773902546787,0.7345100717268128,15.985771820452129,0.01723875577351891,0.0027557481626397503,0.076171875,,
0.4715300000002608,1200,,,,-0.0625,0.1015625,-0.99609375,0.00794398782387208,0.012662039739688383,15.13646679477284,0.30293731875327334,893,0,4.5854006662064375,0.7430927376374894,16.205622839328885,0.017039649425110433,0.0027613813189772698,0.076171875,,
0.478730000000447,1200,,,,-0.03125,0.068359375,-0.951171875,0.00794398782387208,0.012662039739688383,15.136444462074833,0.30127586788980426,897,0,4.5602454420774166,0.7464021710346794,16.367587677356603,0.016964098218171016,0.0027766136495320304,0.076171875,,
0.4866500000003725,1200,,,,-0.0625,0.09765625,-0.9921875,0.00794398782387208,0.012662039739688383,15.136749809990327,0.29768645434537777,983,0,4.506005381249091,0.8175367870300787,18.143271431323786,0.015488036673782759,0.002810036533107378,0.076171875,,
0.49399000000022353,1200,,,,-0.03125,0.0078125,-0.96484375,0.00794398782387208,0.012662039739688383,15.136892194035578,0.29454464209482195,1014,0,4.458490493720114,0.8438673880850065,18.92719944729305,0.015004774350176548,0.0028399835678741847,0.076171875,,
0.5024950000001117,1200,,,,-0.0625,0.01171875,-0.97265625,0.00794398782387208,0.012662039739688383,15.136914000119408,0.2893371595527504,1029,0,4.37967170118881,0.8560056930940406,19.54497395002662,0.014792004120815275,0.002891093352100209,0.076171875,,
0.5102000000001863,1200,,,,-0.0625,0.044921875,-0.95703125,0.00794398782387208,0.012662039739688383,15.136966830377462,0.2827732608818958,1035,0,4.2803294704869295,0.8607297173226967,20.108959444768633,0.014710819767061964,0.0029581927809514985,0.076171875,,
0.5187250000005588,1200,,,,-0.03125,0.044921875,-0.98046875,0.00794398782387208,0.012662039739688383,15.137117232343638,0.2777000428298852,1037,0,4.203578103742822,0.8626258002312033,20.521226891517262,0.014678484849739793,0.0030122051802520893,0.076171875,,
0.5286499999994412,1200,,,,-0.03125,0.03515625,-0.953125,0.00794398782387208,0.012662039739688383,15.13764871485487,0.27230877000694437,1054,0,4.122114502339332,0.8768464735648096,21.27176411686751,0.014440429563696597,0.0030717341142519404,0.076171875,,
0.5366299999998883,1200,,,,-0.0625,0.06640625,-0.94921875,0.011429052981210844,0.03609524424265958,15.137539710979839,0.2665187783416604,1071,0,4.034438590868717,1.28205080140854,31.77767544436665,0.028154301064359632,0.008946782415862069,0.076171875,,
0.5448499999996275,1200,,,,0,0.00390625,-0.95703125,0.011429052981210844,0.03609524424265958,15.137744592830698,0.2613630460858506,1076,0,3.9564470376518455,1.287272022104521,32.536061012673585,0.028040106226847522,0.009123146069985594,0.076171875,,
0.5522099999999628,1200,,,,-0.0625,0.037109375,-0.970703125,0.011429052981210844,0.03609524424265958,15.13785225588501,0.25853579120579,1077,0,3.913676610131584,1.2894877997755774,32.948246067071516,0.027991923807996946,0.009222847935166006,0.076171875,,
0.559730000000447,1200,,,,-0.0625,0.09375,-1,0.011429052981210844,0.03609524424265958,15.137942192486493,0.2552653358882469,1078,0,3.8641918984219292,1.2903178487845455,33.391660732778035,0.027973916873784706,0.009340955416163537,0.076171875,,
0.5675949999997393,1200,,,,-0.03125,0.0234375,-0.970703125,0.011429052981210844,0.03609524424265958,15.138241323635413,0.2515685508303744,1085,0,3.808305431907449,1.2991051860380676,34.112421108707935,0.027784697213580272,0.009478032917275944,0.076171875,,
0.5762150000007823,1200,,,,-0.0625,0.1171875,-1.0625,0.011429052981210844,0.03609524424265958,15.13855939108634,0.24667557402140997,1088,0,3.7343128276534294,1.302754843197567,34.88606614717368,0.027706858608995872,0.009665833021638183,0.076171875,,
0.5844000000003725,1200,,,,-0.0625,0.08203125,-1.00390625,0.011429052981210844,0.03609524424265958,15.138433596692192,0.24277659273589405,1090,0,3.675257327963516,1.3039820529945638,35.480020489262145,0.027680782998330163,0.009821147479395734,0.076171875,,
0.592535000000149,1200,,,,0,-0.0234375,-0.970703125,0.011429052981210844,0.03609524424265958,15.138639056769858,0.23953789669687406,1090,0,3.626277758511801,1.3044617678663692,35.97247245621117,0.02767060341040001,0.009953800190273572,0.076171875,,
0.6000400000000372,1200,,,,-0.03125,0.04296875,-0.98046875,0.011429052981210844,0.03609524424265958,15.138899139792326,0.23572144520377183,1091,0,3.5685631840259853,1.305615636434279,36.58659155255052,0.02764614886295176,0.01011478356449825,0.076171875,,
0.6067299999995157,1200,,,,-0.0625,0.0546875,-0.9453125,0.011429052981210844,0.03609524424265958,15.13886072079494,0.23168868434607381,1093,0,3.507502722899434,1.307836930091124,37.28684005154575,0.027599193303208404,0.01029086706248424,0.076171875,,
0.615695000000298,1200,,,,-0.0625,0.03515625,-0.98828125,0.011429052981210844,0.03609524424265958,15.138918835101512,0.22840947834549555,1094,0,3.4578725538403337,1.3089108181754647,37.8530671039851,0.02757654970945535,0.010438569866483942,0.076171875,,
0.6234950000001117,1200,,,,-0.03125,0.025390625,-0.958984375,0.011429052981210844,0.03609524424265958,15.138906888550332,0.22488121758505422,1094,0,3.4044558140039634,1.3093073119975165,38.45863725449991,0.027568198781072757,0.010602353566812238,0.076171875,,
0.6315350000001491,1200,,,,-0.03125,0.0625,-0.9765625,0.011429052981210844,0.03609524424265958,15.13896061264762,0.22205541372411533,1094,0,3.361688162194554,1.3094702103560014,38.952756685830195,0.027564769291579746,0.010737237513159501,0.076171875,,
0.6392949999999255,1200,,,,-0.0625,0.064453125,-0.98828125,0.011429052981210844,0.03609524424265958,15.139209011812355,0.21893249369485432,1095,0,3.31446478152369,1.3101580646921742,39.528495580812375,0.027550297338466766,0.010890218065936505,0.076171875,,
0.6476500000003725,1200,,,,-0.0625,0.06640625,-0.92578125,0.011429052981210844,0.03609524424265958,15.139379418287533,0.21681906104772974,1096,0,3.282506030318428,1.311676908068748,39.959619143228366,0.027518395742595285,0.010996246133067444,0.076171875,,
0.6556450000004843,1200,,,,-0.03125,0.02734375,-0.947265625,0.011429052981210844,0.03609524424265958,15.139409851695715,0.2150334669820917,1096,0,3.2554797884729645,1.312271496353516,40.309618907788035,0.027505927197961324,0.011087534430551828,0.07421875,,
0.6648550000004471,1200,,,,-0.0625,0.0390625,-0.9609375,0.011429052981210844,0.03609524424265958,15.139666561911532,0.21212711030957027,1097,0,3.21153371882872,1.3125222220765975,40.86901577216783,0.027500672853791194,0.011239254326068199,0.076171875,,
0.6727649999996648,1200,,,,-0.0625,0.1171875,-1,0.011429052981210844,0.03609524424265958,15.139682891646055,0.20845091215990066,1097,0,3.1558807085752627,1.3126050493029733,41.592353149988206,0.0274989375226212,0.011437455206903225,0.076171875,,
0.6830800000000745,1200,,,,-0.0625,0.041015625,-0.927734375,0.011429052981210844,0.03609524424265958,15.139898015024562,0.2051048028769787,1097,0,3.1052657979491736,1.3128570423604415,42.278411182305184,0.027493659307918555,0.011623882331263928,0.076171875,,
0.6935150000005961,1200,,,,-0.03125,0.03125,-0.994140625,0.009684248142132857,0.18957042536594987,15.139904680994377,0.20123276961488903,1097,0,3.0466449506619213,1.1126304024868068,36.51985776173473,0.17038041108911522,0.06222268378360378,0.076171875,,
0.7035449999999255,1200,,,,-0.03125,0.03125,-0.958984375,0.009684248142132857,0.18957042536594987,15.139777510807761,0.1981014940679966,1097,0,2.999212544748072,1.1126923563610884,37.09948327301867,0.17037092443585627,0.06320673261316777,0.076171875,,
0.7111900000004098,1200,,,,-0.03125,0.033203125,-1.02734375,0.009684248142132857,0.18957042536594987,15.14001153535833,0.19591751158527101,1097,0,2.9661933853797025,1.1127095276187131,37.51304729837347,0.17036829528335726,0.06391033919107839,0.076171875,,
0.7218850000007078,1200,,,,-0.0625,0.0625,-0.97265625,0.009684248142132857,0.18957042536594987,15.140206252100196,0.19575416485913952,1097,0,2.9637584306749964,1.1128423264687772,37.54834790011301,0.1703479647179547,0.06396284643305938,0.076171875,,
0.7304349999995903,1200,,,,-0.03125,0.025390625,-0.943359375,0.009684248142132857,0.18957042536594987,15.140389864357504,0.19501066272828096,1097,0,2.9525374614129047,1.112905181825064,37.693177355741156,0.17033834369885087,0.06420593399523981,0.076171875,,
0.738644999999553,1200,,,,-0.0625,0.05859375,-1.00390625,0.009684248142132857,0.18957042536594987,15.140370145280695,0.1940501208758624,1097,0,2.9379906567970173,1.1129308550725505,37.88068054259445,0.17033441430967608,0.06452383533874767,0.076171875,,
0.7471349999997765,1200,,,,0,0.05078125,-0.9765625,0.009684248142132857,0.18957042536594987,15.140351722186692,0.19174778577376358,1097,0,2.903128918565286,1.1129406400368551,38.33590141036057,0.17033291673100573,0.06529865902738992,0.076171875,,
0.7559599999999628,1200,,,,-0.03125,0.029296875,-0.986328125,0.009684248142132857,0.18957042536594987,15.140332575375183,0.18994724894224047,1097,0,2.8758645207631024,1.1129446277033679,38.69948044033907,0.17033230643032127,0.06591771761058059,0.07421875,,
0.7638499999996274,1200,,,,-0.125,0.05859375,-0.99609375,0.009684248142132857,0.18957042536594987,15.140316252004931,0.18905054064410595,1098,0,2.862284972964276,1.113430186314404,38.90004653035296,0.1702580257801813,0.06623045125015087,0.076171875,,
0.7716500000003725,1200,,,,0,0.0703125,-0.982421875,0.009684248142132857,0.18957042536594987,15.140202542025186,0.187986480663751,1098,0,2.8461533924116913,1.1136211703533732,39.127236547491385,0.17022882683327184,0.06660583574707375,0.07421875,,
0.7794850000003353,1200,,,,-0.0625,0.041015625,-0.9609375,0.009684248142132857,0.18957042536594987,15.140291079912329,0.1876120167761316,1098,0,2.8405005440800273,1.1136966439855107,39.20776027684978,0.17021729066862143,0.06673838727510167,0.07421875,,
0.7866399999996647,1200,,,,-0.0625,0.03125,-0.99609375,0.009684248142132857,0.18957042536594987,15.140278580486992,0.1865550484841901,1098,0,2.8244954046468957,1.1137241225844248,39.430905808949504,0.17021309094576037,0.06711656356532435,0.07421875,,
0.7947249999996274,1200,,,,-0.03125,0.05078125,-0.927734375,0.009684248142132857,0.18957042536594987,15.140461694622863,0.18529089550503333,1098,0,2.805389705756325,1.1137370886880515,39.69990644803451,0.17021110932855624,0.06757365116759856,0.07421875,,
0.8027450000001117,1200,,,,-0.0625,0.03515625,-0.9453125,0.009684248142132857,0.18957042536594987,15.14050424610955,0.18526343950783228,1098,0,2.8049818925171945,1.1137421638087637,39.70585930625349,0.17021033370745248,0.06758347562658563,0.07421875,,
0.8110499999998138,1200,,,,-0.0625,0.03125,-0.978515625,0.009684248142132857,0.18957042536594987,15.140742950210624,0.18437934593556662,1098,0,2.7916402821383763,1.1137441891745135,39.895691300219866,0.17021002417660736,0.06790646580752886,0.07421875,,
0.8184900000002235,1200,,,,-0.0625,0.076171875,-0.953125,0.009684248142132857,0.18957042536594987,15.14080400852747,0.1822871491144554,1098,0,2.759973998015191,1.1137449758792093,40.353459006503265,0.17020990394708604,0.06868558381429594,0.07421875,,
0.8265,1200,,,,0,0.01953125,-1.00390625,0.009684248142132857,0.18957042536594987,15.140764642468223,0.18261932646303577,1098,0,2.7649962411428937,1.1137452897751656,40.28017373776993,0.1702098559754348,0.06856082570571313,0.07421875,,
0.8369699999997392,1200,,,,-0.0625,0.052734375,-0.986328125,0.009684248142132857,0.2610166892375512,15.140727181862598,0.1837863446250013,1098,0,2.782658903718924,1.1137454138688008,40.024503627818696,0.23435938409915552,0.09380118019090006,0.07421875,,
0.8513300000000745,1200,,,,-0.03125,0.029296875,-0.94140625,0.009672548449382876,0.2610166892375512,15.141187095123076,0.1877779520313772,1099,0,2.8431811040461286,1.1133040787586825,39.15698782516318,0.23445228865826212,0.09180445412573213,0.07421875,,
0.8601549999993294,1200,,,,-0.0625,0.05078125,-0.982421875,0.009672548449382876,0.2610166892375512,15.141087459026105,0.18727677986227476,1099,0,2.8355741029394808,1.1134494658602354,39.26716162014545,0.23442167537966654,0.09205073814398639,0.07421875,,
0.8689599999999628,1200,,,,0,0.021484375,-1.01171875,0.009672548449382876,0.2610166892375512,15.140951392037502,0.1866449266388756,1099,0,2.8259817618096212,1.1135090935744851,39.40255767473347,0.2344091222458357,0.09236318958775191,0.07421875,,
0.878140000000596,1200,,,,-0.03125,0.080078125,-1.04296875,0.009672548449382876,0.2610166892375512,15.140972625786572,0.1841283973361151,1101,0,2.787883023696072,1.1156019921374083,40.01609761439648,0.23396936459163464,0.09362540932277172,0.076171875,,
0.8857000000001862,1200,,,,-0.125,0.01171875,-0.9453125,0.009672548449382876,0.2610166892375512,15.140926365793938,0.1822983948789774,1103,0,2.7601665734650234,1.1172455992997206,40.47747009330552,0.23362516657139137,0.09456555692937016,0.076171875,,
0.8935400000000373,1200,,,,-0.03125,0.080078125,-0.9609375,0.009672548449382876,0.2610166892375512,15.141077430412018,0.18060414214700896,1104,0,2.734541300501001,1.117921813405312,40.881511396463274,0.23348385021888596,0.0954517268361351,0.076171875,,
0.9016050000004471,1200,,,,-0.0625,0.078125,-1.009765625,0.009672548449382876,0.2610166892375512,15.14122054913397,0.17963803316113391,1104,0,2.7199390791053704,1.1181873576680819,41.11075009944233,0.23342840307360221,0.09596416744870756,0.076171875,,
0.909839999999851,1200,,,,-0.125,0.0546875,-0.9609375,0.009672548449382876,0.2610166892375512,15.141291953147968,0.17881742640807305,1104,0,2.7075268595551854,1.118292861982409,41.30311239705048,0.23340638048502274,0.09640409967361624,0.076171875,,
0.9178949999995529,1200,,,,-0.03125,0.08203125,-0.982421875,0.009672548449382876,0.2610166892375512,15.141228917434056,0.1773054066835136,1102,0,2.6846217508938217,1.116321514120285,41.58207813628178,0.23381856027673617,0.09722661643140154,0.076171875,,
0.925714999999851,1200,,,,-0.0625,0.005859375,-0.9765625,0.009672548449382876,0.2610166892375512,15.141168701312479,0.17713740056496202,1101,0,2.6820672652660544,1.1155392186448765,41.59251459094997,0.23398253048837356,0.09731921813365073,0.076171875,,
0.933714999999851,1200,,,,0,0.04296875,-0.984375,0.009672548449382876,0.2610166892375512,15.141373411419766,0.1770838634499821,1101,0,2.6812929016330473,1.1152298053154592,41.59298689957468,0.23404744743503228,0.09734732415044192,0.076171875,,
0.9424450000002981,1200,,,,-0.0625,0.0546875,-0.927734375,0.009672548449382876,0.2610166892375512,15.141371232711899,0.1765523789591703,1101,0,2.673245111839231,1.115101095182354,41.71338760683821,0.2340744622754288,0.09764038773757187,0.076171875,,
0.9507999999998137,1200,,,,-0.03125,0.029296875,-1.013671875,0.009672548449382876,0.2610166892375512,15.141304164088448,0.1767400328103331,1101,0,2.6760745947522255,1.115057325901804,41.66764738503284,0.2340836503867222,0.09753715002915248,0.076171875,,
0.9582649999996647,1200,,,,-0.0625,0.08984375,-0.9765625,0.009672548449382876,0.2610166892375512,15.1412403766927,0.17734318845830985,1101,0,2.685195845616384,1.1149706994456199,41.52288188832944,0.23410183726561837,0.0972058293862119,0.076171875,,
0.9660200000004843,1200,,,,0,0.04296875,-0.955078125,0.009672548449382876,0.2610166892375512,15.14124494099356,0.1768595981053314,1101,0,2.677874495078503,1.114936653867786,41.635134727817075,0.23410898577248113,0.09747159163629862,0.076171875,,
0.9830199999995529,1200,,,,-0.0625,0.009765625,-0.978515625,0.009672548449382876,0.2610166892375512,15.141675588046752,0.17561260397499914,1101,0,2.6590690785615667,1.1149172820118132,41.928857396022664,0.2341130534514269,0.0981609283271231,0.076171875,,
0.9940499999998137,1200,,,,0,0.0859375,-0.9921875,0.00916064568866187,0.28114566751140346,15.141592979149694,0.1748845310336945,1101,0,2.6480303872616755,1.0559104128478918,39.8753132867107,0.26625901600224455,0.1061716167850082,0.076171875,,
1.0012700000004844,1200,,,,-0.0625,0.0546875,-0.96875,0.00916064568866187,0.28114566751140346,15.141251862159029,0.1736317615184388,1101,0,2.629002232421014,1.0559096213541654,40.16389215393674,0.2662592155859366,0.10694006419785353,0.076171875,,
1.008734999999404,1200,,,,-0.125,0.03125,-0.9609375,0.00916064568866187,0.28114566751140346,15.141255480961677,0.17278815547491477,1101,0,2.616229606129812,1.0559094031017373,40.359966901519165,0.2662592706206964,0.10746215349473939,0.076171875,,
1.017054999999702,1200,,,,0,0.0546875,-0.927734375,0.00916064568866187,0.28114566751140346,15.14148749962743,0.17188647063318968,1101,0,2.602616846447519,1.0559093029465352,40.57106232858726,0.26625929587594416,0.10802422488548687,0.076171875,,
1.0259150000000372,1200,,,,-0.03125,0.021484375,-0.970703125,0.00916064568866187,0.28114566751140346,15.141624387312199,0.17140371023220513,1101,0,2.5953305989277506,1.0559092610530316,40.68496173432687,0.26625930643985823,0.10832749693914044,0.076171875,,
1.0347099999999627,1200,,,,-0.09375,0.07421875,-0.939453125,0.00916064568866187,0.28114566751140346,15.14153497676299,0.1704646301189832,1100,0,2.58109615924755,1.055143728342862,40.87967527139559,0.26645248411128974,0.10892491025726217,0.076171875,,
1.0428150000004097,1200,,,,0,0.03125,-0.9609375,0.00916064568866187,0.28114566751140346,15.141525027546521,0.17095485665744048,1100,0,2.588517240659263,1.05488461114319,40.752466105828375,0.26651793432337856,0.10861263085108877,0.076171875,,
1.0511749999998137,1200,,,,-0.0625,0.037109375,-0.984375,0.00916064568866187,0.28114566751140346,15.141645717338593,0.17268405236117393,1100,0,2.6147207418872425,1.0547836342415977,40.34020219995961,0.266543448707896,0.1075241661595109,0.076171875,,
1.0586699999999254,1200,,,,-0.0625,0.05078125,-0.95703125,0.00916064568866187,0.28114566751140346,15.141630576804449,0.17305888737168001,1099,0,2.6203937406147872,1.0547436408167492,40.25134179145494,0.2665535554153197,0.10729138264749559,0.076171875,,
1.0669949999991803,1200,,,,-0.0625,0.0390625,-0.951171875,0.00916064568866187,0.28114566751140346,15.141748527392572,0.17342357987758114,1099,0,2.6259362352265123,1.0547275667068308,40.16577221327122,0.266557617707123,0.10706492554536531,0.076171875,,
1.0746549999993293,1200,,,,-0.0625,0.05859375,-1.009765625,0.00916064568866187,0.28114566751140346,15.141663313452371,0.17270567911662804,1100,0,2.615051245505124,1.0551134261166042,40.347715094692084,0.26646013646719824,0.10751057670271287,0.076171875,,
1.0841299999998883,1200,,,,-0.0625,0.109375,-0.984375,0.00916064568866187,0.28114566751140346,15.141713007385366,0.17265621856837798,1100,0,2.6143109105027795,1.055267815041241,40.3650465138553,0.2664211525302854,0.10754102214159908,0.076171875,,
1.0920750000001862,1200,,,,-0.01953125,0.05078125,-1.005859375,0.00916064568866187,0.28114566751140346,15.141611166614954,0.17285789053156972,1100,0,2.6173469655103214,1.0553339122116254,40.32074945042145,0.26640446616769525,0.1074162773282092,0.076171875,,
1.100070000000298,1200,,,,-0.0625,0.0234375,-0.98828125,0.00916064568866187,0.28114566751140346,15.14154007534346,0.17319022250133279,1100,0,2.622366694661581,1.055352862839401,40.244290205020135,0.26639968242942735,0.1072106613021508,0.076171875,,
1.1078899999996648,1200,,,,0,0.04296875,-0.984375,0.00916064568866187,0.28114566751140346,15.141333665370288,0.17247892550400604,1100,0,2.6115609613007007,1.055011751633081,40.397745534824786,0.26648581598850485,0.10765426182943762,0.076171875,,
1.1160449999999256,1200,,,,-0.125,0.046875,-0.921875,0.00916064568866187,0.28114566751140346,15.141199786688476,0.1720040913466319,1099,0,2.604348311207168,1.0546985716743504,40.49760038377802,0.26656494572196143,0.10795240648171472,0.076171875,,
1.124,1200,,,,0,0.03515625,-1.0078125,0.00916064568866187,0.28114566751140346,15.14104613333843,0.17115656822256195,1099,0,2.5914894954816967,1.054580197001884,40.693979228569575,0.266594867143045,0.10848805985962337,0.076171875,,
1.1319199999999254,1200,,,,-0.0625,0.056640625,-0.99609375,0.00916064568866187,0.3031619724213865,15.140995094612219,0.17160737669156498,1099,0,2.5983064486862566,1.0545322914331823,40.58537021167653,0.2874847692045242,0.11667675788384,0.076171875,,
1.140929999999702,1200,,,,0,0.037109375,-1.01953125,0.008269175451168656,0.3031619724213865,15.140940535881844,0.1713748173559486,1099,0,2.5947759189340296,0.9518920755402357,36.68494333534922,0.31848355523847627,0.11683551177164064,0.076171875,,
1.150820000000298,1200,,,,-0.0625,0.05859375,-1.021484375,0.008269175451168656,0.3031619724213865,15.140993358617864,0.17052597241811956,1099,0,2.581932615854601,0.9519256289238206,36.86872473272274,0.3184723293605613,0.1174166864618355,0.076171875,,
1.159054999999702,1200,,,,-0.03125,0.05078125,-0.970703125,0.008269175451168656,0.3031619724213865,15.141235181195983,0.17013908746569537,1099,0,2.576115936832167,0.9519618126931778,36.95337616923402,0.3184602243273987,0.11768180464509015,0.076171875,,
1.1687050000000745,1200,,,,-0.03125,0.021484375,-0.982421875,0.008269175451168656,0.3031619724213865,15.141169985281373,0.16930480751785107,1099,0,2.563472869953127,0.9519730244620987,37.1360678562401,0.318456473693343,0.11826221216334924,0.076171875,,
1.177589999999851,1200,,,,-0.0625,0.09375,-1,0.008269175451168656,0.3031619724213865,15.141393458546577,0.17033071664105603,1099,0,2.5790443987384366,0.9519773839685112,36.91201998826308,0.3184550153466821,0.11754817891839357,0.076171875,,
1.1859249999998138,1200,,,,-0.03125,0.037109375,-0.9453125,0.008269175451168656,0.3031619724213865,15.141603328818949,0.1708664976403527,1099,0,2.5871927294547996,0.9519170510822037,36.79343406638289,0.3184751991538879,0.11717796241846737,0.076171875,,
1.1943349999999628,1200,,,,0,0.015625,-1.001953125,0.008269175451168656,0.3031619724213865,15.141523660876901,0.17004545595648912,1099,0,2.574747294789781,0.9517765501299105,36.965823871566386,0.318522212361722,0.11774436001345079,0.076171875,,
1.2032800000002608,1200,,,,-0.0625,0.08984375,-0.98046875,0.008269175451168656,0.3031619724213865,15.141440202476044,0.169185345221856,1099,0,2.5617097878119988,0.9517189546024397,37.1517085631827,0.31854148848808617,0.11834360545591795,0.076171875,,
1.2112800000002608,1200,,,,-0.0625,0.046875,-0.9921875,0.008269175451168656,0.3031619724213865,15.141434466487455,0.16932232897814714,1099,0,2.563782947935645,0.9516983407584012,37.12086241640337,0.3185483881161325,0.11824790888226017,0.076171875,,
1.219980000000447,1200,,,,-0.03125,0.021484375,-0.99609375,0.008269175451168656,0.3031619724213865,15.14165977878205,0.1695469574356127,1099,0,2.5672223460176893,0.9516912337589145,37.07085345510455,0.31855076695829315,0.11808948799922045,0.078125,,
1.2281100000003353,1200,,,,-0.0625,0.068359375,-0.96875,0.008269175451168656,0.3031619724213865,15.141577602791317,0.16943895052157576,1099,0,2.5655730182579575,0.9517677062941845,37.097665882861584,0.31852517207353254,0.11816540408864903,0.078125,,
1.2355750000001862,1200,,,,-0.03125,0.021484375,-0.982421875,0.008269175451168656,0.3031619724213865,15.141630370362531,0.16870778142466658,1099,0,2.5545108669362153,0.9518364193550887,37.261004902151214,0.31850217774477696,0.11867711206293971,0.078125,,
1.244839999999851,1200,,,,-0.0625,0.0078125,-0.97265625,0.008269175451168656,0.3031619724213865,15.141681510063025,0.16864167525218154,1099,0,2.5535185359920103,0.9518640333291065,37.27656642834273,0.3184929378632887,0.11872323155218914,0.078125,,
1.253199999999255,1200,,,,-0.0625,0.083984375,-0.951171875,0.008269175451168656,0.3031619724213865,15.141735638482603,0.166663106790517,1099,0,2.523568703710203,0.9518754881581694,37.71942038901902,0.3184891051328462,0.12013224445828302,0.078125,,
1.2605449999999254,1200,,,,-0.03125,0.05859375,-1.009765625,0.008269175451168656,0.3031619724213865,15.141650845511347,0.16606126529418117,1099,0,2.5144416980483224,0.9518793595290144,37.85648958446127,0.3184878098117283,0.12056830454915576,0.078125,,
1.267945000000298,1200,,,,-0.0625,0.0234375,-0.94921875,0.008269175451168656,0.3031619724213865,15.14157859764658,0.16554846615063093,1099,0,2.5066651119396126,0.9515478522598004,37.96070914010168,0.31859876694736566,0.12094235124483989,0.076171875,,
1.2756200000001117,1200,,,,-0.03125,0.017578125,-0.966796875,0.008269175451168656,0.3031619724213865,15.141695735489495,0.1647969004426584,1099,0,2.495304524654488,0.9513967097626073,38.12747904564243,0.31864938075835003,0.12149297587770928,0.076171875,,
1.2849599999999628,1200,,,,0,0.00390625,-0.94140625,0.008269175451168656,0.299973576329231,15.14149010486654,0.16421535642493643,1099,0,2.486465194375307,0.9513319570894129,38.26041720758625,0.3153195623187053,0.12064258008027157,0.076171875,,
1.2941100000003354,1200,,,,-0.0625,0.025390625,-0.978515625,0.007593068783103475,0.299973576329231,15.141408131329612,0.16558215956009933,1099,0,2.507147057166405,0.873527898715722,34.84151024244223,0.343404688928949,0.11964737986620665,0.076171875,,
1.3052199999997391,1200,,,,0,0.009765625,-0.97265625,0.007593068783103475,0.299973576329231,15.141332047165804,0.1652092855448749,1098,0,2.5014886497099806,0.8734444580545733,34.91698665735858,0.34343749458020884,0.11991802415893814,0.076171875,,
1.3179350000005214,1200,,,,-0.0625,0.072265625,-1.05859375,0.007593068783103475,0.299973576329231,15.141533392043879,0.1636536780424622,1098,0,2.4779676308107397,0.8732348603357977,35.23996235778485,0.3435199279766245,0.12105629331045209,0.078125,,
1.3260849999999627,1200,,,,-0.01953125,0.0078125,-0.955078125,0.007593068783103475,0.299973576329231,15.141563486110778,0.16389319128345892,1098,0,2.481599160759791,0.8731818881092168,35.18625819658461,0.3435407678677258,0.12087914159246739,0.078125,,
1.3336949999993668,1200,,,,-0.0625,0.05078125,-0.9609375,0.007593068783103475,0.299973576329231,15.141551718294448,0.16451791773220142,1098,0,2.4910565599282393,0.8731670829247689,35.05207777979648,0.3435465928518934,0.12042021893628639,0.076171875,,
1.340864999999292,1200,,,,-0.03125,0.046875,-0.962890625,0.007593068783103475,0.299973576329231,15.141404703685499,0.16301875486823048,1098,0,2.4683329417507784,0.8732770364962882,35.37922383667077,0.3435033371915603,0.12152881455143606,0.076171875,,
1.3488149999994785,1200,,,,0,0.03125,-0.984375,0.007593068783103475,0.299973576329231,15.141685307318749,0.16375766800877356,1099,0,2.479567075649228,0.8735610841969337,35.230387303324235,0.34339164341895706,0.12097820594374868,0.076171875,,
1.357054999999702,1200,,,,-0.03125,0.03515625,-0.9765625,0.007593068783103475,0.299973576329231,15.141739576480077,0.16419722588669924,1099,0,2.486231633556873,0.8737051405862662,35.14174338359291,0.34333502504969265,0.12065391344895744,0.076171875,,
1.3652549999998882,1200,,,,-0.0625,-0.0546875,-0.90234375,0.007593068783103475,0.299973576329231,15.141752451482256,0.1640322041381058,1099,0,2.483735029130201,0.873753618541361,35.179019029551945,0.3433159759956188,0.12077519252699072,0.076171875,,
1.3732800000002607,1200,,,,-0.08203125,0.115234375,-0.98046875,0.007593068783103475,0.299973576329231,15.141862055662706,0.16324272966501097,1099,0,2.4717988941774345,0.8737725102000696,35.34966021136779,0.3433085532303429,0.12135840704348896,0.076171875,,
1.3810999999996274,1200,,,,0.0625,0.0078125,-0.9921875,0.007593068783103475,0.299973576329231,15.141770918702404,0.16408204928557693,1099,0,2.484492802153443,0.873671623243031,35.16498910706334,0.34334819667799454,0.12073835596111519,0.076171875,,
1.3888449999997392,1200,,,,-0.0625,0.046875,-0.978515625,0.007593068783103475,0.299973576329231,15.141881420229328,0.16456713039827506,1099,0,2.4918559741580983,0.8735224809733539,35.0550950790197,0.3434068187861343,0.12038158683331626,0.078125,,
1.396179999999702,1200,,,,0,0.0234375,-0.95703125,0.007593068783103475,0.299973576329231,15.141631950605044,0.16468599667386408,1099,0,2.4936147490542164,0.8734689744305383,35.02822457887007,0.34342785503606466,0.12029668032842908,0.076171875,,
1.4150949999997393,1200,,,,-0.0625,0.064453125,-0.94140625,0.007593068783103475,0.299973576329231,15.1419613266324,0.16244069808603584,1098,0,2.459670768289924,0.8734317569067525,35.51010843268273,0.3434424887315566,0.12195680015247991,0.076171875,,
1.4230499999998136,1200,,,,-0.03125,0.060546875,-1.01171875,0.007593068783103475,0.299973576329231,15.1420605665884,0.16268039531758688,1098,0,2.4633163988954445,0.8733926856946171,35.455968469427965,0.3434578526274917,0.12177630793337782,0.076171875,,
1.4313150000004098,1200,,,,-0.125,0.109375,-0.98828125,0.007593068783103475,0.299973576329231,15.141894040251408,0.16877129742150068,1098,0,2.555517102592119,0.8733590124578028,34.175432110078034,0.34347109499110423,0.11738273088642648,0.078125,,
1.4390849999999626,1200,,,,-0.03125,-0.009765625,-0.943359375,0.007512952471559385,0.3119963614732218,15.14160589049364,0.1747506800657132,1098,0,2.6460059266507727,0.8641308929497676,32.65793489901801,0.36105220171935026,0.11791219298897661,0.078125,,
1.446304999999702,1200,,,,-0.03125,0.025390625,-0.927734375,0.007512952471559385,0.3119963614732218,15.141625040074278,0.17249641622239031,1098,0,2.61187605519602,0.8641257262796868,33.08448440961087,0.36105436047652134,0.11945297360207495,0.078125,,
1.456515000000596,1200,,,,-0.0625,0.09375,-1.0234375,0.007512952471559385,0.3119963614732218,15.14154569986994,0.17139812714141558,1098,0,2.5952325749838625,0.8641236681208334,33.29657913708203,0.36105522043124305,0.12021903719945479,0.078125,,
1.4659599999999628,1200,,,,-0.0625,0.021484375,-0.931640625,0.007512952471559385,0.3119963614732218,15.141448434988028,0.1686845556115265,1107,0,2.554128500570799,0.8709729910159119,34.10059403124259,0.35821588578688995,0.12215374496760698,0.076171875,,
1.4742400000002236,1200,,,,-0.03125,0.111328125,-1,0.007512952471559385,0.3119963614732218,15.141442227629835,0.1676756293991455,1110,0,2.538850855528632,0.872999647634038,34.385621578872325,0.35738429255816934,0.1228888104213821,0.078125,,
1.4833650000002234,1200,,,,-0.0625,0.0703125,-1.017578125,0.007512952471559385,0.3119963614732218,15.141509174165694,0.16694654152029662,1111,0,2.527822590024805,0.8737415882607569,34.564988528415,0.3570808184766301,0.12342494394361758,0.078125,,
1.492179999999702,1200,,,,-0.03125,-0.021484375,-1,0.007512952471559385,0.3119963614732218,15.141426464684065,0.1674451719117751,1111,0,2.5353587573685243,0.874008848858307,34.47278797598845,0.35697162778245756,0.12305807237988131,0.078125,,
1.5095299999993295,1200,,,,-0.03125,0.05859375,-0.9765625,0.007512952471559385,0.3119963614732218,15.141922833017453,0.16508125244449998,1108,0,2.4996475856924927,0.8720057081065736,34.885145934081606,0.3577916504132455,0.1248161393866198,0.078125,,
1.527230000000447,1200,,,,-0.09375,0.04296875,-0.896484375,0.007512952471559385,0.3119963614732218,15.141661278938495,0.1638328424999281,1108,0,2.4807014074995903,0.8717607192071757,35.14170293013468,0.3578921997735427,0.1257694136545425,0.078125,,
1.5415800000000746,1200,,,,-0.0625,0.083984375,-0.984375,0.007512952471559385,0.3119963614732218,15.141711153930784,0.16448791553701844,1105,0,2.4906285053736967,0.8691612734969495,34.89726675903999,0.35896256654182007,0.12526812441119536,0.078125,,
1.5505049999998883,1200,,,,-0.0625,0.015625,-1.02734375,0.007512952471559385,0.3119963614732218,15.141618235696237,0.1704197043779799,1104,0,2.580430103531582,0.8682735042905754,33.64840237688494,0.3593295890424977,0.12090866598022668,0.078125,,
1.5668449999997391,1200,,,,-0.0625,0.076171875,-1,0.007512952471559385,0.3119963614732218,15.141593658926828,0.17240979156501754,1103,0,2.6105590066977657,0.867845704446041,33.24367318338554,0.3595067186192663,0.11951323861010234,0.078125,,
1.5823050000006333,1200,,,,-0.0625,0.095703125,-0.984375,0.007512952471559385,0.3119963614732218,15.141683934326553,0.17099793838848357,1109,0,2.589196736499863,0.8723985860645458,33.693792895934,0.35763052170987614,0.12049928731757394,0.078125,,
1.6077350000003352,1200,,,,-0.041015625,0.01953125,-1.01953125,0.008421797164523823,0.3088622109655454,15.141805685591564,0.16709386726181955,1110,0,2.5301028693325014,0.9793684948486613,38.70864330141015,0.3153687428073464,0.12207496173743727,0.078125,,
1.6197450000001117,1200,,,,-0.01953125,0.0546875,-0.962890625,0.008421797164523823,0.3088622109655454,15.142060862319632,0.16689537583869196,1111,0,2.527139938589183,0.9797002845172955,38.76715608650581,0.3152619386220999,0.12221808782697359,0.078125,,
1.626875,1200,,,,-0.03125,0.03125,-0.93359375,0.008421797164523823,0.3088622109655454,15.14218441395516,0.16664139163136485,1111,0,2.5233146830802506,0.9798709541838316,38.83268942848173,0.31520702766703335,0.12240336611068753,0.078125,,
1.635410000000149,1200,,,,-0.125,-0.0078125,-0.90625,0.008421797164523823,0.3088622109655454,15.142275510465318,0.16624272308327534,1111,0,2.5172931145369475,0.9799547625621747,38.928909665032634,0.31518007031059164,0.12269616485339657,0.078125,,
1.643019999999553,1200,,,,-0.03125,0.09765625,-0.958984375,0.008421797164523823,0.3088622109655454,15.142166308557526,0.16473334329117278,1111,0,2.4944196806796373,0.9799864802722548,39.28715315480692,0.3151698693636456,0.12382126927470033,0.078125,,
1.651234999999404,1200,,,,-0.03125,0.0625,-0.984375,0.008421797164523823,0.3088622109655454,15.142059436828465,0.1648633013964737,1109,0,2.49636990869717,0.9784022432153523,39.192999395108494,0.3156801950397439,0.12372453693240415,0.078125,,
1.6601850000005216,1200,,,,-0.125,-0.01171875,-0.984375,0.008421797164523823,0.3088622109655454,15.142384414442308,0.16535636886092814,1107,0,2.5038897026684914,0.9760656997261379,38.98197666957563,0.3164358823921435,0.12335296184827113,0.078125,,
1.668320000000298,1200,,,,0.12109375,0.0859375,-1,0.008421797164523823,0.3088622109655454,15.142464082862373,0.16652494746745133,1106,0,2.5215980359264254,0.9752674682535486,38.67656360603244,0.31669487706653193,0.12248669556568344,0.078125,,
1.6775650000004099,1200,,,,-0.0625,0.02734375,-0.94921875,0.008421797164523823,0.3088622109655454,15.142402834934952,0.16868753238470624,1105,0,2.5543345686003573,0.9749381753197721,38.16799049366456,0.3168018432186646,0.12091689740345403,0.080078125,,
1.688410000000149,1200,,,,-0.09375,0.0234375,-0.935546875,0.008421797164523823,0.3088622109655454,15.142325159653392,0.17048571808895607,1105,0,2.581550178379975,0.9748028087250683,37.760366499511385,0.3168458361024854,0.11964214895073963,0.080078125,,
1.6959499999992549,1200,,,,-0.03125,0.12109375,-1.00390625,0.008421797164523823,0.3088622109655454,15.142398013696145,0.16940672302412474,1107,0,2.565224026227279,0.9760286184995272,38.048474851336465,0.31644790440711346,0.12040360132592184,0.080078125,,
1.7030550000006333,1200,,,,-0.0625,0.015625,-0.94921875,0.008421797164523823,0.3088622109655454,15.142467941271228,0.16799239723280013,1107,0,2.5438194894749775,0.9765617183686631,38.38958394686319,0.3162751571723462,0.12141671696575133,0.080078125,,
1.7102200000006706,1200,,,,-0.03125,0.001953125,-0.974609375,0.008421797164523823,0.3088622109655454,15.14244776166834,0.1665620431248729,1108,0,2.522157037095137,0.9767908143140215,38.7283900228127,0.31620097818226567,0.12245954808637673,0.080078125,,
1.718554999999702,1200,,,,-0.03125,0.09765625,-0.970703125,0.008421797164523823,0.3088622109655454,15.142327148751843,0.16628070769601797,1108,0,2.5178768744590823,0.976898384318186,38.798497028495646,0.3161661600874813,0.12266771822665018,0.080078125,,
1.7264599999999628,1200,,,,-0.0625,0.0234375,-0.96484375,0.008421797164523823,0.3088622109655454,15.142278955399684,0.1661228818897864,1108,0,2.51547901845006,0.9769402962790958,38.837147482194,0.3161525961636744,0.12278465004087143,0.080078125,,
1.7362749999994411,1200,,,,-0.03125,0.029296875,-0.947265625,0.008421797164523823,0.32593104143324747,15.142626617227336,0.16540767262703873,1106,0,2.504706626215822,0.9757392385554292,38.956228579536365,0.33403498450650054,0.13012743209997127,0.080078125,,
1.7443100000005216,1200,,,,-0.125,-0.01953125,-0.90234375,0.008787057085231025,0.32593104143324747,15.142562748345718,0.16443181456400963,1106,0,2.489919069859863,1.0176859828344336,40.87225143794375,0.3202668081616615,0.13090025510411124,0.080078125,,
1.753355000000447,1200,,,,-0.03125,0.095703125,-0.935546875,0.008787057085231025,0.32593104143324747,15.142714643246387,0.16387925988189833,1106,0,2.481576868338002,1.0175324434376665,41.003462613638206,0.3203151344561662,0.13134029640255906,0.080078125,,
1.7655999999996275,1200,,,,0,0.033203125,-0.982421875,0.008787057085231025,0.32593104143324747,15.142638773698506,0.16287815309816042,1106,0,2.4664050364926053,1.0174771702166743,41.25345006850925,0.3203325351897966,0.13214822245771254,0.080078125,,
1.7733899999996647,1200,,,,-0.0625,0.0625,-0.96484375,0.008787057085231025,0.32593104143324747,15.142521370027177,0.16529831299906433,1104,0,2.503033237017773,1.0155943961697105,40.574546959661454,0.3209263881944292,0.13021442808389413,0.080078125,,
1.7816749999998138,1200,,,,-0.0625,0.0703125,-0.95703125,0.008787057085231025,0.32593104143324747,15.142497228330921,0.16479132545176708,1103,0,2.4953521889063617,1.0146546661759066,40.66178195954774,0.32122361656467474,0.13061524657010173,0.080078125,,
1.7908499999996275,1200,,,,-0.03125,0.001953125,-0.94140625,0.008787057085231025,0.32593104143324747,15.142366365328058,0.16515380513784544,1102,0,2.5008194240252553,1.0142400771571818,40.556309960384375,0.32135492254141756,0.1303296984588504,0.080078125,,
1.800394999999553,1200,,,,-0.03125,0.060546875,-0.97265625,0.008787057085231025,0.32593104143324747,15.142383013383466,0.16527651525882933,1102,0,2.5026802971665103,1.0140810011494517,40.519798006064775,0.32140533257580767,0.13023279154043796,0.080078125,,
1.8075300000002608,1200,,,,-0.0625,0.072265625,-1.005859375,0.008787057085231025,0.32593104143324747,15.142253534115834,0.1642108282339518,1102,0,2.486521994165645,1.0138917920944168,40.77550065808403,0.32146531215127516,0.1310790904717551,0.080078125,,
1.816570000000298,1200,,,,-0.03125,-0.015625,-0.953125,0.008787057085231025,0.32593104143324747,15.142240958578245,0.1611376001632659,1102,0,2.4399843691592094,1.0136994623173987,41.54532607381858,0.3215263039482559,0.1335791513883999,0.080078125,,
1.8250199999995529,1200,,,,-0.0625,0.0234375,-0.88671875,0.008787057085231025,0.32593104143324747,15.1421910291353,0.1607635117585582,1102,0,2.4343118055627273,1.0136202220969195,41.63888207667818,0.32155143941286013,0.13389042467298215,0.080078125,,
1.8323849999997766,1200,,,,-0.03125,0.095703125,-1.05078125,0.008787057085231025,0.32593104143324747,15.142182853563034,0.16160426594290894,1102,0,2.447041344823356,1.0135954343543951,41.421263130622066,0.32155930303775265,0.1331939250322619,0.080078125,,
1.8404850000003352,1200,,,,-0.0625,0.0078125,-0.98046875,0.008787057085231025,0.32593104143324747,15.1421407684409,0.16189016488182353,1102,0,2.4513636656666793,1.0135836455580245,41.34774696035839,0.3215630430321391,0.13295907335095725,0.080078125,,
1.8480649999994785,1200,,,,-0.03125,0.025390625,-0.962890625,0.008787057085231025,0.32593104143324747,15.142036818592441,0.16183994751013622,1101,0,2.4505864439175506,1.0128272556148177,41.32999503562479,0.321803189661792,0.13300124231170085,0.080078125,,
1.8552050000000746,1200,,,,-0.0625,0.18359375,-1.046875,0.008787057085231025,0.32593104143324747,15.142063771101942,0.16114847325068563,1100,0,2.440120458577597,1.0121969264767743,41.48143272676003,0.3220035873530448,0.13357170146560726,0.080078125,,
1.8623549999995157,1200,,,,-0.0625,0.0546875,-1.0078125,0.008787057085231025,0.32593104143324747,15.141974563665038,0.16141751203845386,1100,0,2.4441798614163632,1.011918598640982,41.40115114337745,0.3220921543204923,0.13334985963118753,0.080078125,,
1.8703300000000744,1200,,,,0.0625,0,-0.98828125,0.008787057085231025,0.32593104143324747,15.14207418826298,0.1617098346671194,1100,0,2.4486223135012626,1.0117884419100291,41.32072293596321,0.32213358833983413,0.13310792752157913,0.080078125,,
1.8781599999992178,1200,,,,-0.0625,0.03515625,-0.96484375,0.008787057085231025,0.32593104143324747,15.142070555167859,0.16262698217980967,1100,0,2.462509238340704,1.011737231043372,41.085621742686506,0.32214989370028946,0.1323572867701676,0.08203125,,
1.8862949999999254,1200,,,,0,0.0234375,-1.02734375,0.008787057085231025,0.3146871413070523,15.142164595963644,0.16285789898253955,1099,0,2.466021112146434,1.0113730213861498,41.012342368222754,0.3111484434059294,0.1276092648830356,0.080078125,,
1.894535000000149,1200,,,,-0.03125,0.0625,-0.96875,0.007728818912489249,0.3146871413070523,15.142156499078947,0.16211759188512018,1099,0,2.4548099475783007,0.8891396363560898,36.220304436733954,0.3539231954574836,0.12819205886691754,0.08203125,,
1.9021650000000372,1200,,,,-0.03125,-0.0390625,-0.9921875,0.007728818912489249,0.3146871413070523,15.142311822095847,0.16258590358399394,1098,0,2.461926449946047,0.8889704206361442,36.10873186953354,0.3539905648175147,0.12782150389340374,0.08203125,,
1.912464999999851,1200,,,,-0.03125,0.076171875,-1,0.007728818912489249,0.3146871413070523,15.142296455449772,0.16282181934315607,1098,0,2.4654962579097552,0.8889031213813742,36.053720159972386,0.3540173656022513,0.12763643031194202,0.08203125,,
1.9230499999998136,1200,,,,-0.0625,0.02734375,-0.8828125,0.007728818912489249,0.3146871413070523,15.142156399224422,0.16230484140096135,1098,0,2.457645292844672,0.8888432021530013,36.16645594630071,0.354041230832166,0.1280441657806561,0.08203125,,
1.9347400000002235,1200,,,,-0.0625,0.03125,-0.9921875,0.007728818912489249,0.3146871413070523,15.142299455993781,0.16303378264889098,1098,0,2.46870635831291,0.888720768950345,35.99945234303557,0.3540900047590028,0.1274704625146696,0.08203125,,
1.9419749999996274,1200,,,,0,0.04296875,-0.927734375,0.007728818912489249,0.3146871413070523,15.142394294072325,0.16327531187383773,1098,0,2.47237915088128,0.888692792370926,35.94484252361339,0.3541011517236509,0.12728110136136764,0.08203125,,
1.9498099999995901,1200,,,,-0.03125,0.029296875,-0.9765625,0.007728818912489249,0.3146871413070523,15.142377481298753,0.16289412009627793,1098,0,2.4666042559818537,0.888684196482671,36.028649278760064,0.35410457680304724,0.12757909605640744,0.08203125,,
1.9571650000000373,1200,,,,-0.125,0.01953125,-0.91015625,0.007728818912489249,0.3146871413070523,15.142259906233033,0.1633297731167523,1098,0,2.4731818749599364,0.8886800970383844,35.93266253630378,0.3541062102727166,0.1272397895573895,0.08203125,,
1.9646299999998882,1200,,,,0,0.1796875,-0.99609375,0.007728818912489249,0.3146871413070523,15.142336224448824,0.16350674687316138,1098,0,2.475874136119256,0.8887303987879716,35.89562109893796,0.35408616801699905,0.12710142923513082,0.08203125,,
1.972714999999851,1200,,,,-0.0625,0.0625,-1,0.007728818912489249,0.3146871413070523,15.142319885251231,0.16496162450967197,1098,0,2.4979016871161526,0.8887533587927258,35.57999753860604,0.3540770205746624,0.1259805952052345,0.08203125,,
1.9804699999997393,1200,,,,-0.03125,0.01953125,-0.990234375,0.007728818912489249,0.3146871413070523,15.142402231906427,0.1634849535755976,1098,0,2.475554925906248,0.8887625152576766,35.90154700091413,0.35407337270048556,0.12711781831778668,0.08203125,,
1.987554999999702,1200,,,,-0.0625,0.09375,-0.99609375,0.007728818912489249,0.3146871413070523,15.142413599056136,0.1632788076883684,1098,0,2.4724352379780212,0.888765877695004,35.94698312186508,0.35407203314689223,0.1272782139945579,0.08203125,,
1.995524999999441,1200,,,,-0.03125,0.08984375,-1.01171875,0.007728818912489249,0.3146871413070523,15.142491355313282,0.16252282882512,1098,0,2.46100053052544,0.8887674582311968,36.114070159970225,0.35407140348425326,0.12786959507069448,0.08203125,,
2.003209999999963,1200,,,,-0.0625,0.0078125,-0.98046875,0.007728818912489249,0.3146871413070523,15.142434920412313,0.16275910875864766,1098,0,2.464569212082132,0.8888230895830026,36.06403444568318,0.35404924218911765,0.12768444065776363,0.08203125,,
2.011280000000261,1200,,,,-0.03125,0.03125,-0.951171875,0.007728818912489249,0.3146871413070523,15.142511912818538,0.1629855154714551,1098,0,2.468010109643379,0.8888452451743877,36.01465171075914,0.35404041706417855,0.12750642312098298,0.08203125,,
2.0183250000001864,1200,,,,-0.0625,0.08984375,-1.01953125,0.007728818912489249,0.3146871413070523,15.142404010225807,0.16317376231817676,1098,0,2.4708430328903925,0.8888533380013586,35.973686963092014,0.3540371935989414,0.12736023175819924,0.08203125,,
2.0265049999998883,1200,,,,-0.03125,0.04296875,-1.017578125,0.007728818912489249,0.3146871413070523,15.14218949532116,0.16274374128945854,1098,0,2.4642965697825034,0.8888571357240713,36.069406037542024,0.35403568094292814,0.12769856727708154,0.08203125,,
2.035674999999814,1200,,,,0,-0.017578125,-0.9375,0.007728818912489249,0.32209854889455614,15.142067739763023,0.16227669901739825,1098,0,2.4572047691065797,0.888858746674073,36.17357242055391,0.3623731555770619,0.13108331586531496,0.083984375,,
2.0490449999999254,1200,,,,-0.03125,0.056640625,-0.98828125,0.007283252192668518,0.32209854889455614,15.141826878237024,0.1631881379733343,1098,0,2.4709665337740856,0.8373619830986372,33.8880341620683,0.38465867258821385,0.13035326237405237,0.083984375,,
2.0574449999993667,1200,,,,-0.03125,0.0546875,-0.95703125,0.007283252192668518,0.32209854889455614,15.141674399087568,0.1623597938076933,1098,0,2.458399133339086,0.8373057657614392,34.05898393009033,0.3846844988600338,0.13101963164828745,0.083984375,,
2.064609999999404,1200,,,,-0.03125,-0.0390625,-0.994140625,0.007283252192668518,0.32209854889455614,15.141397157800018,0.161650104779373,1098,0,2.4476084370644733,0.8372863196187686,34.20834423266508,0.384693433234659,0.13159725388136978,0.083984375,,
2.073464999999851,1200,,,,-0.0625,0.109375,-0.98828125,0.007283252192668518,0.32209854889455614,15.141451781469666,0.16208279681705037,1098,0,2.4541688526111134,0.8372791522055221,34.116607392955004,0.38469672634998614,0.13124547178237525,0.083984375,,
2.081620000000112,1200,,,,-0.03125,0.091796875,-0.978515625,0.007283252192668518,0.32209854889455614,15.141520654840951,0.16090680104112082,1098,0,2.4363736514685144,0.8377974525446882,34.387067518962425,0.3844587351229447,0.1322040848292759,0.083984375,,
2.0899150000000373,1200,,,,-0.03125,-0.009765625,-0.93359375,0.007283252192668518,0.32209854889455614,15.141653306075973,0.1595113969752392,1099,0,2.4152662713669275,0.8382271950565807,34.70537410279751,0.3842616307298576,0.13335943647830742,0.083984375,,
2.0981150000002233,1200,,,,-0.0625,0,-0.97265625,0.007283252192668518,0.32209854889455614,15.141579561450392,0.15947460190577234,1099,0,2.4146973727868803,0.8383703408711108,34.71947873548727,0.38419602077034215,0.1333908557339472,0.083984375,,
2.104594999999739,1200,,,,-0.03125,0.126953125,-0.994140625,0.007283252192668518,0.32209854889455614,15.141504896528506,0.158307971996041,1099,0,2.3970209331375525,0.8384333000663238,34.978138424885024,0.3841671709235269,0.1343745248285959,0.083984375,,
2.1128300000000744,1200,,,,-0.0625,0.0546875,-0.99609375,0.007283252192668518,0.32209854889455614,15.141526859983312,0.15957577666888675,1099,0,2.416220908634647,0.8384579306334276,34.7012116167483,0.38415588561637337,0.1333067468059313,0.083984375,,
2.1205649999994787,1200,,,,-0.0625,0,-0.921875,0.007283252192668518,0.32209854889455614,15.141452679029621,0.1599541674789264,1099,0,2.421938457695743,0.8383653224399286,34.615467613390884,0.38419832055689007,0.13299204522356195,0.083984375,,
2.1288950000004845,1200,,,,0,0.08984375,-0.966796875,0.007283252192668518,0.32209854889455614,15.141446791855516,0.16010614832664263,1099,0,2.4242387259367866,0.8382758689939214,34.57893234792669,0.3842393188308416,0.13286585411265106,0.083984375,,
2.137575000000186,1200,,,,-0.125,0.08984375,-1.0390625,0.007283252192668518,0.32209854889455614,15.141367673657712,0.15979126870543028,1099,0,2.419458350509155,0.8382389997913553,34.6457296780891,0.3842562192581461,0.13312837099542266,0.083984375,,
2.1455449999999257,1200,,,,-0.03125,-0.00390625,-0.97265625,0.007283252192668518,0.32209854889455614,15.141496426751853,0.1598433652478178,1099,0,2.420267743739825,0.8382264569000095,34.63362510483128,0.3842619691172295,0.1330838498045038,0.083984375,,
2.153415000000037,1200,,,,-0.03125,0.103515625,-0.990234375,0.007283252192668518,0.32209854889455614,15.141422607920259,0.16000054142559952,1099,0,2.4226358152210543,0.8382214709370126,34.59956571559761,0.3842642548090491,0.1329537633642084,0.083984375,,
2.1608650000002236,1200,,,,-0.0625,0.08984375,-0.95703125,0.007283252192668518,0.32209854889455614,15.141354598135457,0.1586924541926092,1099,0,2.402818720978664,0.8381168766171195,34.88057044418882,0.3843122097655859,0.1340502910529039,0.083984375,,
2.1687800000002606,1200,,,,-0.0625,0.056640625,-0.962890625,0.007283252192668518,0.32209854889455614,15.141295359730133,0.15935715847205031,1099,0,2.412873804112635,0.8380767890620695,34.73355248142714,0.384330592492642,0.1334916680456117,0.083984375,,
2.1766299999998884,1200,,,,-0.0625,0.060546875,-0.9921875,0.007283252192668518,0.32209854889455614,15.141036639714372,0.16038480490490045,1099,0,2.428392207518539,0.8380584098509339,34.51083425717738,0.3843390211332025,0.13263860256893745,0.083984375,,
2.1847800000002606,1200,,,,0,0.05859375,-1.0078125,0.007283252192668518,0.28853963172226227,15.141184851508118,0.16138492242013566,1099,0,2.443558942609571,0.8380510515495281,34.296330525775694,0.3442983946965549,0.11808171544007023,0.083984375,,
2.193364999999292,1200,,,,-0.0625,0.021484375,-0.978515625,0.00790914562022773,0.28853963172226227,15.141046911154936,0.1614748831450414,1099,0,2.4448987806723332,0.910066539500003,37.22307633732551,0.3170533353317088,0.11801700504055859,0.083984375,,
2.203530000000261,1200,,,,-0.0625,0.041015625,-0.927734375,0.00790914562022773,0.28853963172226227,15.140734049176343,0.15982201619696276,1099,0,2.419822642441367,0.9102551947665597,37.61660787867495,0.31698762432908717,0.11923999166779996,0.083984375,,
2.211480000000447,1200,,,,0.0625,0.06640625,-1.015625,0.00790914562022773,0.28853963172226227,15.140746820099624,0.16002805191577701,1099,0,2.4229442181705383,0.9103088098092665,37.57035770706277,0.31696895450536056,0.11908637002800099,0.083984375,,
2.219410000000149,1200,,,,-0.0625,0.041015625,-0.99609375,0.00790914562022773,0.28853963172226227,15.140905345847578,0.16038579322630309,1099,0,2.428386114058137,0.9103304933624048,37.48705727200559,0.31696140448564974,0.11881950322968882,0.083984375,,
2.2299049999993295,1200,,,,0,-0.001953125,-0.99609375,0.00790914562022773,0.28853963172226227,15.14095274499909,0.16012433016040675,1099,0,2.424434916283351,0.9103385409902385,37.54848335486703,0.31695860246496615,0.11901314808837697,0.083984375,,
2.237910000000149,1200,,,,-0.03125,0.07421875,-1,0.00790914562022773,0.28853963172226227,15.140883912362169,0.15970674146391758,1099,0,2.418101232526814,0.9103430067626995,37.64701802047507,0.31695704759500215,0.11932487682525621,0.083984375,,
2.245715000000782,1200,,,,-0.03125,0.037109375,-0.9609375,0.00790914562022773,0.28853963172226227,15.141019234434093,0.16060395517018902,1099,0,2.4317075743580228,0.9103439853908533,37.43640867801247,0.31695670686326194,0.11865720811370072,0.08203125,,
2.2531150000002236,1200,,,,0,-0.0546875,-0.8984375,0.00790914562022773,0.28853963172226227,15.1410998398252,0.16114750983981324,1099,0,2.4399505354238262,0.9103444398982062,37.309954717589264,0.31695654861639677,0.11825634476321142,0.083984375,,
2.2615600000005216,1200,,,,-0.03125,0.046875,-0.978515625,0.00790914562022773,0.28853963172226227,15.141046475569205,0.16271332066727234,1099,0,2.463649950417366,0.9103446186446141,36.95105380090191,0.31695648638189416,0.11711876180842205,0.08203125,,
2.269299999999814,1200,,,,0,0.0703125,-1.0078125,0.00790914562022773,0.28853963172226227,15.140994701847642,0.16272883168417238,1099,0,2.4638763783679107,0.9103446904737347,36.94766094866957,0.3169564613730092,0.11710799870300027,0.08203125,,
2.2767050000000744,1200,,,,-0.03125,0.001953125,-0.970703125,0.00790914562022773,0.28853963172226227,15.140951324824945,0.16207871043015415,1099,0,2.454025865413361,0.9102387350443176,37.09165204299895,0.3169933563728354,0.11757807274523575,0.08203125,,
2.2842750000003726,1200,,,,-0.0625,-0.01953125,-0.94921875,0.00790914562022773,0.28853963172226227,15.141097519060835,0.16316379966132516,1099,0,2.4704790022526297,0.910134641949953,36.840411965455885,0.31702961124968215,0.1167950148368662,0.08203125,,
2.292285000000149,1200,,,,-0.0625,0.11328125,-0.970703125,0.00790914562022773,0.28853963172226227,15.141239220863161,0.16495871131320997,1099,0,2.4976793095586185,0.9100923964072847,36.43751993798248,0.3170443274345685,0.11552309002121336,0.083984375,,
2.3065250000003727,1200,,,,0,0.01171875,-0.994140625,0.00790914562022773,0.28853963172226227,15.14142590066799,0.16500679996165526,1099,0,2.4984382347257488,0.9100699373888437,36.42555276091271,0.31705215156335675,0.11548799874731945,0.083984375,,
2.313875,1200,,,,-0.0625,0.103515625,-0.984375,0.00790914562022773,0.28853963172226227,15.141538466831973,0.16425672258843324,1099,0,2.4870994835085103,0.9099609239835025,36.58723464892669,0.31709013444130435,0.11601451153663712,0.083984375,,
2.321625,1200,,,,-0.0625,0.046875,-0.94140625,0.00790914562022773,0.28853963172226227,15.14127349339841,0.16471734950012032,1099,0,2.4940304378890135,0.9099113966766004,36.48357224728835,0.3171073939464182,0.11569210517193478,0.083984375,,
2.3325750000001864,1200,,,,-0.0625,0.0546875,-1.0234375,0.00790914562022773,0.31104987104869786,15.141192724908999,0.1654361488539288,1099,0,2.504900613464069,0.9098885823918595,36.324338678394085,0.3418549007737067,0.12417653194572927,0.083984375,,
2.339910000000149,1200,,,,-0.0625,0.064453125,-0.935546875,0.008177468471319102,0.31104987104869786,15.141339323546045,0.16553695402080515,1099,0,2.5064511914152505,0.940750337807749,37.53316007229172,0.33064019065201095,0.1240997120207498,0.083984375,,
2.3467750000003726,1200,,,,0,0.0625,-0.9921875,0.008177468471319102,0.31104987104869786,15.14153777206097,0.16506055452886037,1099,0,2.4992706210760685,0.9407480608620952,37.640904227372275,0.33064099091913496,0.12445625872830625,0.083984375,,
2.3547900000000372,1200,,,,-0.0625,0.037109375,-0.994140625,0.008177468471319102,0.31104987104869786,15.141646335377816,0.16487540567147546,1098,0,2.496485082079427,0.9406920106681774,37.68065819502657,0.3306606918323435,0.1245951250746555,0.083984375,,
2.362625,1200,,,,0,0.02734375,-0.98828125,0.008177468471319102,0.31104987104869786,15.141565365503666,0.16499805671539888,1098,0,2.4983288609372933,0.9406664238936819,37.65182553031765,0.33066968603086233,0.12450317326598942,0.08203125,,
2.3703349999999626,1200,,,,-0.0625,0.06640625,-0.970703125,0.008177468471319102,0.31104987104869786,15.141685325339342,0.16596980847005902,1098,0,2.5130626133604737,0.9406563601259254,37.43067741826287,0.33067322375522734,0.12377322769238971,0.083984375,,
2.381674999999814,1200,,,,-0.0625,0.052734375,-1.0078125,0.008177468471319102,0.31104987104869786,15.141797440639587,0.16509238717492175,1098,0,2.49979548559431,0.9406524365173441,37.62917574409933,0.33067460304501384,0.12443012752091108,0.083984375,,
2.3892949999999256,1200,,,,0,0.02734375,-0.990234375,0.008177468471319102,0.31104987104869786,15.141743674366127,0.16590531026781077,1098,0,2.5120956822913736,0.9406336969003629,37.44418270097009,0.33068119085430336,0.12382086926122891,0.083984375,,
2.3982749999994413,1200,,,,-0.0625,0.08984375,-1.0625,0.008177468471319102,0.31104987104869786,15.141756262698467,0.16629653329569496,1098,0,2.5180215744951333,0.9405850624778196,37.3541304016193,0.33069828924274763,0.12352947019966012,0.083984375,,
2.4073300000000746,1200,,,,-0.0625,0.0703125,-1.001953125,0.008177468471319102,0.31104987104869786,15.141443489772293,0.16729815500728148,1098,0,2.533135559985918,0.9405648681632722,37.13045930192938,0.33070538947102457,0.12279243004682583,0.083984375,,
2.4151500000003727,1200,,,,0,-0.005859375,-0.953125,0.008177468471319102,0.31104987104869786,15.141510439910721,0.16920220873223676,1098,0,2.561977009975116,0.9405575277940378,36.71217673429369,0.3307079703866994,0.12141009456276074,0.083984375,,
2.423125,1200,,,,-0.0625,0.04296875,-0.982421875,0.008177468471319102,0.31104987104869786,15.141534955960903,0.169761809230417,1098,0,2.5704543686495254,0.9405550031403743,36.59100175485809,0.33070885807863254,0.12100968406302359,0.083984375,,
2.431964999999851,1200,,,,-0.0625,0.1015625,-1.0625,0.008177468471319102,0.31104987104869786,15.141590567037465,0.16857791376714823,1101,0,2.5525377489075067,0.9431369207020296,36.9489901219167,0.3298035144432327,0.12185906797336417,0.083984375,,
2.4406100000003352,1200,,,,-0.03125,0.05078125,-0.96484375,0.008177468471319102,0.31104987104869786,15.141650393643562,0.16682080314478118,1103,0,2.525942279605111,0.9442193478392247,37.38087586018939,0.32942543674889974,0.12314211356299291,0.0859375,,
2.4490900000007825,1200,,,,-0.03125,-0.009765625,-0.990234375,0.008177468471319102,0.31104987104869786,15.141667747444748,0.16620231917061037,1103,0,2.516580295736149,0.9445820540591154,37.53434991363177,0.3292989420157152,0.12360021715806595,0.0859375,,
2.456375,1200,,,,-0.09375,0.119140625,-0.990234375,0.008177468471319102,0.31104987104869786,15.141777085856603,0.16646046063649747,1103,0,2.5205071885668526,0.9447197303485232,37.48133449624025,0.3292509524850785,0.12340765083298937,0.0859375,,
2.465034999999218,1200,,,,0,0.0625,-0.90625,0.008177468471319102,0.31104987104869786,15.142089552835978,0.1665059848417054,1103,0,2.521248533556253,0.9447780827900271,37.472627954587466,0.3292306169191981,0.12337136419072421,0.0859375,,
2.4737050000000744,1200,,,,-0.03125,-0.017578125,-0.974609375,0.008177468471319102,0.31104987104869786,15.142267364569422,0.1667911154235217,1103,0,2.5255956637777244,0.9448016784266146,37.40906321534474,0.32922239465820125,0.12315901373675825,0.0859375,,
2.482070000000298,1200,,,,-0.03125,0.09375,-1.029296875,0.008177468471319102,0.28289691165492087,15.142221457582881,0.16639292314171508,1103,0,2.5195584911864173,0.9448097054991901,37.49901853059562,0.29942210585723433,0.11228035096010394,0.0859375,,
2.4898250000001863,1200,,,,0,0.01171875,-0.9765625,0.007603746053951971,0.28289691165492087,15.142407148936789,0.16708095525177336,1103,0,2.5300078512556405,0.8785258075568451,34.724232461208906,0.32201320578350345,0.11181661413205474,0.0859375,,
2.4976899999994786,1200,,,,-0.03125,-0.03515625,-0.9453125,0.007603746053951971,0.28289691165492087,15.142484887975062,0.16709491727838802,1103,0,2.5302322597454334,0.8785269602198771,34.72119829458919,0.32201278328910665,0.1118066970197365,0.0859375,,
2.5044300000006334,1200,,,,-0.0625,0.046875,-1,0.007603746053951971,0.28289691165492087,15.142210598520414,0.16710643566526817,1103,0,2.530360841211593,0.8784937563366554,34.71812170140971,0.3220249542064013,0.11180101551028727,0.0859375,,
2.5125449999999256,1200,,,,-0.0625,0.103515625,-0.9609375,0.007603746053951971,0.28289691165492087,15.141901595946234,0.16647150572720604,1103,0,2.5206951582503536,0.878404101820537,34.84769266705968,0.32205782175721026,0.11222971993617951,0.0859375,,
2.5196600000001492,1200,,,,-0.0625,0.03125,-0.90234375,0.007603746053951971,0.28289691165492087,15.141764093496734,0.16650958285105594,1103,0,2.5212488228372383,0.8783720922519221,34.83877054480736,0.32206955816372235,0.1122050743633341,0.0859375,,
2.5283199999993666,1200,,,,-0.0625,-0.01171875,-0.943359375,0.007603746053951971,0.28289691165492087,15.141678068123111,0.16718607810725988,1103,0,2.5314777721722144,0.8783568346701655,34.697394712514644,0.32207515270391496,0.11175168700461165,0.0859375,,
2.5380800000000745,1200,,,,0,0.1015625,-0.958984375,0.007603746053951971,0.28289691165492087,15.141586299519107,0.1671959904893973,1103,0,2.531612518928785,0.878350423315946,34.695294668854274,0.3220775036311012,0.11174573894690039,0.0859375,,
2.545054999999702,1200,,,,-0.0625,0.04296875,-0.970703125,0.007603746053951971,0.28289691165492087,15.14157225211126,0.16696349873160204,1103,0,2.528089879509839,0.878114633557492,34.73431228353898,0.32216398730177753,0.11190144541450028,0.0859375,,
2.553875,1200,,,,-0.0625,0.015625,-0.9375,0.007603746053951971,0.28289691165492087,15.141302997814561,0.166983020041528,1102,0,2.528340501938917,0.8776030005269356,34.71063331279648,0.32235180541208525,0.11189035315376816,0.0859375,,
2.561785000000149,1200,,,,-0.03125,0.091796875,-0.958984375,0.007603746053951971,0.28289691165492087,15.141337481887962,0.16668001139598923,1102,0,2.5237583040316043,0.8773962042782867,34.76546081598546,0.322427781514762,0.1120935040423658,0.0859375,,
2.570070000000298,1200,,,,-0.125,0.0546875,-0.93359375,0.007603746053951971,0.28289691165492087,15.141535475345622,0.16606887518633678,1102,0,2.5145377649846625,0.8773151112595935,34.88971704765566,0.32245758453739093,0.11250453884380075,0.0859375,,
2.5788700000001117,1200,,,,-0.03125,0.052734375,-0.966796875,0.007603746053951971,0.28289691165492087,15.141451096393851,0.16566332799326805,1102,0,2.508383179275923,0.8772816902217229,34.97399031654173,0.3224698689236543,0.11278058073112368,0.0859375,,
2.5876100000003355,1200,,,,-0.09375,0.07421875,-0.966796875,0.007603746053951971,0.28289691165492087,15.141444741373796,0.16362541987822632,1101,0,2.477525253370249,0.8769241140128818,35.395163493085555,0.3226013598375802,0.11418527874542876,0.0859375,,
2.5959550000000746,1200,,,,-0.0625,0.076171875,-0.9921875,0.007603746053951971,0.28289691165492087,15.141766656717099,0.16253110333382864,1101,0,2.461008041139608,0.8766381164297345,35.62109923150815,0.3227066064695762,0.11495164051716024,0.0859375,,
2.6031749999998137,1200,,,,0,0,-0.984375,0.007603746053951971,0.28289691165492087,15.141874567268152,0.16276481271502458,1101,0,2.4645643780957944,0.876526267828736,35.56516014022607,0.32274778524971254,0.1147857666730932,0.0859375,,
2.6112649999996647,1200,,,,-0.09375,0.046875,-0.919921875,0.007603746053951971,0.28289691165492087,15.141781027935137,0.16277789419933153,1101,0,2.464747230154671,0.8764808596241132,35.5606793630157,0.32276450597705447,0.11477725106812198,0.0859375,,
2.61893499999959,1200,,,,-0.03125,0.09765625,-1.021484375,0.007603746053951971,0.28289691165492087,15.14169593247384,0.1626860877656797,1101,0,2.4633432733916747,0.8764635849459717,35.580245531074745,0.32277086751112394,0.11484266716323785,0.0859375,,
2.6268849999997763,1200,,,,-0.0625,0.0234375,-0.96484375,0.007603746053951971,0.28289691165492087,15.14162028613102,0.1631850466535769,1101,0,2.470886012803037,0.8763534284160077,35.46717347037186,0.3228114394055053,0.1144920931961549,0.0859375,,
2.6348099999995904,1200,,,,0,0.03515625,-0.984375,0.007603746053951971,0.3219944975079424,15.141540549318146,0.162749724850417,1101,0,2.46428155821296,0.8763039534916889,35.560220404650686,0.36744613124810727,0.13066465414018896,0.0859375,,
2.6429000000003726,1200,,,,-0.0625,0.02734375,-0.966796875,0.00736167903920525,0.3219944975079424,15.141466071236334,0.16391745941643687,1100,0,2.4819506502372377,0.8483879518080673,34.18230542686149,0.37953685789822245,0.12973444797428366,0.0859375,,
2.6515099999997767,1200,,,,-0.03125,0.052734375,-0.9921875,0.00736167903920525,0.3219944975079424,15.141590845829603,0.1634466370735341,1100,0,2.4748421036942574,0.848380434107446,34.28018429301198,0.37954022106450686,0.13010708724701803,0.0859375,,
2.659075000000186,1200,,,,-0.03125,0.060546875,-0.978515625,0.00736167903920525,0.3219944975079424,15.141576911294893,0.16177738262978775,1100,0,2.4495646815969137,0.8483773294490922,34.63379986749402,0.3795416100015718,0.13144968162180906,0.0859375,,
2.6680099999997764,1200,,,,-0.125,-0.0078125,-0.96484375,0.00736167903920525,0.3219944975079424,15.141564701729916,0.1611870890565988,1100,0,2.4406247380339927,0.8480027210836837,34.74531368418314,0.37970927392362336,0.13193117831269713,0.0859375,,
2.677019999999553,1200,,,,0,0.0390625,-1.03515625,0.00736167903920525,0.3219944975079424,15.141551934435986,0.1615300795853917,1100,0,2.4458160890157865,0.8478501740691817,34.665328185422254,0.37977759202732525,0.13165114865096633,0.0859375,,
2.6849150000000375,1200,,,,0,0.048828125,-0.98046875,0.00736167903920525,0.3219944975079424,15.141476025262753,0.1605422067386831,1100,0,2.4308459743765467,0.8477993236155151,34.876719156710664,0.37980037084102447,0.13246190869436975,0.087890625,,
2.695984999999404,1200,,,,-0.125,-0.015625,-0.94921875,0.00736167903920525,0.3219944975079424,15.141401100578003,0.15934544927471492,1100,0,2.412713361020265,0.8477788121086142,35.13798306111728,0.37980955988634646,0.13345741881736853,0.087890625,,
2.7103149999994787,1200,,,,-0.041015625,0.12109375,-1.029296875,0.00736167903920525,0.3219944975079424,15.141358914165203,0.1598475813555456,1099,0,2.420309600865538,0.8475827641956531,35.01960095900728,0.3798974107425505,0.13303855729564204,0.087890625,,
2.7182199999997394,1200,,,,0,-0.015625,-0.96875,0.00736167903920525,0.3219944975079424,15.141471868474563,0.16114322138672102,1099,0,2.4399455534224046,0.847490406716448,34.733988450181215,0.37993881105450056,0.13196790274942605,0.087890625,,
2.726860000000335,1200,,,,-0.03125,0.017578125,-0.966796875,0.00736167903920525,0.3219944975079424,15.141610508100078,0.16053271824374296,1099,0,2.4307238934533273,0.8474440787163875,34.86385603065861,0.37995958151676895,0.13246856147469924,0.087890625,,
2.7349399999994786,1200,,,,-0.0625,0.0625,-0.9765625,0.00736167903920525,0.3219944975079424,15.141531348713059,0.1615094441648054,1099,0,2.445500311934622,0.8474283297695956,34.65255455638031,0.37996664283749915,0.13166814820531111,0.08984375,,
2.7430049999998882,1200,,,,-0.03125,0.0390625,-0.98828125,0.00736167903920525,0.3219944975079424,15.141782932663416,0.1624336130986574,1099,0,2.459534510508103,0.8470718073041956,34.440330220420584,0.3801265662856721,0.1309168446843314,0.087890625,,
2.750709999999963,1200,,,,-0.125,0.09765625,-1.04296875,0.00736167903920525,0.3219944975079424,15.141826254485686,0.16224996299155467,1098,0,2.4567607494148533,0.846755692825719,34.46634732451655,0.38026847677092135,0.1310646539695143,0.08984375,,0.25052999999932946,8265,
2.7584799999995155,1200,,,,-0.03125,0.068359375,-0.92578125,0.00736167903920525,0.3219944975079424,15.142025626072737,0.16125065041975878,1098,0,2.441661480876884,0.8466326496914512,34.67444837551341,0.38032374209202874,0.13187515961152124,0.08984375,,
2.7664900000002235,1500,,,,0.0625,0,-1.03515625,0.00736167903920525,0.3219944975079424,15.141991320380924,0.16047655739207115,1098,0,2.4299346391553525,0.8465820087490137,34.83970289189698,0.38034649234248513,0.13251158789187348,0.08984375,,
2.773950000000186,1500,,,,-0.09375,0.017578125,-0.900390625,0.00736167903920525,0.3219944975079424,15.141899750316771,0.1607934754159979,1098,0,2.4347186852540643,0.8465630502655529,34.770466723436414,0.3803550100691709,0.13225121220702427,0.08984375,,
2.7815649999994783,1500,,,,0.0625,0.08203125,-0.9609375,0.00736167903920525,0.2878201749314524,15.140628287651579,0.1622788816783989,1098,0,2.4570042264284297,0.8467908980594884,34.46436473128935,0.33989521567960046,0.11714272683602009,0.08984375,,
2.788214999999851,1500,,,,-0.15625,0.1015625,-0.94921875,0.00736167903920525,0.2878201749314524,15.129252972086576,0.5726931664651764,1099,0,8.664419790836943,0.8469999321347829,9.775610514976751,0.33981133175067557,0.03321863227770157,0.09765625,,
2.795945000000298,1500,,,,0.0625,-0.109375,-0.76953125,0.008315578361110215,0.2878201749314524,15.119241431260882,0.8418856395340588,1099,0,12.728672241626906,0.9568514661036909,7.517292046962091,0.3007992202838536,0.022611955863722107,0.103515625,,
2.8037200000006703,1500,,,,-0.15625,0.314453125,-0.900390625,0.008315578361110215,0.2878201749314524,15.10957996653173,1.0912246809452137,1099,0,16.48794657819478,0.9568983540375796,5.803623571312831,0.3007844811489236,0.01745639904680993,0.10546875,,
2.811035000000149,1500,,,,-0.0625,0.01953125,-1.1484375,0.008315578361110215,0.2878201749314524,15.103113313320943,1.2587928866623546,1331,0,19.01169160526391,1.1592043870241757,6.097323747368268,0.24829113670827554,0.015139114441124295,0.107421875,,
2.818964999999851,1500,,,,-0.03125,0.1796875,-0.908203125,0.008315578361110215,0.2878201749314524,15.09770384244585,1.4106628853170697,1439,0,21.29777046404727,1.2534384285956033,5.885303490858494,0.22962450198206888,0.01351409883101713,0.109375,,
2.8269750000005587,1500,,,,0.125,0.109375,-1.0546875,0.008315578361110215,0.2878201749314524,15.093718798873791,1.5277728066996201,1482,0,23.059773132890232,1.2908286999823055,5.5977510816929605,0.22297317601893865,0.012481483372485287,0.109375,,
2.8347449999991805,1500,,,,-0.09375,-0.126953125,-0.994140625,0.008315578361110215,0.2878201749314524,15.090784688266126,1.614791509026833,1813,0,24.368470979164282,1.5788601568681992,6.47911047934919,0.18229617973409865,0.011811170884605218,0.11328125,,
2.8428600000003352,1500,,,,-0.1875,-0.109375,-0.916015625,0.008315578361110215,0.2878201749314524,15.088494500757283,1.6746049266288543,1943,0,25.267267226380522,1.6920971681675552,6.696795316277439,0.17009671805263127,0.011391029047690251,0.115234375,,
2.853089999999851,1500,,,,-0.03125,-0.103515625,-1.125,0.008315578361110215,0.2878201749314524,15.086787389210667,1.7163266402124504,2087,0,25.89385511132351,1.8169721511501011,7.017001305284705,0.15840648671982613,0.011115385240785843,0.119140625,,
2.8620800000000743,1500,,,,-0.15625,0.060546875,-0.8125,0.008315578361110215,0.2878201749314524,15.08526755984884,1.7528359365682364,2204,0,26.441999091650075,1.9190264206987833,7.257493709334476,0.14998239306504554,0.010884962741804987,0.12109375,,
2.871040000000037,1500,,,,0.125,0.2734375,-1.26171875,0.008315578361110215,0.2878201749314524,15.084548032709474,1.7689323944044015,2339,0,26.683545670008975,2.0366888539875134,7.632751955736729,0.14131769532098445,0.010786429153414512,0.125,,
2.8781100000003352,1500,,,,-0.125,0.0625,-0.8828125,0.008315578361110215,0.2878201749314524,15.084160527531235,1.775810269536579,2394,0,26.786607172128267,2.08496584912082,7.783613041110512,0.1380455104589935,0.010744928354753795,0.125,,
2.8869399999994783,1500,,,,-0.03125,-0.15234375,-0.927734375,0.008315578361110215,0.2878201749314524,15.084327453687175,1.777774014560913,2463,0,26.816525374292844,2.1448084774728398,7.998084940299238,0.1341938816236785,0.010732940636946417,0.126953125,,
2.895195000000298,1500,,,,0,0.271484375,-1.07421875,0.008315578361110215,0.2878201749314524,15.084469473380448,1.773282986385126,2498,0,26.74903307579135,2.1756220458058007,8.133460524129381,0.13229327928824622,0.010760021646985737,0.130859375,,
2.903354999999516,1500,,,,-0.3125,0.05859375,-0.91015625,0.008315578361110215,0.2878201749314524,15.084795943183588,1.765285487864351,2541,0,26.628971365897023,2.212681033775643,8.309299684813817,0.13007757129834746,0.010808535221907055,0.130859375,,
2.9118300000000743,1500,,,,-0.0625,-0.056640625,-0.943359375,0.008315578361110215,0.2878201749314524,15.085190045037859,1.7551576789183072,2562,0,26.476887145490203,2.2309260089186846,8.425937674092014,0.12901376996853292,0.010870619848545024,0.134765625,,
2.9199000000003723,1500,,,,0,0.15625,-1.083984375,0.008315578361110215,0.2878201749314524,15.085725069515249,1.7415548701773846,2594,0,26.272617964971346,2.2591440548981625,8.598853977590757,0.12740231164427748,0.010955138742366526,0.13671875,,
2.927929999999702,1500,,,,0,0.0390625,-0.9296875,0.008315578361110215,0.3245096973599202,15.086230241629833,1.7265772666579011,2607,0,26.047542174765006,2.2701422102495172,8.715379727646022,0.14294685852489059,0.012458361529185155,0.134765625,,
2.9366749999998136,1500,,,,-0.09375,0.029296875,-0.96875,0.008315578361110215,0.3245096973599202,15.086908035350817,1.710395967638922,2628,0,25.80458666780329,2.2880946201301646,8.867007441684969,0.14182529625521323,0.01257565957314151,0.13671875,,
2.945075000000186,1500,,,,-0.03125,0.078125,-0.94921875,0.008885148717327603,0.3245096973599202,15.087626546846028,1.6926483985796983,2636,0,25.538046912887474,2.4527972436116086,9.604482488337169,0.1323018843914296,0.012706911318114942,0.13671875,,
2.9528050000006334,1500,,,,0.0625,-0.140625,-1.046875,0.008885148717327603,0.3245096973599202,15.088236397348506,1.676729219185108,2651,0,25.29888683340649,2.4666252312398873,9.749935827147842,0.1315601953835526,0.012827034623966695,0.13671875,,
2.961459999999963,1500,,,,-0.0625,0.080078125,-0.982421875,0.008885148717327603,0.3245096973599202,15.088918446832137,1.6583936758466995,2657,0,25.02336692759302,2.472069830324308,9.879045603564965,0.13127044122266893,0.012968266752388406,0.13671875,,
2.9691800000006334,1500,,,,-0.03125,-0.04296875,-0.939453125,0.008885148717327603,0.3245096973599202,15.089650933946132,1.63973228766042,2667,0,24.742987845916684,2.481620020461791,10.029589134164857,0.13076526409532027,0.01311521871896622,0.13671875,,
2.9769399999994786,1500,,,,0,-0.06640625,-0.8828125,0.008885148717327603,0.3245096973599202,15.090419622118649,1.6226747310989826,2671,0,24.48684260249219,2.4854349429992864,10.150083387011795,0.13056455099497383,0.013252410799867382,0.13671875,,
2.984790000000037,1500,,,,-0.0625,0.17578125,-1.00390625,0.008885148717327603,0.3245096973599202,15.09127975161647,1.6043378861965663,2679,0,24.21151185670941,2.4929745288719087,10.296649559209845,0.13016968027618134,0.01340311581038229,0.13671875,,
2.992770000000484,1500,,,,-0.125,-0.09765625,-1.0078125,0.008885148717327603,0.3245096973599202,15.091707483120953,1.5862392304466328,2683,0,23.93905846415147,2.4959551809024076,10.426288003933317,0.13001423256430203,0.013555658333257786,0.13671875,,
3.0049050000002606,1500,,,,-0.03125,0.005859375,-0.875,0.008885148717327603,0.3245096973599202,15.092643364070032,1.5682736078734862,2688,0,23.66939426091794,2.5014317729423596,10.568212035204613,0.12972958162205203,0.013710097258202294,0.138671875,,
3.012344999999739,1500,,,,-0.03125,0.224609375,-1.015625,0.008885148717327603,0.3245096973599202,15.093440054842246,1.5435209253744318,2692,0,23.297040560533617,2.504733044689346,10.751292801251727,0.12955859629350963,0.01392922403670689,0.140625,,
3.0219749999996273,1500,,,,-0.03125,-0.080078125,-0.931640625,0.008885148717327603,0.3245096973599202,15.093969025855849,1.5274291555512698,2694,0,23.05496836308002,2.506317893911719,10.87105327771913,0.12947667099541144,0.014075477886128288,0.140625,,
3.029285000000149,1500,,,,-0.125,0.228515625,-1.04296875,0.008885148717327603,0.3245096973599202,15.094583263226756,1.5106905686439411,2697,0,22.803244573367344,2.509638816404369,11.005621626912944,0.12930533877574243,0.014230856329056157,0.142578125,,
3.0378449999997392,1500,,,,0.0625,0.00390625,-0.9609375,0.008885148717327603,0.3245096973599202,15.09524530089743,1.4972973996676004,2700,0,22.602071536378286,2.5120727709037887,11.114347491824276,0.12918005446282063,0.014357520143125739,0.142578125,,
3.0461299999998883,1500,,,,-0.0625,-0.01171875,-0.92578125,0.008885148717327603,0.3245096973599202,15.09567549195065,1.483454182258544,2700,0,22.393742942552,2.5125134012589707,11.21971171904791,0.1291573995972777,0.014491087898633303,0.142578125,,
3.053875,1500,,,,-0.03125,0.197265625,-1.00390625,0.008885148717327603,0.3245096973599202,15.096286947878049,1.4709243499904283,2700,0,22.205496066076506,2.5124306321060805,11.31445397405167,0.12916165454004808,0.014613935955057358,0.142578125,,
3.062105000000447,1500,,,,-0.125,0.09765625,-0.98828125,0.008885148717327603,0.3245096973599202,15.096662919364803,1.4572066572877103,2703,0,21.99895770892691,2.515078218207295,11.43271536535891,0.1290256879530471,0.014751139651868058,0.142578125,,
3.0700800000000745,1500,,,,0,0.087890625,-0.94921875,0.008885148717327603,0.3245096973599202,15.097084303527103,1.4468340451837063,2704,0,21.842975553351554,2.51612614673465,11.519154707603834,0.12897195070328996,0.014856478530926519,0.14453125,,
3.0782999999998135,1500,,,,-0.03125,0.125,-1.05078125,0.008885148717327603,0.3245096973599202,15.097722383015508,1.4350793645781164,2705,0,21.6664298439947,2.517319519952159,11.618524778090686,0.1289108096083438,0.014977534355982732,0.14453125,,
3.087195000000298,1500,,,,0.0625,0.03515625,-0.8203125,0.008885148717327603,1.4568438058380955,15.098217238559922,1.4247407894089086,2706,0,21.511045947133056,2.517814487871848,11.704751568379299,0.5786144344055607,0.06772538208595387,0.14453125,,
3.0953049999997018,1500,,,,-0.125,0.142578125,-1.08203125,0.0329311335214696,1.4568438058380955,15.098699094787417,1.4128342295564655,2708,0,21.331958902888882,9.338154286822878,43.77541851329114,0.1560098238999816,0.06829395333406546,0.14453125,,
3.103319999999367,1500,,,,0.0625,0.12890625,-0.9140625,0.0329311335214696,1.4568438058380955,15.099090840746983,1.3998197517131605,2709,0,21.136005591788898,9.34351060744648,44.20660548593122,0.15592038871096667,0.06892711110958748,0.146484375,,
3.1123449999997392,1500,,,,-0.09375,-0.021484375,-0.9609375,0.0329311335214696,1.4568438058380955,15.09935752574964,1.390170185961624,2708,0,20.990676659472424,9.338197352125613,44.48735742833513,0.1560091044238298,0.06940432790577374,0.146484375,,
3.121120000000112,1500,,,,-0.125,0.220703125,-0.982421875,0.0329311335214696,1.4568438058380955,15.099614686160399,1.3786904273267404,2707,0,20.817694224131607,9.336254956423431,44.847689931005725,0.15604156191512028,0.06998103585119146,0.146484375,,
3.129334999999963,1500,,,,0.03125,0.00390625,-0.9453125,0.0329311335214696,1.4568438058380955,15.100024961503216,1.3684791747495941,2706,0,20.664069698016192,9.331328137001659,45.157262211022704,0.1561239498224535,0.07050130139553085,0.146484375,,
3.1367900000000373,1500,,,,-0.15625,0.1328125,-1.0234375,0.0329311335214696,1.4568438058380955,15.100282808903811,1.3594709945109225,2706,0,20.52839648761665,9.330335909712339,45.45087540247325,0.1561405527020314,0.07096724806133338,0.146484375,,
3.1502099999999627,1500,,,,0.0625,0.1640625,-0.9140625,0.0329311335214696,1.4568438058380955,15.100771869674933,1.3469503188728174,2706,0,20.33998948508432,9.332165492149644,45.88087667888466,0.1561099411560601,0.07162460958529135,0.1484375,,
3.1602549999998883,1500,,,,-0.08203125,0.02734375,-0.947265625,0.0329311335214696,1.4568438058380955,15.101119998169695,1.3381561099834696,2706,0,20.20765599314434,9.331067077103762,46.175900264085186,0.15612831777973676,0.07209365630196522,0.1484375,,
3.1706500000003723,1500,,,,-0.09375,0.08984375,-1.044921875,0.0329311335214696,1.4568438058380955,15.101590194433127,1.3315541740732026,2705,0,20.10858545854038,9.32898023400895,46.39302079822234,0.15616324285125482,0.0724488457351611,0.1484375,,
3.186890000000596,1500,,,,-0.0625,0.1640625,-1.029296875,0.0329311335214696,1.4568438058380955,15.101899409135934,1.3225572124795848,2706,0,19.97312598569391,9.333413330213027,46.72985759414046,0.1560890699142373,0.07294020009094143,0.150390625,,
3.2007050000000743,1500,,,,-0.0625,0.015625,-0.95703125,0.0329311335214696,1.4568438058380955,15.102575944914284,1.3102913168987356,2709,0,19.7887741234249,9.340569196684063,47.20135334521401,0.1559694891351247,0.0736197096773954,0.15234375,,
3.208449999999255,1500,,,,0,0.2109375,-0.92578125,0.0329311335214696,1.4568438058380955,15.102839076984225,1.304323492252268,2709,0,19.69898780781608,9.341588219147757,47.421666078910114,0.15595247528166092,0.07395526206986408,0.15234375,,
3.217105000000447,1500,,,,-0.03125,-0.0234375,-0.96484375,0.0329311335214696,1.4568438058380955,15.103110831380837,1.298621113469247,2709,0,19.613218604697227,9.341517392784619,47.62868135547825,0.15595365769627112,0.07427867068637024,0.150390625,,
3.2244750000005586,1500,,,,-0.125,0.1171875,-0.8984375,0.0329311335214696,1.4568438058380955,15.103151241076125,1.2933723397985855,2709,0,19.53399805900254,9.340578080205734,47.817031884576174,0.15596934079758876,0.0745799094193463,0.150390625,,
3.232584999999963,1500,,,,-0.0625,0.095703125,-1.001953125,0.0329311335214696,1.890956748790313,15.103385454009754,1.2874125478332337,2708,0,19.444287948254097,9.340171230023707,48.03555293400374,0.2024541844277852,0.09724998692791433,0.150390625,,
3.247084999999963,1500,,,,-0.1875,0.203125,-1.046875,0.042716882698649816,1.890956748790313,15.103960540749384,1.2800213855216305,2708,0,19.333392498234062,12.115389583314366,62.665616416885975,0.1560789057410575,0.09780780837936412,0.15234375,,
3.254639999999665,1500,,,,0,0.0703125,-0.916015625,0.042716882698649816,1.890956748790313,15.103962403652625,1.2758582002534116,2707,0,19.27051428901943,12.10998420672558,62.842039527850034,0.15614857265793322,0.09812694775187203,0.15234375,,
3.280570000000298,1500,,,,-0.0625,0.138671875,-0.955078125,0.042716882698649816,1.890956748790313,15.104122682981519,1.2600326026563944,2705,0,19.031687015078685,12.099077198278048,63.573330040011825,0.15628933659993802,0.0993583357740236,0.150390625,,
3.296300000000745,1500,,,,-0.09375,0.13671875,-1.044921875,0.042716882698649816,1.890956748790313,15.104398843891431,1.2535690448139172,2705,0,18.934406831225417,12.102431381198803,63.91766844916549,0.15624602108696317,0.09986881372337832,0.15234375,,
3.3041900000004096,1500,,,,0,0.0078125,-0.9140625,0.042716882698649816,1.890956748790313,15.10451073639356,1.256081518066762,2705,0,18.97249677542493,12.0991202529714,63.77189252520199,0.15628878044467048,0.09966831309412418,0.150390625,,
3.315729999999516,1500,,,,-0.0625,-0.07421875,-0.935546875,0.042716882698649816,1.890956748790313,15.104386612315231,1.2650302617241063,2704,0,19.107506149359224,12.09781736467884,63.31447584060855,0.1563056121438243,0.09896407903831693,0.15234375,,
3.3335099999997766,1500,,,,-0.0625,-0.126953125,-0.943359375,0.042716882698649816,1.890956748790313,15.104394065621424,1.2566306153630795,2712,0,18.980644009368298,12.129912974536882,63.906751364969004,0.15589202929648469,0.0996255315603091,0.15234375,,
3.342179999999702,1500,,,,-0.09375,0.1015625,-1.01953125,0.042716882698649816,1.890956748790313,15.104736079630404,1.2504894831684532,2715,0,18.88831361361291,12.146117208672583,64.30493191260234,0.15568405246741157,0.10011252393794913,0.15234375,,
3.350339999999851,1500,,,,0.0625,-0.109375,-0.9375,0.042716882698649816,1.890956748790313,15.10479795900579,1.2452762157199444,2714,0,18.80964564160507,12.140483840376248,64.54392640721898,0.1557562922246524,0.10053122662809258,0.154296875,,
3.358475000000559,1500,,,,-0.15625,0.115234375,-1.009765625,0.042716882698649816,1.890956748790313,15.104824373897639,1.2432774475911894,2714,0,18.779487493892642,12.13887055648797,64.63898740812657,0.15577699259505134,0.10069267062827349,0.154296875,,
3.367200000000186,1500,,,,0.0625,0.04296875,-0.96484375,0.042716882698649816,1.890956748790313,15.104783921753935,1.240527069062327,2714,0,18.73789332727317,12.139479876082616,64.78572411559999,0.1557691736460558,0.10091618709548361,0.154296875,,
3.376714999999851,1500,,,,-0.0625,-0.115234375,-0.93359375,0.042716882698649816,1.890956748790313,15.104616316258209,1.2409827580980062,2713,0,18.74456841616226,12.13700365104845,64.74944304710412,0.15580095410344247,0.10088025004405331,0.154296875,,
3.384405000000261,1500,,,,-0.03125,0.142578125,-1.0078125,0.042716882698649816,2.096498572831612,15.10465131296373,1.2394244804926249,2712,0,18.721074606592314,12.131320928444946,64.8003449768482,0.1728170069193241,0.11198601666238565,0.154296875,,
3.391484999999404,1500,,,,-0.125,0.05078125,-0.90234375,0.04545723309443212,2.096498572831612,15.104619499629756,1.235071061056855,2712,0,18.655278432267785,12.909136450771006,69.19830490678845,0.1624042460800232,0.1123809853840255,0.154296875,,
3.398969999999739,1500,,,,-0.0625,-0.015625,-1.02734375,0.04545723309443212,2.096498572831612,15.104592223634388,1.2333496379570215,2712,0,18.629243350507913,12.91084265364124,69.30417092484453,0.1623827839184716,0.11253804211937854,0.15625,,
3.406735000000335,1500,,,,0,0.2421875,-1,0.04545723309443212,2.096498572831612,15.104799928676336,1.2294327487375019,2712,0,18.57033569544257,12.907858349551956,69.50794299706565,0.16242032690917957,0.11289502824368022,0.15625,,
3.4146150000002233,1500,,,,-0.0625,0.0078125,-0.994140625,0.04545723309443212,2.096498572831612,15.105075746816373,1.223859136493526,2710,0,18.48648496016799,12.902310800928023,69.79320746333367,0.16249016204762462,0.11340709590540575,0.154296875,,
3.421609999999404,1500,,,,0.0625,-0.09765625,-0.91015625,0.04545723309443212,2.096498572831612,15.104914526873612,1.2219128614957064,2710,0,18.4568893321802,12.899563184297223,69.89023422168114,0.1625247725739816,0.11358894422021033,0.154296875,,
3.428479999999516,1500,,,,-0.03125,0.169921875,-1.05078125,0.04545723309443212,2.096498572831612,15.105046747078328,1.220524343179988,2709,0,18.43607725968079,12.89745105227122,69.95767521802266,0.162551388203363,0.1137171722216959,0.15625,,
3.4373499999996273,1500,,,,-0.0625,0.17578125,-0.984375,0.04545723309443212,2.096498572831612,15.104993965415005,1.2173135680864329,2709,0,18.387514099963376,12.896437429417244,70.13692747864667,0.1625641642745013,0.11401751000347501,0.154296875,,
3.4453650000002236,1500,,,,0,-0.05078125,-0.91796875,0.04545723309443212,2.096498572831612,15.105075841392988,1.2154232648309962,2708,0,18.35906059466567,12.890142229939892,70.21133877451877,0.16264355624890478,0.11419421827284351,0.15625,,
3.4533849999997766,1500,,,,0.03125,0.162109375,-0.98828125,0.04545723309443212,2.096498572831612,15.10531766026803,1.2141504957303522,2707,0,18.34012892537887,12.887649068416138,70.2702206775785,0.16267502022300695,0.11431209569800244,0.15625,,
3.462394999999553,1500,,,,-0.125,-0.0390625,-0.87890625,0.04545723309443212,2.096498572831612,15.105391094529947,1.2129270056538797,2707,0,18.32173678951899,12.886613583519544,70.33510922878978,0.162688091735193,0.11442684702418172,0.15625,,
3.473459999999963,1500,,,,0,0.064453125,-0.962890625,0.04545723309443212,2.096498572831612,15.10512768425362,1.2143265359654438,2707,0,18.342557376135424,12.885603491699438,70.2497652179311,0.16270084472039828,0.11429696142367042,0.15625,,
3.4822599999997763,1500,,,,-0.01953125,0.0390625,-0.955078125,0.04545723309443212,2.096498572831612,15.105410040517576,1.2129907148367163,2706,0,18.322722122949127,12.883556134169678,70.31464019220748,0.1627266999110046,0.11442069353907611,0.15625,,
3.489320000000298,1500,,,,-0.1875,0.08203125,-0.96484375,0.04545723309443212,2.096498572831612,15.105229032733666,1.2133931915851706,2705,0,18.32858206565368,12.875652125945312,70.24903552181088,0.16282659335033023,0.11438411140162802,0.158203125,,
3.4976149999992923,1500,,,,0.03125,0.2109375,-1.01171875,0.04545723309443212,2.096498572831612,15.105170863688647,1.2131866945414491,2704,0,18.325392310602236,12.872156915465798,70.24219016592924,0.16287080608166649,0.114404021332666,0.158203125,,
3.506540000000037,1500,,,,-0.125,-0.02734375,-0.8828125,0.04545723309443212,2.096498572831612,15.105038188575792,1.2118162894271998,2705,0,18.30453132933607,12.874747618748346,70.33639587436153,0.16283803262897892,0.1145344032639406,0.158203125,,
3.5141049999995158,1500,,,,0,0.068359375,-0.953125,0.04545723309443212,2.096498572831612,15.104983183680805,1.2114385381219888,2705,0,18.298758746395496,12.875706120404695,70.36382248025956,0.16282591053466178,0.11457053464047565,0.158203125,,
3.5212800000002606,1500,,,,-0.125,0.1015625,-1.029296875,0.04545723309443212,2.096498572831612,15.10502562164115,1.2113383390428063,2705,0,18.297296647717825,12.87601622436916,70.37113991358474,0.16282198906085385,0.11457968973209508,0.158203125,,
3.530350000000559,1500,,,,0.1875,-0.09375,-0.91796875,0.04545723309443212,2.22292283019628,15.105189503689102,1.211211333173519,2705,0,18.295576716601925,12.876177783415008,70.37863841554007,0.1726384077314843,0.12150056074368713,0.16015625,,
3.538610000000335,1500,,,,-0.15625,0.171875,-1.02734375,0.04545723309443212,2.22292283019628,15.105066133689858,1.2100438147379793,2705,0,18.277791846279534,12.878197546394391,70.45816942606096,0.17261133184112779,0.12161878463720215,0.16015625,,
3.5463449999997394,1500,,,,0,0.05859375,-0.9296875,0.04646889085500049,2.22292283019628,15.105210844400974,1.2080677822924948,2706,0,18.248118565856025,13.165624052727074,72.14784365420124,0.168842952016075,0.1218165490416958,0.16015625,,
3.5546550000002606,1500,,,,0.0625,-0.18359375,-0.97265625,0.04646889085500049,2.22292283019628,15.104888359813067,1.2089715288130933,2706,0,18.261379972914302,13.165946081640435,72.09721336048244,0.16883882224734972,0.12172808591099743,0.162109375,,
3.562554999999702,1500,,,,-0.03125,0.1875,-1.015625,0.04646889085500049,2.22292283019628,15.104747368192328,1.2070670022399423,2706,0,18.232442125315572,13.166072005057453,72.21233400640547,0.1688372074330441,0.12192128815863745,0.162109375,,
3.5704749999996275,1500,,,,-0.125,0.06640625,-0.953125,0.04646889085500049,2.22292283019628,15.1049056606321,1.2109638520210042,2705,0,18.29149474321292,13.162114639727816,71.95756729838405,0.16888797059149824,0.1215276750972524,0.162109375,,
3.5793250000001864,1500,,,,0.03125,0.01171875,-0.916015625,0.04646889085500049,2.22292283019628,15.104855884528918,1.2141994244469678,2704,0,18.340307321349407,13.160441853368349,71.75693200107214,0.16890943746142795,0.12120423018259033,0.162109375,,
3.5874399999994786,1500,,,,-0.03125,0.15234375,-1.056640625,0.04646889085500049,2.22292283019628,15.104715370785154,1.2133037108909888,2710,0,18.326607211325786,13.186165759677086,71.9509378229489,0.1685799246505693,0.12129483676730522,0.162109375,,
3.595625,1500,,,,-0.0625,-0.08984375,-0.91015625,0.04646889085500049,2.22292283019628,15.104942570653927,1.2120261345942034,2712,0,18.307585157177108,13.195596471154968,72.07720929803737,0.16845944289487014,0.12142086523764328,0.162109375,,
3.6045449999999253,1500,,,,-0.125,0.37109375,-1.05078125,0.04646889085500049,2.22292283019628,15.10478124592321,1.2132896316626995,2712,0,18.326474474211825,13.198089077557453,72.01651957734259,0.16842762744920586,0.121295715295611,0.1640625,,
3.6127050000000747,1500,,,,0,0.10546875,-0.9453125,0.04646889085500049,2.22292283019628,15.104743145716135,1.2128698605976835,2712,0,18.320087713508546,13.198933414291226,72.04623482538692,0.16841685312158605,0.1213380014855049,0.1640625,,
3.622,1500,,,,-0.03125,-0.056640625,-0.974609375,0.04646889085500049,2.22292283019628,15.104605808691536,1.2162667290601838,2712,0,18.37122950068071,13.199272258279757,71.84751710706507,0.16841252962274986,0.12100022103114623,0.1640625,,
3.6287299999995155,1500,,,,-0.09375,0.205078125,-1.017578125,0.04646889085500049,2.22292283019628,15.104786566065172,1.2126463780395045,2713,0,18.316764720398695,13.203632760428352,72.0849613017301,0.1683569113538541,0.1213600143982138,0.166015625,,
3.6382199999997393,1500,,,,-0.125,-0.0078125,-0.9140625,0.04646889085500049,2.22292283019628,15.104747736848521,1.2098966052124263,2714,0,18.275183009403104,13.207209953477076,72.26855099990838,0.16831131162649904,0.12163614608141121,0.1640625,,
3.6461549999993292,1500,,,,-0.0625,0.0703125,-0.96875,0.04646889085500049,2.22292283019628,15.104595497450113,1.2084058322420483,2714,0,18.2524812927757,13.205825199087288,72.35084911065834,0.16832896064305894,0.12178743232439905,0.166015625,,
3.6546699999999257,1500,,,,-0.09375,0.03125,-1.044921875,0.04646889085500049,2.22292283019628,15.104566545963749,1.2071701033118527,2713,0,18.233781157771812,13.204018813002692,72.4151436213477,0.1683519890177111,0.12191233463657099,0.166015625,,
3.6623700000001116,1500,,,,0.125,-0.1328125,-0.83203125,0.04646889085500049,2.22292283019628,15.104538609617421,1.2088702869008414,2712,0,18.259427922513048,13.197205617130699,72.27611770278489,0.16843890249848073,0.121741099427081,0.166015625,,
3.6701850000005214,1500,,,,-0.1875,0.09375,-1.072265625,0.04646889085500049,2.22292283019628,15.104317939229498,1.2145764600932603,2711,0,18.34534901475249,13.194553147785594,71.92315140570582,0.16847276336670386,0.12117092067361092,0.166015625,,
3.6786749999998136,1500,,,,0.125,-0.046875,-1.046875,0.04646889085500049,2.2767883275828678,15.104302180308434,1.219696812843461,2712,0,18.422669229546738,13.195524786715904,71.62656302569115,0.1725424615074755,0.12358623493773083,0.16796875,,
3.685850000000559,1500,,,,-0.03125,-0.080078125,-0.92578125,0.04646889085500049,2.2767883275828678,15.104384171206679,1.2154113503518498,2712,0,18.358039961759413,13.197904180272861,71.89168455763613,0.1725113545668882,0.12402131885133248,0.166015625,,
3.694050000000745,1500,,,,-0.0625,0.15234375,-1.06640625,0.047101453895232,2.2767883275828678,15.104539438989955,1.213461880576781,2717,0,18.328782832882908,13.403293958785595,73.1270269335032,0.16986782014808216,0.12421928659104282,0.16796875,,
3.7020499999998138,1500,,,,0,-0.0546875,-0.94140625,0.047101453895232,2.2767883275828678,15.104657860928862,1.2100738455354172,2720,0,18.277751423270956,13.416234809474572,73.40199841208708,0.16970397133888826,0.12456610634741948,0.166015625,,
3.709204999999143,1500,,,,-0.0625,-0.052734375,-1.01171875,0.047101453895232,2.2767883275828678,15.104629465049987,1.207497514890499,2720,0,18.238802542389667,13.415442807448096,73.55440564844446,0.16971399008304233,0.12483211670784174,0.166015625,,
3.7163300000000743,1500,,,,-0.0625,0.12890625,-1.078125,0.047101453895232,2.2767883275828678,15.104688755819442,1.203339111409342,2719,0,18.176062745542445,13.41028985677374,73.7799491810322,0.16977920327597001,0.125263009896972,0.166015625,,
3.72468499999959,1500,,,,0,0.029296875,-0.935546875,0.047101453895232,2.2767883275828678,15.104720182952391,1.2008694059355067,2717,0,18.138796352924096,13.401752946316535,73.8844666733142,0.16988735255029766,0.12552036437720046,0.166015625,,
3.7327050000000743,1500,,,,-0.0625,-0.19921875,-1.015625,0.047101453895232,2.2767883275828678,15.104750556757933,1.201058445746554,2715,0,18.14168822708908,13.392137253267126,73.81968582874251,0.1700093334264048,0.12550035581491134,0.166015625,,
3.7405750000001863,1500,,,,-0.03125,0.189453125,-0.95703125,0.047101453895232,2.2767883275828678,15.104906654699509,1.1992516230433024,2713,0,18.114583821565965,13.381670502783104,73.8723596114409,0.17014230974446307,0.1256881389056414,0.166015625,,
3.748820000000298,1500,,,,-0.0625,-0.02734375,-0.931640625,0.047101453895232,2.2767883275828678,15.105076998136427,1.1990733245491576,2711,0,18.112094893726457,13.37354147580619,73.83762924319939,0.1702457297269957,0.12570541071819838,0.166015625,,
3.756195000000298,1500,,,,-0.0625,0.23828125,-0.9140625,0.047101453895232,2.2767883275828678,15.105263468461613,1.1996997495402217,2710,0,18.12178079985246,13.367119876529443,73.76272798001328,0.17032751621989636,0.12563822246439513,0.166015625,,
3.7644550000000745,1500,,,,-0.03125,0.091796875,-1.056640625,0.047101453895232,2.2767883275828678,15.105299898388251,1.1991960018573977,2709,0,18.114215245004146,13.364161312520702,73.7772027756295,0.17036522340161933,0.1256906963281669,0.166015625,,
3.7757750000003725,1500,,,,0.03125,0.048828125,-0.931640625,0.047101453895232,2.2767883275828678,15.10533450771564,1.1990388544924084,2710,0,18.11188298485601,13.36573951376087,73.79541666063348,0.17034510699828997,0.12570688147039,0.166015625,,
3.7835900000007823,1500,,,,-0.0625,0.240234375,-1.00390625,0.047101453895232,2.2767883275828678,15.10537852423459,1.2001290696599907,2710,0,18.128403875151662,13.36801926030529,73.74074051068908,0.17031605679560277,0.12559232148968327,0.166015625,,
3.791225000000559,1500,,,,-0.0625,0.0859375,-0.96484375,0.047101453895232,2.2767883275828678,15.105508456546115,1.1997103141431082,2708,0,18.12223429569432,13.358342194114156,73.7124461374389,0.17043943735668396,0.12563507845849958,0.166015625,,
3.798449999999255,1500,,,,-0.09375,0.05078125,-0.98828125,0.047101453895232,2.2767883275828678,15.105529553821036,1.201783270956552,2708,0,18.153572716721907,13.354851759923449,73.56596945581856,0.17048398353737462,0.12541819525616774,0.166015625,,
3.8067599999997763,1500,,,,-0.0625,0.14453125,-1.046875,0.047101453895232,2.2767883275828678,15.105454363209924,1.200537881038081,2710,0,18.134670173325475,13.365491529987223,73.70132129365496,0.1703482675870615,0.1255489240125153,0.166015625,,
3.8146749999998137,1500,,,,-0.0625,0.00390625,-0.92578125,0.047101453895232,2.2767883275828678,15.105577420265664,1.201577707333363,2711,0,18.150525084589436,13.369638971752,73.6597917109483,0.17029542326411154,0.12543925406962234,0.166015625,,
3.8242299999995155,1500,,,,-0.0625,0.10546875,-0.953125,0.047101453895232,2.2767883275828678,15.105730158976547,1.2012269749772257,2708,0,18.145410543689646,13.357677495542806,73.61463364733926,0.17044791868515968,0.12547461089959502,0.166015625,,
3.8324199999999253,1500,,,,-0.03125,0.09765625,-1.001953125,0.047101453895232,2.251153007725531,15.105838326924216,1.2005654807036883,2708,0,18.13554805239597,13.355038594395815,73.64011584216459,0.16856207429233366,0.12412930677483007,0.166015625,,
3.8409400000004097,1500,,,,0.0625,-0.18359375,-0.86328125,0.04724558531368955,2.251153007725531,15.105813336307452,1.201846885555885,2708,0,18.154874712029663,13.396186076467451,73.7883697296515,0.16804432208358483,0.12399716568872199,0.166015625,,
3.8487549999998882,1500,,,,-0.09375,0.193359375,-1.033203125,0.04724558531368955,2.251153007725531,15.10582249577859,1.2009267052556283,2708,0,18.140985640031733,13.396976766144956,73.84922204327108,0.16803440410633116,0.12409210019757191,0.166015625,,
3.85606500000041,1500,,,,-0.09375,0.017578125,-0.8984375,0.04724558531368955,2.251153007725531,15.105926069524568,1.1988356883733873,2708,0,18.109523278075983,13.39863080038439,73.98665660407107,0.1680136605944055,0.12430769011191227,0.166015625,,
3.8642700000004844,1500,,,,0.0625,-0.02734375,-0.921875,0.04724558531368955,2.251153007725531,15.105900431647523,1.1989014363163724,2708,0,18.110485724354326,13.39926496849219,73.98622639078832,0.16800570874738452,0.12430108402328834,0.166015625,,
3.872719999999739,1500,,,,-0.125,0.203125,-1.03515625,0.04724558531368955,2.251153007725531,15.106016001122402,1.1970707498122208,2707,0,18.082969901139,13.390889558188228,74.052490444862,0.16811078890192188,0.12449022588837783,0.166015625,,
3.8802099999999626,1500,,,,0,-0.017578125,-0.876953125,0.04724558531368955,2.251153007725531,15.105917121740186,1.195100743283239,2706,0,18.053092780166704,13.38805870898632,74.15936356176358,0.16814633522741534,0.1246962520570807,0.166015625,,
3.889125,1500,,,,-0.25,0.125,-1.02734375,0.04724558531368955,2.251153007725531,15.10582052227131,1.1966784542005608,2706,0,18.07680995202274,13.386927864090653,74.05580907040901,0.16816053919018017,0.12453264783445013,0.166015625,,
3.8966350000007077,1500,,,,0.03125,0.10546875,-0.998046875,0.04724558531368955,2.251153007725531,15.105732820045581,1.194765683648921,2706,0,18.047811199759703,13.386501762396136,74.17243905219027,0.16816589185751413,0.12473274364458688,0.166015625,,
3.9045650000004097,1500,,,,-0.1875,-0.01953125,-0.9921875,0.04724558531368955,2.251153007725531,15.105647940540088,1.1941882818135796,2706,0,18.038987759794406,13.386329593299347,74.20776471246919,0.1681680547334175,0.12479375437811084,0.166015625,,
3.91293499999959,1500,,,,-0.03125,0.09375,-0.966796875,0.04724558531368955,2.251153007725531,15.10563194975221,1.194723859217951,2706,0,18.04705889893394,13.386260283377302,74.17419291609916,0.1681689254556743,0.12473794319242285,0.166015625,,
3.9206749999998136,1500,,,,-0.09375,0.1328125,-1.001953125,0.04724558531368955,2.251153007725531,15.105554645985485,1.1947849263647319,2706,0,18.0478889954022,13.386234812076134,74.1706402088707,0.1681692454471736,0.1247322059825958,0.166015625,,
3.9316150000002237,1500,,,,0.125,-0.23828125,-0.7578125,0.04724558531368955,2.251153007725531,15.105543832119746,1.194206228731932,2705,0,18.03913453270062,13.384178330351444,74.19523539829,0.1681950846859659,0.12479273901110562,0.16796875,,
3.939695000000298,1500,,,,-0.125,0.197265625,-1.029296875,0.04724558531368955,2.251153007725531,15.105507784503148,1.1930303008104584,2705,0,18.02132849604051,13.38088781778108,74.25028527015093,0.16823644577111732,0.12491604091341739,0.16796875,,
3.947375,1500,,,,-0.03125,-0.009765625,-0.93359375,0.04724558531368955,2.251153007725531,15.105337591331605,1.1922271153274904,2705,0,18.00899306256118,13.382741117512193,74.31143468722588,0.16821314766223416,0.12500160336034796,0.16796875,,
3.9553950000004843,1500,,,,-0.0625,0.1328125,-0.955078125,0.04724558531368955,2.251153007725531,15.105143377401404,1.1928321846059395,2705,0,18.01790117365166,13.384834418231515,74.28631275769636,0.16818684022412933,0.12493980214618379,0.16796875,,
3.9628100000005215,1500,,,,-0.09375,0.08984375,-1.001953125,0.04724558531368955,2.251153007725531,15.105185381579004,1.1933068969961154,2705,0,18.025121896243125,13.384307873020052,74.25363306868769,0.1681934567766019,0.12488975224043984,0.16796875,,
3.970805000000633,1500,,,,0.125,-0.2421875,-0.765625,0.04724558531368955,2.251153007725531,15.104931914998236,1.195773539529493,2705,0,18.062077900349443,13.383419492358218,74.09678756893908,0.16820462132349018,0.1246342209432049,0.169921875,,
3.9783049999997018,1500,,,,-0.25,0.16796875,-1.0234375,0.04724558531368955,2.241040214372427,15.105066708832787,1.1980717363629687,2705,0,18.09695349972977,13.385013690952766,73.9628009275298,0.16742905656399865,0.12383521980127156,0.169921875,,
3.9873449999997392,1500,,,,0,0.14453125,-1.00390625,0.04724558531368955,2.241040214372427,15.104848134755505,1.1960167902160679,2706,0,18.06565198283144,13.387599273598584,74.10526498750994,0.16739672054510457,0.12404978334035124,0.169921875,,
3.995945000000298,1500,,,,-0.09375,-0.080078125,-0.962890625,0.0475127558362002,2.241040214372427,15.10514679999888,1.1948606534573414,2708,0,18.048545576015734,13.474226653719954,74.65547069690491,0.16632050743733945,0.1241673576928265,0.169921875,,
4.00375,1500,,,,-0.03125,0.16015625,-0.98828125,0.0475127558362002,2.241040214372427,15.10518626129616,1.193711461023114,2709,0,18.031233960998108,13.480984848678498,74.76462718989791,0.16623712878010613,0.12428656958363683,0.169921875,,
4.011495000000112,1500,,,,-0.125,0.06640625,-0.98828125,0.0475127558362002,2.241040214372427,15.1053168870113,1.1922067608607851,2708,0,18.00866091763946,13.471776587447444,74.80720887054882,0.16635075558338416,0.12444235718699834,0.16796875,,
4.01877999999933,1500,,,,-0.03125,-0.04296875,-0.8828125,0.0475127558362002,2.241040214372427,15.10526027644741,1.1920903425148737,2707,0,18.00683489672651,13.468138275815644,74.79458968252126,0.1663956939316995,0.12445497652559857,0.169921875,,
4.026764999999664,1500,,,,-0.125,0.1796875,-1.10546875,0.0475127558362002,2.241040214372427,15.105198896152414,1.1931278080094518,2707,0,18.022432848513123,13.46643512209563,74.72040670250925,0.1664167386582767,0.12434726394651631,0.171875,,
4.034860000000335,1500,,,,0.03125,-0.01171875,-0.939453125,0.0475127558362002,2.241040214372427,15.105336892878775,1.1919873122785094,2706,0,18.005369924003983,13.46575639268757,74.78744646471054,0.16642512674515625,0.12446510256836038,0.169921875,,
4.042729999999516,1500,,,,-0.125,-0.16015625,-0.953125,0.0475127558362002,2.241040214372427,15.105271339190564,1.1911204490807268,2706,0,17.992197581022896,13.461371671422814,74.81782928851932,0.1664793357670926,0.12455622523488423,0.169921875,,
4.050574999999255,1500,,,,0,0.189453125,-0.966796875,0.0475127558362002,2.241040214372427,15.10530709717876,1.1907218200177265,2705,0,17.986218758679374,13.459643916232604,74.83309358581865,0.16650070598596495,0.1245976291315259,0.169921875,,
4.058629999999888,1500,,,,0,-0.11328125,-0.90625,0.0475127558362002,2.241040214372427,15.105634559770555,1.1906621740601684,2705,0,17.985707685494823,13.458962658124658,74.83143223204439,0.16650913382389074,0.1246011696375889,0.169921875,,
4.066459999999963,1500,,,,-0.1875,0.21875,-0.95703125,0.0475127558362002,2.241040214372427,15.105685465729962,1.1909258731746755,2705,0,17.98975165317646,13.458692330852456,74.81310798682453,0.16651247827659363,0.12457316018460574,0.171875,,
4.073979999999516,1500,,,,-0.03125,0.083984375,-0.984375,0.0475127558362002,2.241040214372427,15.105786883024487,1.1911485545179947,2705,0,17.993236210571503,13.459558950132157,74.80343609463822,0.16650175705426237,0.12454903543453492,0.171875,,
4.08575500000082,1500,,,,0,-0.046875,-0.84765625,0.0475127558362002,2.241040214372427,15.10583426790666,1.1918777836613204,2705,0,18.004308267587813,13.461055670778467,74.7657475683844,0.16648324389871758,0.12447244187697291,0.171875,,
4.0941950000002985,1500,,,,-0.0625,0.064453125,-0.9765625,0.0475127558362002,2.241040214372427,15.105990719679564,1.19499729511734,2706,0,18.05161805008472,13.463513396321137,74.58341606257257,0.1664528528626699,0.12414622379858681,0.171875,,
4.103169999999926,1500,,,,-0.0625,-0.158203125,-0.943359375,0.0475127558362002,2.241040214372427,15.105814647775388,1.1938935659204881,2706,0,18.0347349159665,13.4658385092694,74.6661293998163,0.16642411186126843,0.12426244271482975,0.173828125,,
4.111129999999888,1500,,,,-0.125,0.16796875,-0.998046875,0.0475127558362002,2.241040214372427,15.105865840558904,1.1919356543339132,2707,0,18.005220084946885,13.470039333441747,74.81185606113897,0.16637221012478037,0.12446613836428637,0.173828125,,
4.1184850000003355,1500,,,,0,-0.05859375,-1.00390625,0.0475127558362002,2.241040214372427,15.105785948993635,1.1915527708076483,2708,0,17.999341102750606,13.472163997684818,74.84809538736971,0.1663459719431524,0.124506791753058,0.173828125,,
4.127580000000075,1500,,,,-0.03125,-0.10546875,-0.849609375,0.0475127558362002,2.2816133972755366,15.105685989068895,1.1914378972281965,2708,0,17.997486751005674,13.47434166584003,74.86790712646088,0.16933023177376094,0.1267740006614003,0.173828125,,
4.136004999999888,1500,,,,-0.125,0.16796875,-1.078125,0.0475127558362002,2.2816133972755366,15.105733950250704,1.1925091310343672,2707,0,18.013725666649805,13.470945739794823,74.78156373134193,0.16937291867603407,0.1266597171233524,0.173828125,,
4.143650000000372,1500,,,,-0.0625,0.078125,-0.955078125,0.04726063764528749,2.2816133972755366,15.105844917835906,1.1936367774448815,2706,0,18.03089204830779,13.39403093402219,74.28379526724096,0.1703455373900928,0.12653913024173793,0.173828125,,
4.151875,1500,,,,-0.03125,-0.08984375,-0.962890625,0.04726063764528749,2.2816133972755366,15.105951418532362,1.1927887899702792,2705,0,18.018209513861038,13.389817908387686,74.31269959474704,0.17039913558841469,0.12662819774186432,0.17578125,,
4.159799999999814,1500,,,,-0.125,0.18359375,-0.97265625,0.04726063764528749,2.2816133972755366,15.105921373528354,1.1929457604539806,2705,0,18.020544860301822,13.38817984906752,74.2939791934975,0.17041998412013037,0.12661178754377142,0.17578125,,
4.16678000000026,1500,,,,-0.03125,-0.046875,-0.966796875,0.04726063764528749,2.2816133972755366,15.106011270698964,1.1930782743682442,2705,0,18.02265385943277,13.388842823992796,74.28896392517294,0.1704115454389297,0.12659697151545618,0.17578125,,
4.1749249999998135,1500,,,,-0.125,-0.078125,-0.91015625,0.04726063764528749,2.2816133972755366,15.105977867133637,1.19322317263998,2705,0,18.024802836450515,13.389839020670953,74.28563375790972,0.1703988669134281,0.1265818782029372,0.17578125,,
4.1828600000003355,1500,,,,-0.09375,0.142578125,-1.064453125,0.04726063764528749,2.2816133972755366,15.106076592149412,1.193359245377678,2706,0,18.026976162624827,13.390227361161747,74.27883212562065,0.17039392504217957,0.12656661753433646,0.17578125,,
4.190724999999627,1500,,,,-0.125,-0.03515625,-0.82421875,0.04726063764528749,2.2816133972755366,15.106040076319603,1.1932762823977339,2706,0,18.025679344021835,13.390381942941021,74.28503352014803,0.17039195797385973,0.12657572309651824,0.17578125,,
4.197770000000484,1500,,,,-0.03125,-0.033203125,-1.025390625,0.04726063764528749,2.2816133972755366,15.10612507725883,1.193394927985947,2706,0,18.027573048722008,13.391394702964588,74.28284809481838,0.17037907162652988,0.126562426961697,0.177734375,,
4.206109999999404,1500,,,,-0.03125,0.046875,-1.005859375,0.04726063764528749,2.2816133972755366,15.10602086185688,1.193523327109872,2706,0,18.02938827843456,13.39289049199118,74.28366556402126,0.17036004278836742,0.12654968443963438,0.177734375,,
4.214839999999851,1500,,,,0.0625,-0.109375,-0.9140625,0.04726063764528749,2.2816133972755366,15.105838745480655,1.193894280358544,2706,0,18.034774478247837,13.393511926153804,74.26492603114075,0.17035213839771032,0.12651188957352608,0.17578125,,
4.223819999999367,1500,,,,-0.09375,0.060546875,-1.0078125,0.04726063764528749,2.2816133972755366,15.105647906491892,1.192705325716234,2706,0,18.016586706467162,13.39372722235977,74.34109157619744,0.17034940008831617,0.12663960351915812,0.177734375,,
