Time (s),ESC signal (µs),Servo 1 (µs),Servo 2 (µs),Servo 3 (µs),AccX (g),AccY (g),AccZ (g),Torque (N·m),Thrust (N),Voltage (V),Current (A),Motor Electrical Speed (RPM),Motor Optical Speed (RPM),Electrical Power (W),Mechanical Power (W),Motor Efficiency (%),Propeller Mech. Efficiency (N/W),Overall Efficiency (N/W),Vibration (g),App message,90% settling time (s),Max acceleration (RPM/s),
0,1000,,,,-0.0625,0.052734375,-0.953125,-0.000410094947467044,-0.013842806924344525,15.150310040780601,0.05181529729139217,0,0,0.7850178188198107,0,0,0,0,0.05859375,,
0,1200,,,,-0.0625,0.05078125,-0.955078125,-0.000410094947467044,-0.013842806924344525,15.150139831479294,0.052125851747849714,0,0,0.7897139428148825,0,0,0,0,0.05859375,,
0.007324999999254942,1200,,,,-0.0625,0.046875,-0.955078125,-0.000410094947467044,-0.013842806924344525,15.14997960926559,0.052837133215300355,0,0,0.80048149082385,0,0,0,0,0.05859375,,
0.016490000000223517,1200,,,,-0.0625,0.046875,-0.953125,-0.000410094947467044,-0.016100830754639386,15.150085040373659,0.052358550754314434,0,0,0.7932364965185841,0,0,0,0,0.05859375,,
0.024059999999590218,1200,,,,-0.0625,0.048828125,-0.955078125,-0.000410094947467044,-0.016100830754639386,15.149987634682129,0.05205422990229715,0,0,0.7886209393527025,0,0,0,0,0.05859375,,
0.03210000000055879,1200,,,,-0.0625,0.046875,-0.953125,-0.000410094947467044,-0.016100830754639386,15.14989073737027,0.05132772123511799,0,0,0.7776093685102373,0,0,0,0,0.05859375,,
0.04041500000096858,1200,,,,-0.0625,0.048828125,-0.955078125,-0.000410094947467044,-0.016100830754639386,15.149797932496751,0.051591028540378836,0,0,0.7815936575164122,0,0,0,0,0.05859375,,
0.048114999999292196,1200,,,,0.03125,0.0625,-0.9765625,-0.000410094947467044,-0.016100830754639386,15.149252423901862,0.08192377014139565,0,0,1.2410838733897172,0,0,0,0,0.05859375,,
0.05621499999985099,1200,,,,-0.25,0.2109375,-0.94921875,-0.000410094947467044,-0.016100830754639386,15.147816095546718,0.11363086029810873,0,0,1.721259374574512,0,0,0,0,0.0625,,
0.06401999999955296,1200,,,,-0.09375,-0.015625,-0.9609375,-0.000410094947467044,-0.016100830754639386,15.14691572690789,0.1454264886308706,0,0,2.2027627677519255,0,0,0,0,0.0625,,
0.07207000000029802,1200,,,,0,0,-1.015625,-0.000410094947467044,-0.016100830754639386,15.145981282411222,0.17384822156769017,0,0,2.633101909844714,0,0,0,0,0.0625,,
0.07897500000055879,1200,,,,0,0.05859375,-0.98828125,-0.000410094947467044,-0.016100830754639386,15.145138734114214,0.19533919467304464,0,0,2.9584392035334055,0,0,0,0,0.064453125,,
0.08711500000022351,1200,,,,-0.15625,0.1484375,-0.94140625,-0.000410094947467044,-0.016100830754639386,15.144497117597368,0.21335584455059745,0,0,3.231166972819075,0,0,0,0,0.068359375,,
0.09434499999973923,1200,,,,-0.125,-0.05078125,-1.01171875,-0.000410094947467044,-0.016100830754639386,15.143964329006458,0.22432202663126546,0,0,3.397124769514321,0,0,0,0,0.068359375,,
0.10245000000018627,1200,,,,-0.0625,0.22265625,-0.953125,-0.000410094947467044,-0.016100830754639386,15.143792955427807,0.23142944482006006,0,0,3.504719596144594,0,0,0,0,0.068359375,,
0.10933499999996275,1200,,,,-0.0625,-0.140625,-0.958984375,-0.000410094947467044,-0.016100830754639386,15.143346774199198,0.23646736418714212,0,0,3.5809072966667457,0,0,0,0,0.0703125,,
0.12128000000026078,1200,,,,0.03125,0.072265625,-0.99609375,-0.000410094947467044,-0.016100830754639386,15.14310560046657,0.24016756660801744,0,0,3.6368828229522965,0,0,0,0,0.072265625,,
0.1293300000000745,1200,,,,0,0.037109375,-0.9453125,-0.00024461895857853344,-0.016100830754639386,15.143100884645865,0.24303645141643784,2,0,3.6803255024454518,0.000060296817384946796,0.0016383555569984666,267.0262122103145,0.004374838786390206,0.07421875,,
0.137535000000149,1200,,,,-0.125,0.080078125,-0.978515625,-0.00024461895857853344,-0.016100830754639386,15.142508518229395,0.25811445398092286,4,0,3.9085003180842537,0.00009843524320420583,0.002518491369918929,163.56774495124577,0.004119439540568129,0.076171875,,
0.14778500000014902,1200,,,,0.1875,0.03515625,-1.12109375,-0.00024461895857853344,-0.016100830754639386,15.142223688619973,0.2628816039033903,4,0,3.9806120499283297,0.00011102994142689927,0.00278926808325615,145.0134130282323,0.0040448128460368995,0.078125,,
0.16416000000014902,1200,,,,0.0625,0.056640625,-1.0703125,-0.00024461895857853344,-0.013692120534350937,15.142775777750849,0.2537499305166297,5,0,3.842478301433181,0.00011944212573835657,0.0031084658485594214,114.63393212160466,0.0035633566308608693,0.083984375,,
0.173,1200,,,,0,-0.001953125,-0.912109375,-0.00024461895857853344,-0.013692120534350937,15.14305785024963,0.24698139560881807,5,0,3.740053561639722,0.00012017445947050539,0.003213174824635887,113.93536192864188,0.0036609423658489028,0.0859375,,
0.18125,1200,,,,-0.03125,0.00390625,-0.978515625,-0.00024461895857853344,-0.013692120534350937,15.143171304980271,0.24193095091204828,5,0,3.66360183363792,0.00012043038491858753,0.0032872127045258455,113.69323899119797,0.0037373385963055923,0.087890625,,
0.18947500000055878,1200,,,,-0.125,0.01171875,-0.9765625,-0.00024461895857853344,-0.013692120534350937,15.14343326347359,0.2350599633671033,5,0,3.5596148681642754,0.00012053448776556274,0.003386166544127383,113.59504477242935,0.003846517401870524,0.087890625,,
0.19665500000026076,1200,,,,0,0.03125,-0.95703125,-0.00024461895857853344,-0.013692120534350937,15.143629079608822,0.2299249158938276,5,0,3.48189764245638,0.00012056773088100978,0.0034627017581123566,113.56372417644576,0.003932373073635655,0.087890625,,
0.2051699999999255,1200,,,,-0.1875,0.1171875,-0.99609375,-0.00024461895857853344,-0.013692120534350937,15.143849168104877,0.22197123293924076,5,0,3.3614988712901352,0.00012058362534282525,0.0035871981505841036,113.54875502725646,0.004073218840349018,0.08984375,,
0.21226500000059606,1200,,,,0,0.03125,-0.986328125,-0.00024461895857853344,-0.013692120534350937,15.144110117612534,0.21689307601818683,5,0,3.284652626967128,0.00012058921411052908,0.0036712927607774064,113.54349255316548,0.004168514022438198,0.08984375,,
0.22063999999966472,1200,,,,-0.03125,0.044921875,-0.97265625,-0.00024461895857853344,-0.013692120534350937,15.144303130133826,0.2099101598482782,297,0,3.1789430908371714,0.007595387994533941,0.23892808954103367,1.802688755887723,0.004307129804813565,0.08984375,,
0.22772499999962748,1200,,,,-0.125,0.09765625,-0.9609375,-0.00024461895857853344,-0.013692120534350937,15.144352851663845,0.20430588348643527,409,0,3.0940803891894975,0.010467093594486828,0.3382941707351279,1.3081110253530912,0.004425263345513019,0.08984375,,
0.235820000000298,1200,,,,-0.03125,0.033203125,-0.96875,-0.00024461895857853344,-0.013692120534350937,15.144726769000147,0.19899832602970566,454,0,3.0137752752083022,0.011628233253748446,0.38583610892967923,1.17748932581286,0.004543178997778652,0.08984375,,
0.24315000000037254,1200,,,,-0.0625,0.046875,-0.953125,-0.00024461895857853344,-0.013692120534350937,15.144695436003637,0.19370141973263466,471,0,2.933549007372257,0.012056015446809086,0.4109703099048729,1.1357086090972857,0.004667425190423435,0.08984375,,
0.2516100000003353,1200,,,,-0.0625,0.06640625,-0.990234375,-0.00024461895857853344,-0.013692120534350937,15.144727613438791,0.1884475394628838,479,0,2.853986654588133,0.012258784714340795,0.4295319564523295,1.1169231578341834,0.004797541891914308,0.08984375,,
0.26021000000089406,1200,,,,0.0625,0.0078125,-0.98046875,-0.00024461895857853344,-0.013692120534350937,15.144906594307493,0.1827837758570808,482,0,2.7682432123103258,0.012340582232950566,0.44579111322560927,1.1095198164792932,0.004946140741341777,0.08984375,,
0.26846499999985096,1200,,,,-0.09375,0.078125,-0.98046875,-0.00024461895857853344,-0.013692120534350937,15.145056860532282,0.17729238861198074,483,0,2.6851033064680343,0.012368289545339146,0.4606262081442336,1.1070342818349252,0.005099290035272965,0.08984375,,
0.2771200000001118,1200,,,,-0.0625,0.052734375,-0.96484375,-0.00024461895857853344,-0.013692120534350937,15.14529157147366,0.17293687913744418,483,0,2.6191794579972925,0.01238001467709611,0.4726676761035023,1.105985807891029,0.005227637416193072,0.08984375,,
0.2856350000007078,1200,,,,-0.03125,0.0703125,-0.982421875,0.003301016296765743,-0.013692120534350937,15.145227970277029,0.16881226372078573,483,0,2.556700218229826,0.16711618464783098,6.536401235321075,0.08193174445194976,0.005355387556477351,0.08984375,,
0.29440499999932945,1200,,,,-0.0625,0.0390625,-0.962890625,0.003301016296765743,-0.013692120534350937,15.145159874928552,0.16463484848323512,495,0,2.4934211012632344,0.17118258083353666,6.865369862588031,0.0799854778896317,0.005491298893481786,0.087890625,,
0.3048300000000745,1200,,,,-0.0625,0.09765625,-0.98828125,0.003301016296765743,-0.013692120534350937,15.145299744673066,0.16092162121811932,521,0,2.437206188747158,0.18015239646475348,7.391758534691746,0.07600298859765531,0.0056179573962879805,0.087890625,,
0.31317500000074505,1200,,,,-0.03125,0.044921875,-0.96484375,0.003301016296765743,0.010156300694991953,15.145412532359034,0.15617025329133247,533,0,2.3652629113802313,0.18420762592592774,7.78804018105686,0.05513507187306095,0.004293941551328567,0.087890625,,
0.3210149999996647,1200,,,,-0.03125,0.03515625,-1.0078125,0.003301016296765743,0.010156300694991953,15.145441104622154,0.15228753162170763,536,0,2.306461841144857,0.18526779147440342,8.032553939086291,0.05481957017010777,0.004403411543089166,0.087890625,,
0.3284950000001118,1200,,,,-0.03125,0.021484375,-0.9375,0.003301016296765743,0.010156300694991953,15.145552609172956,0.14925955952920053,537,0,2.260618511271489,0.1856644817077379,8.212994841102605,0.05470244282360588,0.004492708807059853,0.087890625,,
0.3368849999997765,1200,,,,0,0,-0.96875,0.003301016296765743,0.010156300694991953,15.145674523492323,0.14583506149052503,538,0,2.208770375448981,0.18584957655195536,8.41416466907192,0.05464796252657965,0.0045981695552791265,0.087890625,,
0.3441000000005588,1200,,,,-0.0625,0.09375,-0.978515625,0.003301016296765743,0.010156300694991953,15.145787008733269,0.1437293978392727,538,0,2.176894846567112,0.18592053211260662,8.540629897939118,0.05462710642867878,0.004665498984026761,0.087890625,,
0.3548549999995157,1200,,,,0,-0.0078125,-0.95703125,0.003301016296765743,0.010156300694991953,15.145919370275744,0.14020874722349264,538,0,2.1235903804543925,0.18595197456163517,8.756489776613433,0.05461786958129649,0.004782608166090285,0.087890625,,
0.3625800000000745,1200,,,,-0.0625,0.0546875,-0.953125,0.003301016296765743,0.010156300694991953,15.146034521794416,0.13618651568412793,538,0,2.0626856679546983,0.18596206493106787,9.01553095656415,0.05461490599578292,0.00492382375694822,0.087890625,,
0.3718499999996275,1200,,,,0,0.0078125,-0.9609375,0.003301016296765743,0.010156300694991953,15.146337961586475,0.13424033224405452,538,0,2.033249440244104,0.18596550767675146,9.146222002865777,0.05461389491994297,0.004995108073789819,0.0859375,,
0.38026499999966473,1200,,,,-0.03125,0.017578125,-1.029296875,0.003301016296765743,0.010156300694991953,15.146284064832761,0.13135679440165443,543,0,1.9895673218532917,0.18761922299086772,9.430152019992946,0.05413251655714567,0.005104778603586688,0.0859375,,
0.3884050000002608,1200,,,,-0.09375,-0.0078125,-0.986328125,0.003301016296765743,0.010156300694991953,15.145379188174173,0.15601548930936035,544,0,2.3629137448187967,0.18819857509489818,7.964682397212533,0.053965874554951804,0.004298210511180044,0.087890625,,
0.39644500000029803,1200,,,,0,-0.015625,-0.9609375,0.003301016296765743,0.010156300694991953,15.14472662847285,0.17309168119850948,545,0,2.6214261934142,0.18842376047379172,7.187833895425631,0.05390137989738621,0.003874341654366464,0.087890625,,
0.4045550000006333,1200,,,,-0.03125,0.1171875,-0.955078125,0.003301016296765743,0.010156300694991953,15.143519911284313,0.204426867690888,545,0,3.0957423412784464,0.18851291832552736,6.089425331427205,0.053875887049044974,0.0032807319134956535,0.087890625,,
0.4134550000000745,1200,,,,-0.03125,0.021484375,-0.970703125,0.003301016296765743,0.010156300694991953,15.142521332602197,0.24195104329732844,545,0,3.663748834575154,0.18855045203993656,5.146380403060593,0.05386516226882746,0.0027721061550797245,0.087890625,,
0.42112000000011174,1200,,,,0.0625,-0.0546875,-0.96484375,0.003301016296765743,0.010156300694991953,15.14174237172632,0.2653691083791025,545,0,4.01815067249109,0.1885631660195826,4.6927848502674765,0.05386153037935948,0.0025276057377647963,0.087890625,,
0.4282800000002608,1200,,,,-0.0625,0.02734375,-0.923828125,0.02240947743296236,0.010156300694991953,15.141322393882913,0.28050037901177605,545,0,4.247146670223649,1.2801228733355616,30.140773859080127,0.007933848309833035,0.0023913232773892256,0.087890625,,
0.4354050000002608,1200,,,,0,0.0703125,-1.05078125,0.02240947743296236,0.010156300694991953,15.140827502407076,0.2907876571700925,643,0,4.402765757041456,1.5088728834300442,34.27102341333661,0.006731051241310765,0.002306800146873297,0.087890625,,
0.44349000000022354,1200,,,,-0.0625,0.091796875,-0.943359375,0.02240947743296236,0.010156300694991953,15.14049392328866,0.3016174019045152,688,0,4.566636440693426,1.6139756389261672,35.34276616688784,0.006292722424081496,0.0022240221718744396,0.087890625,,
0.45158499999996277,1200,,,,0,0.0625,-0.953125,0.02240947743296236,0.010156300694991953,15.140264580871007,0.3099401018374535,706,0,4.6925751460411504,1.6564733993681584,35.299880083233774,0.006131279076902744,0.0021643341617150714,0.087890625,,
0.46425499999988823,1200,,,,-0.03125,0.060546875,-0.98046875,0.02240947743296236,0.010156300694991953,15.140067704878069,0.3144794105895687,712,0,4.761239568116219,1.6718610089943438,35.1139862860506,0.006074847514448082,0.0021331211231217853,0.087890625,,
0.4845699999993667,1200,,,,-0.03125,0.04296875,-0.955078125,0.02240947743296236,0.04206985622407731,15.140564654147095,0.3113252730000848,898,0,4.713640424327779,2.1063733895217176,44.68676436688765,0.019972648929841387,0.008925130565103929,0.087890625,,
0.49257000000029805,1200,,,,-0.0625,0.05078125,-0.97265625,0.02240947743296236,0.04206985622407731,15.140925564772541,0.3090780065685097,952,0,4.679727091162084,2.2343655126704247,47.7456370669594,0.01882854706873679,0.008989809748420691,0.087890625,,
0.5004550000000745,1200,,,,-0.0625,0.03515625,-0.96484375,0.02240947743296236,0.04206985622407731,15.14107496929908,0.3057771454831585,974,0,4.6297946836587744,2.285276993714884,49.36022328983506,0.01840908403654373,0.009086764986051364,0.0859375,,
0.5085099999997765,1200,,,,-0.0625,0.046875,-0.953125,0.02240947743296236,0.04206985622407731,15.141220741023488,0.3011521152610712,983,0,4.5598106537940275,2.305779545731523,50.567440641706916,0.018245393971838008,0.009226228766554757,0.0859375,,
0.5168599999994039,1200,,,,-0.03125,-0.01171875,-0.984375,0.02240947743296236,0.04206985622407731,15.141160816344469,0.29671681784096254,1008,0,4.492637055844002,2.3660357597221253,52.66474300754824,0.017780735583226404,0.00936417869975787,0.0859375,,
0.527105000000447,1200,,,,-0.0625,0.10546875,-1,0.02240947743296236,0.04206985622407731,15.141170220068279,0.29061783199418345,1042,0,4.4002940632111365,2.446254310291804,55.5929734502025,0.017197662584418284,0.009560691994611065,0.0859375,,
0.535214999999851,1200,,,,-0.0625,0.0234375,-0.982421875,0.02240947743296236,0.04206985622407731,15.14142513079907,0.28413703491602466,1055,0,4.302239641068228,2.4768754145532346,57.57176775811207,0.01698505139858463,0.00977859434478911,0.0859375,,
0.5423099999995902,1200,,,,-0.0625,0.064453125,-0.962890625,0.02240947743296236,0.04206985622407731,15.141626387104008,0.27843229408595077,1059,0,4.215917771153736,2.485303945811318,58.950484348066055,0.016927449173764444,0.009978813275706846,0.0859375,,
0.550320000000298,1200,,,,-0.03125,0.060546875,-0.98828125,0.02240947743296236,0.04206985622407731,15.14174000756551,0.2743641060463781,1061,0,4.1543499611623895,2.489104165478081,59.91561107629047,0.01690160532755244,0.01012670011370591,0.0859375,,
0.5586750000007451,1200,,,,-0.0625,0.109375,-0.96484375,0.02240947743296236,0.04206985622407731,15.141987986607688,0.27181896462749544,1075,0,4.115879496921676,2.5222300507385476,61.28046393547136,0.016679626908639285,0.010221352752319873,0.0859375,,
0.566644999999553,1200,,,,-0.03125,0.0234375,-0.978515625,0.02240947743296236,0.04206985622407731,15.142084786678472,0.2677328557030801,1080,0,4.0540336012355915,2.534719267364528,62.5233906939497,0.016597442078001564,0.01037728355563092,0.0859375,,
0.5745850000008941,1200,,,,-0.0625,0.064453125,-1.013671875,0.02240947743296236,0.04206985622407731,15.142179164064176,0.26364720699479005,1082,0,3.992193244420225,2.539789670805578,63.61890608264943,0.016564307158054337,0.010538031014124167,0.0859375,,
0.5828549999995157,1200,,,,0,0,-0.953125,0.014265846561180389,0.04206985622407731,15.142268240488498,0.2598923938228882,1083,0,3.9353603409288493,1.6180910976494978,41.11672013413607,0.025999683383209772,0.01069021705243584,0.0859375,,
0.5898250000001862,1200,,,,-0.03125,0.068359375,-0.99609375,0.014265846561180389,0.04206985622407731,15.142351615783625,0.25669341444660804,1083,0,3.886941939006611,1.6185868833735804,41.64165322693871,0.025991719478408323,0.010823381692917475,0.0859375,,
0.5978800000008195,1200,,,,-0.125,0.0546875,-1.04296875,0.014265846561180389,0.04206985622407731,15.142422873775471,0.25255302259275875,1087,0,3.8242646661497233,1.6234391605329979,42.45101482914569,0.025914033150626466,0.011000770055602172,0.0859375,,
0.6063799999998882,1200,,,,0,0.044921875,-0.939453125,0.014265846561180389,0.04206985622407731,15.142658193912633,0.2463898907111393,1092,0,3.7309978974742712,1.631183142873316,43.71975508154423,0.02579100722557223,0.011275765192083552,0.0859375,,
0.6152199999997392,1200,,,,-0.0625,0.07421875,-1.001953125,0.014265846561180389,0.150516926817428,15.142887238874314,0.24272033957971664,1093,0,3.6754867328369314,1.6335856040684353,44.4454224109673,0.09213898949805048,0.04095156308760533,0.0859375,,
0.623625,1200,,,,-0.125,0.0546875,-0.890625,0.014265846561180389,0.150516926817428,15.142796882115155,0.23934560294015142,1094,0,3.624361849950097,1.6348206206053189,45.10644047938614,0.09206938358882254,0.04152922170822994,0.0859375,,
0.6314850000003353,1200,,,,-0.03125,0.05859375,-0.97265625,0.014265846561180389,0.150516926817428,15.142790076929787,0.23671654327138228,1095,0,3.5845489224950082,1.635220649645263,45.618589256331745,0.09204686037329605,0.04199047915704312,0.0859375,,
0.6401900000004098,1200,,,,-0.03125,0.052734375,-0.99609375,0.014265846561180389,0.150516926817428,15.142635745547393,0.23215972732884044,1097,0,3.515510185726235,1.6383943515167543,46.60473914053798,0.0918685581881346,0.04281510189575348,0.083984375,,
0.648785000000149,1200,,,,-0.03125,0.068359375,-0.986328125,0.014265846561180389,0.150516926817428,15.142637261944195,0.2281503022069576,1097,0,3.454797267522905,1.6394558424977912,47.454473172988344,0.09180907647265943,0.04356751356508652,0.083984375,,
0.6575499999998138,1200,,,,-0.0625,0.0546875,-0.9140625,0.014265846561180389,0.150516926817428,15.142859262210065,0.2250395362766642,1098,0,3.4077420262705425,1.6399030406957649,48.12286341083414,0.09178404032568163,0.0441691083588727,0.083984375,,
0.6657999999998138,1200,,,,-0.0625,0.04296875,-0.95703125,0.014265846561180389,0.150516926817428,15.143110953390217,0.22285369836346036,1098,0,3.374698280691236,1.640053618529683,48.59852591603397,0.09177561338047426,0.044601595253308916,0.083984375,,
0.6748449999997392,1200,,,,-0.03125,0.076171875,-0.947265625,0.014265846561180389,0.150516926817428,15.14308619887678,0.21951917819735073,1099,0,3.3241978377490744,1.6411316621252703,49.369253643355215,0.09171532686323786,0.0452791723489442,0.083984375,,
0.6825049999998882,1200,,,,-0.03125,0.0546875,-1.0234375,0.014265846561180389,0.150516926817428,15.143258625946387,0.21742746945225708,1099,0,3.2925604023005866,1.6419566925817126,49.86868855722253,0.09166924285972752,0.045714249224481474,0.083984375,,
0.690894999999553,1200,,,,-0.0625,-0.03125,-0.94921875,0.014265846561180389,0.150516926817428,15.143097274324537,0.21527086135128162,1099,0,3.259867593770088,1.6422923233189697,50.37911130064129,0.09165050867024863,0.04617271177058845,0.083984375,,
0.6996749999998138,1200,,,,-0.03125,0.0625,-0.98046875,0.014265846561180389,0.150516926817428,15.143291392765045,0.21266625427526986,1099,0,3.2204670578982766,1.642430066804236,50.99974746756484,0.09164282233964265,0.046737607965366836,0.083984375,,
0.7085200000004843,1200,,,,-0.0625,0.01953125,-0.97265625,0.014265846561180389,0.150516926817428,15.143523710307466,0.2093583593988062,1099,0,3.1704232795068936,1.6424775166939052,51.806253357733524,0.09164017485024642,0.04747534116038865,0.083984375,,
0.7170200000004843,1200,,,,-0.03125,0.0234375,-0.986328125,0.014265846561180389,0.150516926817428,15.143693802651853,0.20708769245055647,1100,0,3.136072604768965,1.64314134429591,52.39487573716299,0.09160315230332473,0.04799535782065116,0.08203125,,
0.7256399999996648,1200,,,,-0.03125,0.076171875,-0.978515625,0.014265846561180389,0.150516926817428,15.143857339880874,0.20538065280160664,1100,0,3.1102553063991363,1.64370940317783,52.84805397794873,0.09157149464888949,0.04839375292045955,0.08203125,,
0.7338950000004842,1200,,,,-0.03125,0.017578125,-1.00390625,0.01115181527552388,0.150516926817428,15.143974268727394,0.20330702408238469,1100,0,3.0788763413551745,1.2850694914647682,41.73826256689289,0.11712746105727202,0.04888696723401942,0.08203125,,
0.7540849999999627,1200,,,,-0.041015625,0.046875,-0.95703125,0.01115181527552388,0.150516926817428,15.144269900275056,0.1987230807247102,1100,0,3.0095159699091587,1.2845608854565478,42.68330516602382,0.11717383622803722,0.0500136660919501,0.08203125,,
0.7609400000004097,1200,,,,-0.0625,0.076171875,-0.982421875,0.01115181527552388,0.23809871756174952,15.144089166011963,0.1982225338551772,1099,0,3.0018997274156285,1.2839387227310357,42.770873090967434,0.18544398836674647,0.07931601291916954,0.08203125,,
0.7699050000002607,1200,,,,0,0.078125,-0.98828125,0.01115181527552388,0.23809871756174952,15.144348282521005,0.19601543581557895,1099,0,2.968526028741269,1.2836578782573338,43.242264538998754,0.18548456064086732,0.08020772439132341,0.08203125,,
0.7853750000009313,1200,,,,-0.0625,0.0546875,-0.984375,0.01115181527552388,0.23809871756174952,15.144511922170164,0.19097085021262863,1099,0,2.892160317832127,1.2834749243402948,44.37772402957065,0.1855110006797617,0.08232555992615959,0.080078125,,
0.7934599999999628,1200,,,,-0.03125,0.076171875,-0.98046875,0.01115181527552388,0.23809871756174952,15.144486179491892,0.1891244180743933,1099,0,2.8641921357320963,1.2836993474277536,44.81889784602862,0.18547856866862641,0.0831294502178677,0.080078125,,
0.8018050000006333,1200,,,,-0.0625,0.03125,-0.984375,0.01115181527552388,0.23809871756174952,15.14459660547063,0.1882427051324827,1099,0,2.8508598331540065,1.2837861510132076,45.03154227659484,0.18546602747960317,0.08351821257319851,0.080078125,,
0.8166899999994784,1200,,,,-0.03125,0.095703125,-0.990234375,0.01115181527552388,0.23809871756174952,15.144984394956028,0.1849606153368033,1099,0,2.8012256329573506,1.283830767162041,45.831037387968514,0.1854595820974724,0.08499805041066273,0.080078125,,
0.8238099999995903,1200,,,,-0.0625,0.01171875,-0.90625,0.01115181527552388,0.23809871756174952,15.14511769687419,0.18332105959836337,1099,0,2.776419023932901,1.2838362394352385,46.240723333491516,0.18545879158738307,0.08575748671555845,0.080078125,,
0.8310400000000373,1200,,,,0,0.078125,-1.05859375,0.01115181527552388,0.23809871756174952,15.14518711722793,0.18416176177017574,1099,0,2.789164341847665,1.2831564270172842,46.00504917423636,0.18555704709768975,0.08536561076355309,0.080078125,,
0.8510400000000372,1200,,,,-0.041015625,0.05859375,-0.994140625,0.01115181527552388,0.23809871756174952,15.145514581342802,0.18315908128148908,1098,0,2.774038536254144,1.2827120192854786,46.239877439394114,0.18562133509466913,0.08583107784914205,0.080078125,,
0.8729150000000373,1200,,,,-0.041015625,0.08203125,-0.96875,0.01115181527552388,0.23809871756174952,15.145430781918252,0.18149353665536017,1098,0,2.7487977967793005,1.282661113182385,46.66262155351142,0.1856287020123402,0.08661921871471374,0.080078125,,
0.8818250000001863,1200,,,,-0.0625,0.025390625,-1.001953125,0.009726570026644418,0.23809871756174952,15.145425900335225,0.18032876871702258,1098,0,2.7311560043023544,1.1187292116565113,40.96174696334416,0.21282962407783637,0.08717873207779991,0.080078125,,
0.8904500000001863,1200,,,,0,0.1015625,-0.984375,0.009726570026644418,0.23809871756174952,15.145347665230346,0.17914048765975488,1098,0,2.713144966525894,1.118728088620401,41.233627484818875,0.21282983772702924,0.08775746246490773,0.080078125,,
0.8977050000000745,1200,,,,-0.03125,0.01953125,-0.990234375,0.009726570026644418,0.23809871756174952,15.14537598314956,0.1777833480249396,1098,0,2.69259564938084,1.1187277335980628,41.54830057217515,0.21282990526745427,0.08842720874799753,0.080078125,,
0.9057199999997392,1200,,,,-0.0625,0.080078125,-1.021484375,0.009726570026644418,0.23809871756174952,15.145504002257654,0.17727530946874384,1098,0,2.6849239090603243,1.1187275688835205,41.667012056034594,0.2128299366032159,0.08867987534331274,0.080078125,,
0.9134950000001117,1200,,,,0,0.00390625,-0.9453125,0.009726570026644418,0.27524352328482515,15.145495645334412,0.17636533312137834,1098,0,2.6711403847777886,1.118727503486749,41.88201825190912,0.24603267768689957,0.10304345097448801,0.080078125,,
0.9233849999997765,1200,,,,-0.03125,0.025390625,-0.9765625,0.009726570026644418,0.27524352328482515,15.145258729328415,0.176538762031407,1098,0,2.6737252267209985,1.1187274794130133,41.841527627167494,0.24603268298124137,0.10294383302145753,0.080078125,,
0.9317450000001117,1200,,,,-0.0625,0.064453125,-0.986328125,0.009726570026644418,0.27524352328482515,15.145308141639703,0.17549328956649946,1098,0,2.6578999472746383,1.118727466388801,42.090653846316656,0.24603268584555105,0.1035567661480466,0.080078125,,
0.9394500000001863,1200,,,,-0.03125,0.03515625,-0.98046875,0.009726570026644418,0.27524352328482515,15.145243840891425,0.17637513017602058,1098,0,2.671244353984799,1.1187274629834971,41.88038661886726,0.246032686594452,0.1030394403545425,0.080078125,,
0.9477549999998882,1200,,,,0,0.02734375,-1.0625,0.009726570026644418,0.27524352328482515,15.145118302719194,0.17530201178116162,1098,0,2.6549697071303666,1.1185199969808777,42.129294130057474,0.24607832137804034,0.10367105980366272,0.080078125,,
0.9578199999993667,1200,,,,-0.0625,0.060546875,-0.951171875,0.009726570026644418,0.27524352328482515,15.145288083595487,0.1740682950736509,1098,0,2.636314475110748,1.118429527972658,42.423980087795634,0.24609822648705496,0.1044046626012864,0.080078125,,
0.9663799999998882,1200,,,,-0.03125,0.02734375,-0.92578125,0.009726570026644418,0.27524352328482515,15.145426409902894,0.17483392746571091,1098,0,2.647934382386225,1.118401073895922,42.23673673091772,0.24610448765577558,0.10394650453414385,0.080078125,,
0.9747599999997765,1200,,,,-0.0625,0.029296875,-0.970703125,0.009726570026644418,0.27524352328482515,15.145421434275933,0.17419020740840874,1098,0,2.6381841009242843,1.1183898357774835,42.39241057459398,0.2461069606319169,0.1043306732037366,0.078125,,
0.9826450000004843,1200,,,,0,0.11328125,-0.96484375,0.009726570026644418,0.27524352328482515,15.145417130342395,0.1727666028800883,1098,0,2.616622266811151,1.1183859595354404,42.7415899390937,0.2461078136202254,0.10519039250562574,0.080078125,,
0.9908450000006706,1200,,,,-0.0625,0.044921875,-0.962890625,0.009726570026644418,0.27524352328482515,15.145445880208134,0.17250067303494104,1098,0,2.612599607750178,1.1185932082774517,42.81533247418346,0.246062215690259,0.10535235574112682,0.078125,,
0.9989450000002981,1200,,,,-0.0625,0.01171875,-0.9296875,0.009726570026644418,0.27524352328482515,15.145276174028155,0.17224768676116045,1098,0,2.6087387863352682,1.1186747089428632,42.881821468770625,0.24604428891123103,0.10550827270502029,0.078125,,
1.0070999999996275,1200,,,,0,0.08984375,-0.96484375,0.009726570026644418,0.27524352328482515,15.145529030053801,0.17111558965709314,1098,0,2.591636130646278,1.1187081118749953,43.16609490993716,0.24603694240091548,0.10620454007028658,0.078125,,
1.015304999999702,1200,,,,-0.0625,0.0390625,-0.9921875,0.009726570026644418,0.27524352328482515,15.145454228288724,0.17093209431016823,1098,0,2.5888442105201843,1.1187198164560639,43.21309918572799,0.24603436824490624,0.10631907558065057,0.078125,,
1.0225449999999254,1200,,,,0,0,-0.98828125,0.009726570026644418,0.27524352328482515,15.1453902670289,0.16982079648124684,1098,0,2.5720022381661716,1.1188550516364952,43.50132496129688,0.2460046302532573,0.1070152736263063,0.078125,,
1.0306299999998882,1200,,,,-0.0625,0.037109375,-0.94921875,0.009040762597307558,0.27524352328482515,15.145420056374515,0.16938251352106173,1099,0,2.5653693174810157,1.040281240131046,40.55093483196866,0.26458568381964886,0.10729196822042446,0.078125,,
1.03875,1200,,,,-0.03125,0.05859375,-1.0078125,0.009040762597307558,0.27524352328482515,15.145448974100011,0.16863387932082877,1099,0,2.554035814558151,1.0404070376387624,40.735804553263605,0.2645536922832618,0.10776807502695193,0.078125,,
1.0467800000002607,1200,,,,-0.0625,-0.03125,-0.9453125,0.009040762597307558,0.27524352328482515,15.145573310443172,0.16793744455624848,1099,0,2.543508878095147,1.040455546652758,40.90630685873458,0.264541358033324,0.10821409968537524,0.078125,,
1.0548449999997391,1200,,,,0,0.033203125,-0.97265625,0.009040762597307558,0.27524352328482515,15.145594227741643,0.16790954619369258,1099,0,2.543089853613909,1.040474815852797,40.913804692123215,0.2645364588274337,0.10823193010411518,0.078125,,
1.064105000000447,1200,,,,-0.0625,0.01953125,-1.01953125,0.009040762597307558,0.2823750696458891,15.145800004685047,0.1676408817985696,1099,0,2.5390552683301806,1.0405171588260334,40.98048482065274,0.2713795416545361,0.11121265187409414,0.078125,,
1.074320000000298,1200,,,,-0.03125,-0.005859375,-0.974609375,0.009040762597307558,0.2823750696458891,15.145847762927275,0.16738700137498058,1099,0,2.5352180403183544,1.040566592065382,41.044461482875654,0.2713666494764293,0.1113809799217232,0.078125,,
1.0834349999995903,1200,,,,-0.041015625,0.0234375,-0.9609375,0.009040762597307558,0.2823750696458891,15.145735660475662,0.16738579875401857,1099,0,2.535181061245942,1.0405851029384985,41.045790332115054,0.27136182215994903,0.1113826045651796,0.078125,,
1.099875,1200,,,,-0.0625,0.046875,-0.98046875,0.009040762597307558,0.2823750696458891,15.145628791864322,0.1680380485781169,1099,0,2.545041906673423,1.0405928616398137,40.88706197376346,0.27135979887552714,0.11095104913811667,0.078125,,
1.1084050000002608,1200,,,,-0.0625,0.01953125,-0.95703125,0.009040762597307558,0.2823750696458891,15.145538644335971,0.16908310698202692,1098,0,2.560854730900682,1.0397696835488794,40.60244694876466,0.2715746324533174,0.1102659460681608,0.078125,,
1.1153849999997765,1200,,,,0,0.03515625,-0.96484375,0.009040762597307558,0.2823750696458891,15.1455871077144,0.16900943934823864,1098,0,2.559747185674722,1.039514015253252,40.61002668821168,0.27164142618807824,0.1103136556712174,0.078125,,
1.1239850000003353,1200,,,,-0.0625,0.09765625,-0.978515625,0.009040762597307558,0.2823750696458891,15.145508610628683,0.16892816388519102,1098,0,2.558502960700854,1.039392802373476,40.62503809214878,0.27167310472140993,0.110367302279196,0.078125,,
1.131910000000149,1200,,,,-0.03125,0.025390625,-0.9453125,0.009040762597307558,0.2823750696458891,15.145630905094324,0.16949018924474546,1098,0,2.5670358483355025,1.0393455510420777,40.48815881227378,0.2716854556819642,0.11000043876636337,0.078125,,
1.139445000000298,1200,,,,-0.0625,-0.03125,-0.953125,0.009040762597307558,0.2823750696458891,15.145809084189551,0.16917900398552202,1098,0,2.56235289541806,1.039327108749992,40.56143517969335,0.27169027659203854,0.11020147542940928,0.078125,,
1.1466399999996648,1200,,,,-0.03125,0.0859375,-0.96875,0.009040762597307558,0.2823750696458891,15.145905019113957,0.1690996953811345,1098,0,2.561167925003766,1.039804682327763,40.5988483682199,0.27156549152457077,0.11025246212447153,0.078125,,
1.1546650000000374,1200,,,,0,-0.0625,-0.94140625,0.009040762597307558,0.2823750696458891,15.14607349103287,0.1685883878110923,1099,0,2.5534521115215543,1.0400244782410801,40.73013445399409,0.2715080996203571,0.11058561402885565,0.078125,,
1.1620049999998883,1200,,,,-0.0625,0.033203125,-0.9296875,0.009040762597307558,0.2823750696458891,15.145810974034811,0.1679722399073232,1099,0,2.544075794521544,1.0401051550723017,40.88341854091304,0.2714870398140274,0.11099318277150404,0.078125,,
1.1710049999998882,1200,,,,-0.0625,0.109375,-0.95703125,0.009040762597307558,0.2823750696458891,15.145490729322928,0.17212280442513195,1099,0,2.6068843387258993,1.0401450832588504,39.89993218368927,0.2714766182052098,0.10831898655845176,0.078125,,
1.1790950000006706,1200,,,,-0.0625,0.03515625,-0.94921875,0.009040762597307558,0.2823750696458891,15.145417802504971,0.1744396533244462,1099,0,2.641961430922863,1.0407624904877568,39.39355352830447,0.27131557125348843,0.10688084479236803,0.078125,,
1.1875099999997765,1200,,,,-0.03125,0.05078125,-0.970703125,0.009147907583425345,0.2823750696458891,15.145559337691342,0.1738140424385185,1101,0,2.6325108934765833,1.0546529203679098,40.06262321578086,0.26774217772742154,0.10726453985266322,0.078125,,
1.194800000000745,1200,,,,-0.125,0.01953125,-1.046875,0.009147907583425345,0.2823750696458891,15.145663784516525,0.17214442271848437,1101,0,2.6072415488738527,1.0551426743944994,40.46969391271966,0.26761790277123604,0.10830414610715892,0.080078125,,
1.2029150000000373,1200,,,,0,0.072265625,-0.98046875,0.009147907583425345,0.2823750696458891,15.145778766056159,0.17148200418116363,1102,0,2.5972284976878215,1.0553748499775533,40.634655399673115,0.2675590285782297,0.10872168925347654,0.078125,,
1.211105000000447,1200,,,,-0.03125,0.009765625,-0.95703125,0.009147907583425345,0.2852995827057755,15.145692694650984,0.17065288284634728,1102,0,2.5846561210470522,1.0554653394248088,40.83581296676467,0.27030691776316756,0.11038202737399347,0.078125,,
1.2200800000000744,1200,,,,-0.0625,-0.0390625,-0.890625,0.009147907583425345,0.2852995827057755,15.14604351611207,0.17047004334164828,1105,0,2.581946694646115,1.0580804786304396,40.97995054756394,0.26963883037995573,0.11049785934673566,0.078125,,
1.2306299999998882,1200,,,,-0.0625,0.103515625,-0.970703125,0.009147907583425345,0.2852995827057755,15.146223887822739,0.16887329588241584,1108,0,2.557792748109604,1.0615580674456102,41.502896129101124,0.26875551272695036,0.11154132128829936,0.078125,,
1.2396849999995903,1200,,,,-0.0625,0.0390625,-0.923828125,0.009147907583425345,0.2852995827057755,15.146170807228078,0.16644897661922373,1109,0,2.5210646305630755,1.0628597571418894,42.15916340488667,0.26842636649727686,0.11316631047338692,0.080078125,,
1.2477000000001863,1200,,,,-0.0625,0.0390625,-0.986328125,0.009147907583425345,0.2852995827057755,15.146273396802215,0.16601357304576023,1110,0,2.5144869649310793,1.0632806062306215,42.28618485837987,0.26832012267878713,0.11346234308818355,0.078125,,
1.2544500000001864,1200,,,,-0.03125,0.099609375,-0.939453125,0.009147907583425345,0.2852995827057755,15.146261655349772,0.1657915607929106,1108,0,2.5111223600182524,1.0618345947964671,42.285259042046405,0.268685522306289,0.11361436911568967,0.078125,,
1.2629749999996274,1200,,,,0,-0.0390625,-0.94140625,0.009147907583425345,0.2852995827057755,15.146149099979198,0.16554586297292045,1106,0,2.5073823234725787,1.0594453445327852,42.25304352730361,0.26929145913760416,0.11378383744472288,0.078125,,
1.2704750000005587,1200,,,,-0.0625,0.0078125,-0.92578125,0.009147907583425345,0.2852995827057755,15.146109475519467,0.1660571424472601,1105,0,2.5151196586981324,1.0585246236159904,42.08645182964775,0.2695256929698746,0.11343380094029057,0.078125,,
1.278210000000894,1200,,,,-0.0625,0.109375,-0.95703125,0.009147907583425345,0.2852995827057755,15.14607212713183,0.16695833071936345,1105,0,2.5287629193010086,1.0581609205625926,41.84500304421917,0.26961833229873033,0.11282179935817668,0.080078125,,
1.285230000000447,1200,,,,-0.0625,0.068359375,-0.974609375,0.009147907583425345,0.2852995827057755,15.146069059004422,0.1686576665812606,1104,0,2.5545006653703153,1.058024576877527,41.41805837909811,0.26965307700862673,0.11168506885646742,0.080078125,,
1.2926749999998137,1200,,,,0,0.0078125,-1.00390625,0.009147907583425345,0.2852995827057755,15.145805416268725,0.1686016049100248,1104,0,2.553607100837853,1.0579647076706051,41.43020699321681,0.26966833641732674,0.11172414997286273,0.078125,,
1.3000400000000372,1200,,,,-0.0625,0.02734375,-1.015625,0.009147907583425345,0.2852995827057755,15.14581388352407,0.16826607755286763,1104,0,2.5485266935263606,1.0576923225303323,41.502108854383565,0.269737783501396,0.11194686853015084,0.080078125,,
1.3092000000001862,1200,,,,0,0.09765625,-0.95703125,0.009147907583425345,0.2852995827057755,15.14549278877116,0.1677372684006033,1104,0,2.5404635889695095,1.0575576240064042,41.62852908414965,0.2697721393421186,0.11230217348696654,0.080078125,,
1.3170499999998138,1200,,,,-0.03125,0.02734375,-0.986328125,0.009147907583425345,0.2852995827057755,15.145517675808069,0.16835694252975603,1104,0,2.5498530489294233,1.0575123531764838,41.473462700938356,0.26978368796242613,0.11188863720031272,0.078125,,
1.3253750000009312,1200,,,,-0.0625,0.03515625,-0.939453125,0.009147907583425345,0.2852995827057755,15.145574031201367,0.1685212630127291,1104,0,2.552351264790845,1.0574944649857911,41.43216803947432,0.2697882515248993,0.11177912172255594,0.078125,,
1.3336849999995901,1200,,,,0,0.09375,-0.98046875,0.008889373776715928,0.2852995827057755,15.145706282573485,0.16893160855298098,1104,0,2.5585885249861287,1.0274430778610997,40.1566358884014,0.27767921051130506,0.1115066295028124,0.078125,,
1.3401850000005215,1200,,,,-0.0625,0.07421875,-1.01953125,0.008889373776715928,0.2852995827057755,15.14597385504779,0.16803480397407283,1103,0,2.5450507477293876,1.027114807173574,40.35734093278623,0.2777679580833481,0.11209976184573554,0.078125,,
1.3475250000003725,1200,,,,0,0,-0.97265625,0.008889373776715928,0.2852995827057755,15.1462351238734,0.16772361637674985,1103,0,2.5403813294685964,1.0269685311256862,40.42576282594984,0.2778075219043483,0.11230580991770052,0.078125,,
1.3548250000001862,1200,,,,-0.03125,0.013671875,-0.96875,0.008889373776715928,0.2852995827057755,15.1462249609318,0.16714367522443346,1103,0,2.5315957057461924,1.0269049686409697,40.56354521024468,0.27782471739653547,0.11269555484637818,0.078125,,
1.3640599999995902,1200,,,,-0.03125,0.0390625,-0.970703125,0.008889373776715928,0.29345576981876326,15.14632303989721,0.1682353619988957,1103,0,2.548147139569321,1.0268735569019385,40.29883286392547,0.28577595347192963,0.11516437385494235,0.078125,,
1.3721550000002607,1200,,,,-0.0625,0.02734375,-0.998046875,0.008889373776715928,0.29345576981876326,15.146470703765129,0.1679800814346422,1103,0,2.5443053822658883,1.026564723295188,40.34754359482421,0.285861926831846,0.11533826554948355,0.078125,,
1.382230000000447,1200,,,,0,0.03515625,-0.96875,0.008889373776715928,0.29345576981876326,15.146414710200109,0.16709375647267097,1102,0,2.530871331020258,1.0258441814378871,40.53324121476944,0.28606271315731147,0.11595048954956705,0.078125,,
1.3903950000004843,1200,,,,-0.03125,0.017578125,-1,0.008889373776715928,0.29345576981876326,15.14643018804463,0.1663128212119542,1102,0,2.5190455358636124,1.0255298770288523,40.71104957923147,0.2861503856610773,0.11649482537764323,0.078125,,
1.3979599999999628,1200,,,,-0.0625,0.03515625,-0.99609375,0.008889373776715928,0.29345576981876326,15.14631221475465,0.1680492448729778,1102,0,2.5453263302998788,1.0254385343779506,40.28711455073575,0.2861758749848218,0.11529200257170548,0.080078125,,
1.4053050000006333,1200,,,,0,0.10546875,-0.9921875,0.008889373776715928,0.29345576981876326,15.146383944473584,0.1680202508375336,1102,0,2.544899229632043,1.0254047967982634,40.292550088379045,0.28618529066282233,0.11531135158589084,0.080078125,,
1.4129550000000746,1200,,,,-0.0625,0.04296875,-0.98046875,0.008889373776715928,0.29345576981876326,15.146464248995454,0.16831100954987546,1101,0,2.549316688859521,1.0247468747276802,40.19692332481915,0.28636903127589164,0.11511153992799755,0.080078125,,
1.4202249999996275,1200,,,,-0.0625,0.08203125,-1.05859375,0.008889373776715928,0.29345576981876326,15.146444187713856,0.16714192377536055,1101,0,2.531605819890622,1.0245086024819197,40.46872520328554,0.2864356327588202,0.1159168491054591,0.080078125,,
1.4281650000000372,1200,,,,0,0.041015625,-1.001953125,0.008889373776715928,0.29345576981876326,15.146325634239581,0.16715285082935988,1100,0,2.5317515093529583,1.0243981405009954,40.462033367674444,0.2864665194289057,0.11591017867853942,0.080078125,,
1.4361499999994412,1200,,,,-0.0625,-0.0234375,-0.9765625,0.008889373776715928,0.29345576981876326,15.146309677394084,0.16652401958778243,1100,0,2.522224369400991,1.024353921693418,40.61311650623272,0.2864788854750853,0.11634800352375342,0.080078125,,
1.4521699999999256,1200,,,,-0.03125,0.0625,-0.96484375,0.008889373776715928,0.29345576981876326,15.146456414134924,0.16541053496215447,1100,0,2.5053834582430135,1.0236273567126013,40.85711324327396,0.2866822265880057,0.11713008196540071,0.080078125,,
1.4614350000005216,1200,,,,-0.0625,0.0078125,-0.9453125,0.008889373776715928,0.29345576981876326,15.14630562854049,0.16473076210988552,1099,0,2.4950624693387238,1.0228221873691874,40.99385085297163,0.2869079038787418,0.11761459820143863,0.080078125,,
1.4691350000007077,1200,,,,-0.03125,0.00390625,-0.9609375,0.008889373776715928,0.29345576981876326,15.146260560037843,0.1650545645760832,1099,0,2.4999594416929485,1.0225946960743744,40.90445144909564,0.28697173077985527,0.11738421228947533,0.080078125,,
1.4779950000001119,1200,,,,-0.03125,0.09765625,-0.986328125,0.008889373776715928,0.29345576981876326,15.146351348369944,0.16517528929934414,1098,0,2.5018029657965166,1.022494879307073,40.870320056621004,0.2869997451895634,0.11729771442066131,0.080078125,,
1.4862249999996275,1200,,,,-0.0625,0.01953125,-1.01953125,0.008262272490082906,0.29345576981876326,15.146301574089394,0.16464517729082698,1098,0,2.49376550796628,0.9503293170953782,38.10820680852196,0.30879376710769313,0.11767576738122537,0.080078125,,
1.4941449999995529,1200,,,,-0.0625,-0.001953125,-0.935546875,0.008262272490082906,0.29345576981876326,15.146187786282368,0.1641354830927542,1099,0,2.4860268493150297,0.9509492514609829,38.25176915217131,0.30859246102556476,0.11804207581250323,0.080078125,,
1.5021850000005215,1200,,,,0,0.0703125,-0.970703125,0.008262272490082906,0.29345576981876326,15.146210910669,0.1630358945528168,1100,0,2.4693760449065545,0.9515006211705814,38.53202606112541,0.30841363977013486,0.11883802405229381,0.080078125,,
1.5102200000006705,1200,,,,-0.0625,0.06640625,-0.9921875,0.008262272490082906,0.30005143975027254,15.146233574705334,0.16325089967709047,1100,0,2.47263625779,0.9517248340237081,38.49028869593393,0.31527120972740963,0.12134879879924328,0.080078125,,
1.5177450000001118,1200,,,,-0.03125,-0.0078125,-0.953125,0.008262272490082906,0.30005143975027254,15.146125616838193,0.16407906926857738,1100,0,2.4851621942357682,0.9518112029219442,38.29976188796173,0.31524260150453287,0.12073716574565216,0.080078125,,
1.526035000000149,1200,,,,-0.0625,0.111328125,-0.955078125,0.008262272490082906,0.30005143975027254,15.14611947243852,0.1642411138756756,1100,0,2.487615533047363,0.9518460053668177,38.263388884728236,0.3152310752563806,0.12061809221085922,0.080078125,,
1.538230000000447,1200,,,,-0.03125,0.025390625,-1.01953125,0.008262272490082906,0.30005143975027254,15.146366116610084,0.16370458706460186,1100,0,2.4795296106489313,0.9514867486620138,38.373679611472554,0.31535009833001526,0.12101143638762371,0.080078125,,
1.5592450000001117,1200,,,,-0.03125,0.08984375,-1.029296875,0.008262272490082906,0.30005143975027254,15.146248105695262,0.16350045981935118,1099,0,2.4764185298191523,0.9512981988065572,38.414273974764214,0.3154126015656284,0.12116346091635191,0.080078125,,
1.5667400000002236,1200,,,,-0.09375,0.044921875,-0.953125,0.008262272490082906,0.30005143975027254,15.146326348584394,0.16367320098685317,1099,0,2.4790477166643234,0.9512891647712831,38.37316879286567,0.3154155969204311,0.12103495940530182,0.080078125,,
1.5759950000001117,1200,,,,-0.03125,0.009765625,-0.939453125,0.008262272490082906,0.30005143975027254,15.146407014027766,0.1641645106397929,1099,0,2.486502495408995,0.951109573373795,38.25089961220211,0.31547515465113457,0.12067208470704481,0.080078125,,
1.5835400000000373,1200,,,,-0.0625,0.0859375,-0.986328125,0.008262272490082906,0.30005143975027254,15.146058862160446,0.16657921950404728,1099,0,2.5230186638210457,0.9510331109186125,37.69425587515464,0.3155005186522369,0.11892557278821414,0.080078125,,
1.590710000000894,1200,,,,-0.125,0.12109375,-0.95703125,0.008262272490082906,0.30005143975027254,15.145969339308074,0.16916428650968932,1099,0,2.562157096781681,0.9510085230044074,37.117494637583576,0.3155086757817437,0.11710891581439967,0.080078125,,
1.5982099999999628,1200,,,,0,0.09765625,-0.9921875,0.008262272490082906,0.30005143975027254,15.145745495976962,0.17117243917872135,1099,0,2.5925341997265097,0.9509972377500935,36.68214821815718,0.3155124198469241,0.11573673349494307,0.080078125,,
1.6070300000002609,1200,,,,-0.0625,0,-0.96875,0.008262272490082906,0.30005143975027254,15.14566777270848,0.17013271443359562,1099,0,2.576773570080324,0.9509929299049005,36.90634446686194,0.31551384906749813,0.11644462797750571,0.080078125,,
1.6150400000000373,1200,,,,0,0.015625,-0.990234375,0.008262272490082906,0.30005143975027254,15.145576504635809,0.17069457579859787,1104,0,2.58526775668402,0.955144622133807,36.94567495627293,0.3141424165483477,0.11606203611773348,0.080078125,,
1.6228700000001117,1200,,,,-0.125,0.10546875,-0.9921875,0.008262272490082906,0.30005143975027254,15.145629813769938,0.1698962292140332,1106,0,2.5731853944311522,0.9565509517704895,37.17380620302922,0.31368056159988594,0.11660700406571528,0.08203125,,
1.6308849999997765,1200,,,,-0.03125,0.046875,-0.912109375,0.00822630442989111,0.30005143975027254,15.145746396671953,0.16934447124076257,1106,0,2.564848415091097,0.9529432552501771,37.153979535134866,0.31486810793524084,0.11698603238492575,0.080078125,,
1.6384799999995157,1200,,,,-0.0625,0.078125,-0.98046875,0.00822630442989111,0.30005143975027254,15.14566831912763,0.1692560800719954,1106,0,2.5634964497661503,0.953151111407315,37.18168252170836,0.31479944382297426,0.11704772978236196,0.080078125,,
1.6459349999995903,1200,,,,-0.03125,0.044921875,-1.017578125,0.00822630442989111,0.30005143975027254,15.145684001860692,0.16793803917612407,1108,0,2.5435364732536767,0.9545290926028576,37.52763534708939,0.31434499176141123,0.11796624224006055,0.080078125,,
1.653125,1200,,,,-0.0625,0.07421875,-0.9765625,0.00822630442989111,0.30005143975027254,15.145726254281685,0.16716818198963926,1109,0,2.531883522841018,0.9550613523886822,37.72137792962178,0.31416980594997457,0.11850917984314926,0.080078125,,
1.661170000000857,1200,,,,-0.03125,0.013671875,-0.970703125,0.00822630442989111,0.29948427139908423,15.1459373297132,0.166534770690559,1109,0,2.5223252000973653,0.9553129077621884,37.87429581741926,0.31349337893970614,0.11873340970764741,0.080078125,,
1.6692000000001863,1200,,,,-0.03125,0.0703125,-1.04296875,0.00822630442989111,0.29948427139908423,15.145842135659233,0.16465529284749617,1109,0,2.493843072268918,0.9554114153976412,38.31080736481147,0.3134610562240762,0.12008946141370919,0.08203125,,
1.6772099999999628,1200,,,,-0.125,0.046875,-0.9453125,0.00822630442989111,0.29948427139908423,15.145882415779653,0.16415217558740552,1109,0,2.4862295497412594,0.9554500167849662,38.42967826057732,0.31344839200153185,0.12045720855914184,0.08203125,,
1.687464999999851,1200,,,,-0.03125,0.013671875,-0.93359375,0.00822630442989111,0.29948427139908423,15.145986872482842,0.16463146198356834,1107,0,2.4935059620007842,0.9539898958663485,38.25897793726825,0.3139281377053926,0.12010569694358326,0.08203125,,
1.7038449999997392,1200,,,,-0.0625,0.09765625,-0.990234375,0.00822630442989111,0.29948427139908423,15.146152473438123,0.16226675261770843,1105,0,2.4577169765174767,0.9520858878730113,38.73863007701127,0.3145559399773703,0.12185466197309908,0.08203125,,
1.7118650000002236,1200,,,,-0.0625,-0.01953125,-0.92578125,0.00822630442989111,0.29948427139908423,15.146047923104403,0.1635691859686587,1105,0,2.4774267294244807,0.9519314580566802,38.42420228822746,0.3146069697186667,0.12088521845756303,0.08203125,,
1.7191999999992549,1200,,,,-0.03125,0.068359375,-1.03515625,0.00822630442989111,0.29948427139908423,15.145782656087754,0.1634502921274653,1105,0,2.475582599636641,0.9518735405634214,38.45048598673843,0.31462611222685855,0.12097526919240816,0.08203125,,
1.727105000000447,1200,,,,-0.125,0.05078125,-0.98046875,0.00822630442989111,0.29948427139908423,15.145760751511336,0.16215395087457649,1103,0,2.4559449448586577,0.9500705438070217,38.68452123879753,0.3152231940578041,0.12194258345490716,0.08203125,,
1.7353050000006334,1200,,,,-0.03125,-0.00390625,-0.921875,0.00822630442989111,0.29948427139908423,15.14567402832872,0.16080746312082136,1102,0,2.4355374177504525,0.9493565058190867,38.979343897575816,0.31546028237379053,0.12296434832674358,0.08203125,,
1.7429350000005215,1200,,,,-0.03125,0.05078125,-0.994140625,0.00822630442989111,0.29948427139908423,15.145788344220378,0.15952962006438878,1102,0,2.416201860129125,0.9490761605465501,39.27967179430241,0.31555346541063517,0.12394836554884509,0.08203125,,
1.7509699999997392,1200,,,,-0.0625,0.078125,-0.97265625,0.00822630442989111,0.29948427139908423,15.14570069469552,0.15885011335349955,1102,0,2.40589627217056,0.948965873894041,39.44334113115773,0.31559013831568383,0.1244792948321477,0.08203125,,
1.7591000000005588,1200,,,,0,0.021484375,-0.966796875,0.00822630442989111,0.29948427139908423,15.1459108026924,0.15799379695791077,1102,0,2.39295995610321,0.9489224158413919,39.654755334337246,0.3156045914813142,0.1251522285758497,0.08203125,,
1.7670300000002608,1200,,,,-0.0625,-0.015625,-1.046875,0.00822630442989111,0.29948427139908423,15.145817425950913,0.15887651939827982,1100,0,2.406314756076895,0.9476690502969197,39.3825889943816,0.31602200294000427,0.12445764654967444,0.08203125,,
1.775214999999851,1200,,,,-0.0625,0.1015625,-0.990234375,0.00822630442989111,0.29948427139908423,15.14599282499024,0.15908353519410542,1099,0,2.4094780826240028,0.9471685464851517,39.310112564031016,0.3161889956232611,0.12429425009458304,0.08203125,,
1.7835949999997391,1200,,,,-0.0625,0.076171875,-0.990234375,0.008723172900358215,0.29948427139908423,15.145993215794057,0.16043519941667614,1099,0,2.4299504419395435,1.00417382557619,41.3248685341367,0.29823947186359057,0.12324706966453242,0.08203125,,
1.792304999999702,1200,,,,-0.03125,0,-0.97265625,0.008723172900358215,0.29948427139908423,15.145883831700107,0.1615313209781042,1099,0,2.4465346227154288,1.0040876613235667,41.041220181430404,0.2982650648294099,0.12241162198092426,0.08203125,,
1.8002649999996647,1200,,,,-0.0625,0.1484375,-1.0546875,0.008723172900358215,0.29948427139908423,15.145791380148502,0.1620309971713522,1099,0,2.4540876802747325,1.0041208745650942,40.91625913107897,0.29825519913506143,0.12203487015001734,0.083984375,,
1.8082900000000373,1200,,,,-0.03125,0.033203125,-0.96875,0.008723172900358215,0.3026133669572087,15.145834032678206,0.16207948335440647,1099,0,2.4548289549880704,1.0042581654122396,40.90949649960927,0.30133025289666276,0.12327268926102401,0.083984375,,
1.8195050000008195,1200,,,,-0.03125,0.015625,-0.98828125,0.008723172900358215,0.3026133669572087,15.146216703320556,0.16159958621314882,1099,0,2.447622351951285,1.0043194856440743,41.0324527737465,0.30131185472632893,0.12363564449228057,0.08203125,,
1.827554999999702,1200,,,,-0.03125,0.111328125,-0.978515625,0.008723172900358215,0.3026133669572087,15.1460983377771,0.16190770083655615,1099,0,2.452269958513875,1.0043378879771736,40.955437409746786,0.301306333834223,0.12340132696507788,0.083984375,,
1.8345300000002607,1200,,,,-0.0625,0.02734375,-0.95703125,0.008723172900358215,0.3026133669572087,15.146191702690347,0.16047082543846983,1099,0,2.4305218847800227,1.004344363332128,41.32216910373664,0.3013043912082345,0.12450551005205086,0.08203125,,
1.8451850000005214,1200,,,,-0.0625,0.005859375,-0.9609375,0.008723172900358215,0.3026133669572087,15.146081650125785,0.159182741341246,1099,0,2.410994797645365,1.0042838093798987,41.65433332169386,0.30132255855449785,0.1255139029137467,0.08203125,,
1.8534150000000373,1200,,,,-0.03125,0.0703125,-0.962890625,0.008723172900358215,0.3026133669572087,15.146359249837618,0.15941552559652028,1099,0,2.4145648206865804,1.004258158927051,41.59168353332882,0.3013302548425603,0.12532832598429094,0.08203125,,
1.8697050000000746,1200,,,,-0.03125,0.0390625,-0.982421875,0.008723172900358215,0.3026133669572087,15.146421195113142,0.1617339747673847,1099,0,2.4496909033866094,1.0042475537618147,40.99486806165948,0.3013334369833893,0.12353124491700428,0.08203125,,
1.8768799999998882,1200,,,,-0.0625,0.076171875,-0.98046875,0.008723172900358215,0.3026133669572087,15.146497716891618,0.1609555433274591,1099,0,2.437912769530409,1.0042463686650236,41.19287536520274,0.3013337925826729,0.12412805361181899,0.08203125,,
1.8839900000002234,1200,,,,-0.0625,0.09765625,-1.05859375,0.008723172900358215,0.3026133669572087,15.14638775316709,0.16009096962625413,1099,0,2.4247999017397404,1.00412831780187,41.410770310631825,0.3013692190452884,0.12479931508578926,0.08203125,,
1.8924049999993295,1200,,,,-0.0625,0.046875,-1.001953125,0.008723172900358215,0.3026133669572087,15.146271412993395,0.1607629897494314,1099,0,2.434959875909163,1.0040747063429134,41.235780362418204,0.30138531032158045,0.12427858460879945,0.08203125,,
1.9013400000007823,1200,,,,-0.03125,-0.00390625,-0.92578125,0.008723172900358215,0.3026133669572087,15.146366053305098,0.1618381926933609,1099,0,2.4512605079389704,1.0040521479592726,40.96064635755437,0.30139208164861536,0.12345214471376086,0.08203125,,
1.9093499999996275,1200,,,,0,0.06640625,-1.01953125,0.008723172900358215,0.3026133669572087,15.146380809159082,0.1623213273648265,1099,0,2.458580637715837,1.0040444910795294,40.83837949738125,0.3013943800755728,0.123084580719042,0.08203125,,
1.9173300000000746,1200,,,,-0.0625,0.0234375,-0.982421875,0.008723172900358215,0.3026133669572087,15.146166625421746,0.1612947675826678,1099,0,2.4429974256157605,1.0040414689620127,41.098752640271115,0.30139528725845677,0.1238697035797877,0.08203125,,
1.9254650000007822,1200,,,,-0.03125,0.01953125,-0.96484375,0.008723172900358215,0.3026133669572087,15.146059576908513,0.16266765349090045,1099,0,2.4637739710090885,1.0035395060206194,40.73180079947023,0.3015460429227896,0.12282513352199564,0.08203125,,
1.9344750000005588,1200,,,,0,0.0625,-1.03125,0.008701280357590302,0.3026133669572087,15.146167998919955,0.16293014653645832,1098,0,2.467767371529844,1.000812460603063,40.555381035880586,0.30236770510916894,0.12262637493647122,0.08203125,,
1.9430049999998882,1200,,,,-0.03125,0.046875,-0.970703125,0.008701280357590302,0.3026133669572087,15.146255918695948,0.1618931828948834,1098,0,2.4520755796181533,1.0007441754273092,40.81212601053467,0.3023883369873179,0.1234111091324244,0.08203125,,
1.9517599999997766,1200,,,,-0.0625,0.03125,-0.943359375,0.008701280357590302,0.3026133669572087,15.146132846652101,0.16242855202559942,1098,0,2.460164427069071,1.000714926454537,40.67674971004859,0.30239717521686893,0.12300534209322286,0.080078125,,
1.9598050000006333,1200,,,,-0.03125,0.05859375,-0.98828125,0.008701280357590302,0.2847958225710147,15.146125494241327,0.1619783211111103,1098,0,2.4533439788953957,1.0006159994487354,40.78580125968544,0.28462049650207066,0.1160847500476645,0.080078125,,
1.9675400000000371,1200,,,,-0.0625,0.1171875,-1.02734375,0.008701280357590302,0.2847958225710147,15.145976174294944,0.16183611223162025,1098,0,2.451165900000643,1.0005467950052125,40.81921974375337,0.2846401827408092,0.11618790167199208,0.080078125,,
1.9757900000009685,1200,,,,-0.03125,-0.001953125,-0.921875,0.008701280357590302,0.2847958225710147,15.14587901158974,0.16146767581403157,1098,0,2.445569882161917,1.0005143828365508,40.91129802236861,0.28464940380326387,0.11645376590884873,0.080078125,,
1.9843650000002235,1200,,,,-0.0625,0.0390625,-0.966796875,0.008701280357590302,0.2847958225710147,15.145777068404948,0.1613167965798028,1098,0,2.443268238386923,1.0005009428459217,40.949287807484666,0.2846532275730934,0.11656346941220033,0.080078125,,
1.9924350000005215,1200,,,,-0.0625,0.11328125,-0.953125,0.008701280357590302,0.2847958225710147,15.145821268287152,0.16269521847946075,1098,0,2.4641527002948416,1.0004962948890654,40.602041211543174,0.284654549972714,0.11557555769045408,0.080078125,,
2.002375,1200,,,,-0.03125,0.025390625,-0.92578125,0.008701280357590302,0.2847958225710147,15.145829968809862,0.1632369561520601,1098,0,2.472359182505173,1.0005561589873064,40.46969251342641,0.28463751885677785,0.11519192865918412,0.080078125,,
2.0186350000007076,1200,,,,0,0.10546875,-0.98046875,0.008701280357590302,0.2847958225710147,15.145692402113648,0.16437388979254036,1098,0,2.4895563737367445,1.0005908939881607,40.19153390313897,0.2846276378109678,0.11439621354849872,0.080078125,,
2.026804999999702,1200,,,,-0.03125,0.017578125,-0.986328125,0.008701280357590302,0.2847958225710147,15.145605114352275,0.16430433759807567,1098,0,2.488488615835678,1.000593950671655,40.20890207430738,0.28462676831080547,0.11444529854735755,0.080078125,,
2.0346650000000372,1200,,,,-0.09375,0.0859375,-0.94140625,0.008701280357590302,0.2847958225710147,15.145533597467711,0.1644408910103118,1098,0,2.4905450395942035,1.0006245210145004,40.17692935107638,0.28461807260356714,0.11435080195033046,0.080078125,,
2.042695000000298,1200,,,,-0.0625,0.033203125,-0.947265625,0.008701280357590302,0.2847958225710147,15.145653929075158,0.16458353246755475,1098,0,2.4927252251782894,1.0006691359134297,40.14357963749727,0.28460538288816883,0.11425078853231606,0.080078125,,
2.050549999999814,1200,,,,0,0.03515625,-1.015625,0.008701280357590302,0.2847958225710147,15.145638288044806,0.16301526755721482,1098,0,2.468970277850421,1.0006868723406608,40.53053539437083,0.2846003384703767,0.11535004091623521,0.080078125,,
2.0675400000000375,1200,,,,-0.03125,0.01171875,-0.99609375,0.008701280357590302,0.2847958225710147,15.14587527445478,0.16410461529585277,1098,0,2.4855080352333703,1.0006960279690775,40.261226831041796,0.28459773458780546,0.11458253947840266,0.080078125,,
2.0765599999995903,1200,,,,-0.0625,0.072265625,-0.9765625,0.008701280357590302,0.2847958225710147,15.145804001739844,0.16367260048663998,1098,0,2.4789531274257186,1.0008508040983377,40.37393014920279,0.28455372309720633,0.11488552140022201,0.080078125,,
2.0861600000001492,1200,,,,-0.0625,0.064453125,-0.966796875,0.008038295332874656,0.2847958225710147,15.145594924646284,0.16459186519395166,1099,0,2.4928417181195797,0.9249276402506488,37.10334408830207,0.307911462667325,0.11424544948078137,0.080078125,,
2.0936500000003724,1200,,,,-0.03125,0.00390625,-0.998046875,0.008038295332874656,0.2847958225710147,15.145507214800293,0.16450580129985753,1099,0,2.491523800463496,0.9250478785427494,37.12779618523667,0.3078714401460609,0.11430588080998239,0.08203125,,
2.1005200000004844,1200,,,,-0.0625,0.064453125,-1.013671875,0.008038295332874656,0.2847958225710147,15.145612991986003,0.16490336446763695,1099,0,2.497562539303245,0.9250853564232391,37.03952721365343,0.30785896738453694,0.114029506004068,0.08203125,,
2.1084350000005214,1200,,,,0,0.09765625,-1,0.008038295332874656,0.29477167258809256,15.145719660264154,0.16559512077140795,1099,0,2.5080572763113302,0.9251024035244058,36.88521838245176,0.31863680330424743,0.1175298807456349,0.08203125,,
2.1169350000005216,1200,,,,-0.0625,-0.03515625,-0.88671875,0.008038295332874656,0.29477167258809256,15.145830938400765,0.166952542045407,1099,0,2.52863497655598,0.9248808854029041,36.57629092288357,0.31871311997077517,0.11657343796990968,0.08203125,,
2.1254200000008567,1200,,,,-0.03125,0.02734375,-1.0078125,0.008038295332874656,0.29477167258809256,15.145657397070433,0.1672131937301958,1099,0,2.5325537445075113,0.9247877805195224,36.516017972971376,0.31874520705982656,0.11639305709795109,0.08203125,,
2.13343499999959,1200,,,,0,0.04296875,-1,0.008038295332874656,0.29477167258809256,15.145576212402679,0.167540036376842,1099,0,2.537490389574178,0.9247561939062025,36.44373187405009,0.3187560943419765,0.11616661635418406,0.08203125,,
2.141325000000186,1200,,,,-0.125,0.04296875,-0.88671875,0.008038295332874656,0.29477167258809256,15.145629405457878,0.1685887870593675,1099,0,2.553383290716833,0.9247437777710474,36.21641063968254,0.31876037414233194,0.1154435660559754,0.08203125,,
2.1496550000002608,1200,,,,-0.03125,0.013671875,-0.99609375,0.008038295332874656,0.29477167258809256,15.145614932735848,0.16788774622161684,1099,0,2.5427631561974864,0.9247388256962713,36.367477774813665,0.31876208113804205,0.11592572901241094,0.08203125,,
2.1594750000005587,1200,,,,-0.03125,0.083984375,-0.97265625,0.008038295332874656,0.29477167258809256,15.145732152137976,0.16754229760124398,1099,0,2.5375507636222303,0.9254273131630602,36.46931231602467,0.3185249326395814,0.11616385248873616,0.08203125,,
2.1675750000001863,1200,,,,-0.03125,0.017578125,-0.966796875,0.008038295332874656,0.29477167258809256,15.145626557276344,0.16647315655105951,1100,0,2.5213402609333495,0.9257284713346781,36.7157295537728,0.318421310044729,0.1169107070376031,0.08203125,,
2.176910000000149,1200,,,,-0.0625,-0.05078125,-0.9453125,0.008038295332874656,0.29477167258809256,15.14561163228883,0.16740274433513827,1100,0,2.535416951879343,0.925818785069109,36.51544509800877,0.31839024800743154,0.11626161620856763,0.08203125,,
2.1855800000000745,1200,,,,-0.03125,0.091796875,-0.96875,0.008038295332874656,0.29477167258809256,15.145516239507552,0.16817144254869,1100,0,2.5470433141425954,0.9258559778975043,36.35022509262559,0.3183774578606489,0.11573092257652509,0.08203125,,
2.1933650000002234,1200,,,,-0.0625,0.072265625,-0.96875,0.008038295332874656,0.29477167258809256,15.145738573305596,0.16877750694835342,1100,0,2.55625999729403,0.9257130951100794,36.21357358367333,0.31842659906743603,0.11531365076327442,0.08203125,,
2.200694999999367,1200,,,,-0.0625,0.03125,-0.904296875,0.008038295332874656,0.29477167258809256,15.145656317788477,0.16912167810310044,1100,0,2.561458812437212,0.9255833548811432,36.13500831584547,0.31847123334012967,0.11507960665103147,0.08203125,,
2.2088300000000745,1200,,,,0,0.01171875,-0.96484375,0.008038295332874656,0.29477167258809256,15.14558380973804,0.16847447107590505,1100,0,2.5516442214814075,0.9255329339911486,36.27202124024219,0.31848858291509663,0.1155222464427102,0.08203125,,
2.2165449999999254,1200,,,,-0.03125,0.05078125,-0.9765625,0.008038295332874656,0.29477167258809256,15.145505145271535,0.16841944098319495,1099,0,2.5507975099747346,0.9255096376112276,36.283148073968235,0.31849659972089367,0.11556059288728576,0.08203125,,
2.224665000000037,1200,,,,-0.0625,0.041015625,-0.990234375,0.008038295332874656,0.29477167258809256,15.145561628856463,0.16710281445277922,1099,0,2.530865974649934,0.9255006442335797,36.56853636279944,0.3184996946514253,0.11647067665401166,0.08203125,,
2.2324950000001116,1200,,,,0,0.01171875,-0.8984375,0.00811534424468396,0.29477167258809256,15.145747310209636,0.16647491614763146,1100,0,2.5213870134603638,0.9347755155570601,37.073860956956764,0.31533953091660677,0.11690853923434248,0.08203125,,
2.2401749999998137,1200,,,,0,0.037109375,-1.037109375,0.00811534424468396,0.29477167258809256,15.145856948955839,0.1665183306013646,1100,0,2.5220628146672035,0.9349335171438321,37.07019157915781,0.3152862392703633,0.11687721292024557,0.08203125,,
2.247274999999441,1200,,,,-0.125,0.07421875,-1,0.00811534424468396,0.29477167258809256,15.145863200964124,0.16655520793401335,1100,0,2.522622394776701,0.9349923723564311,37.06430158918792,0.3152663928639215,0.11685128666043788,0.08203125,,
2.255320000000298,1200,,,,0,0.009765625,-0.966796875,0.00811534424468396,0.29477167258809256,15.14596771177998,0.1659586387768448,1100,0,2.513604184405048,0.9350196297856146,37.19836383097552,0.31525720230673565,0.11727052111741407,0.08203125,,
2.2633500000005586,1200,,,,-0.0625,0.07421875,-1.05859375,0.00811534424468396,0.28994574872012085,15.145870613143387,0.16667103549867418,1100,0,2.5243779386215475,0.9350304738764035,37.04003507442245,0.31009229840186703,0.11485829609113427,0.08203125,,
2.271790000000037,1200,,,,-0.0625,0.048828125,-0.990234375,0.00811534424468396,0.28994574872012085,15.145778922292564,0.16638588759258716,1100,0,2.5200438692667464,0.9350734796621104,37.10544451490789,0.31007803667460765,0.11505583385121228,0.08203125,,
2.2794950000001117,1200,,,,0,-0.02734375,-0.953125,0.00811534424468396,0.28994574872012085,15.145757240247457,0.16579723180883113,1100,0,2.51112462408159,0.9351097574653775,37.23868375538634,0.3100660071241489,0.11546449982591549,0.08203125,,
2.2879000000003726,1200,,,,-0.0625,0.1015625,-0.99609375,0.00811534424468396,0.28994574872012085,15.145867822521735,0.16544659792155703,1100,0,2.505832303805802,0.9351241856114461,37.317907674476075,0.31006122307759065,0.11570836096244658,0.08203125,,
2.295710000000894,1200,,,,-0.03125,0.05078125,-1,0.00811534424468396,0.28994574872012085,15.145874335249008,0.16554056034248493,1100,0,2.5072565243339824,0.9351298237811801,37.29693450611657,0.31005935362828085,0.11564263405282828,0.08203125,,
2.3038150000004096,1200,,,,-0.0625,0.1171875,-0.94140625,0.00811534424468396,0.28994574872012085,15.145912972838044,0.1656295439495395,1100,0,2.508610658390579,0.9351320473262876,37.276890465188,0.310058616373087,0.11558021080327312,0.08203125,,
2.3158450000006705,1200,,,,0,-0.052734375,-0.99609375,0.00811534424468396,0.28994574872012085,15.145808051282945,0.16643943452853793,1100,0,2.5208597275333102,0.9345794001636989,37.073835959853085,0.3102419641063505,0.11501859685141469,0.08203125,,
2.325910000000149,1200,,,,-0.0625,0.083984375,-1.00390625,0.00811534424468396,0.28994574872012085,15.146046454832005,0.16480691615009946,1099,0,2.4961732080870096,0.9343537446739287,37.431446730012325,0.31031689054909956,0.11615610158011687,0.08203125,,
2.3348250000001864,1200,,,,-0.03125,-0.009765625,-0.91796875,0.00811534424468396,0.28994574872012085,15.145924704863573,0.16340855432651527,1099,0,2.4749736599600087,0.9342979693594133,37.74981465356322,0.3103354157120962,0.11715104423568125,0.08203125,,
2.3444350000005216,1200,,,,-0.09375,0.080078125,-0.96875,0.00811534424468396,0.28994574872012085,15.145889042032445,0.1652234520936768,1099,0,2.502456072552392,0.9342791995462719,37.33448949588751,0.3103416503984372,0.11586447086936848,0.08203125,,
2.3526849999995902,1200,,,,-0.03125,0.046875,-0.9765625,0.00811534424468396,0.28994574872012085,15.145861648454964,0.1687642598027683,1099,0,2.556080130176638,0.9343318711481826,36.55330911255961,0.3103241553387364,0.11343374775190797,0.08203125,,
2.362645000000484,1200,,,,-0.0625,0.03515625,-0.953125,0.00811534424468396,0.28994574872012085,15.145706682174401,0.17248368026914312,1099,0,2.612387228818394,0.9343522866540707,35.76622471381039,0.31031737478635696,0.11098880959208558,0.08203125,,
2.3709749999996275,1200,,,,-0.0625,0.00390625,-0.953125,0.00811534424468396,0.28994574872012085,15.145660138177654,0.17214647756166676,1099,0,2.60727204313343,0.9343616862019691,35.83675469012621,0.3103142530369626,0.11120655762935382,0.08203125,,
2.3779400000004096,1200,,,,-0.03125,0.0546875,-0.978515625,0.00811534424468396,0.28994574872012085,15.145588309867378,0.17109327818236308,1099,0,2.591308353935686,0.9343640098671963,36.057615777299596,0.31031348131798403,0.11189164279880105,0.08203125,,
2.386959999999963,1200,,,,-0.0625,0.01953125,-0.9140625,0.008899171219116502,0.28994574872012085,15.145504740825688,0.17021207742519295,1105,0,2.577947825589049,1.0302055339218934,39.96223366880965,0.28144456535418255,0.11247153485500415,0.08203125,,
2.394655000000261,1200,,,,-0.03125,0.041015625,-0.982421875,0.008899171219116502,0.28994574872012085,15.145558879711583,0.16967543625424225,1108,0,2.5698293102293754,1.0321574651358405,40.164436642825635,0.28091232056531373,0.11282685101534667,0.08203125,,
2.4031050000004472,1200,,,,-0.03125,0.10546875,-0.96875,0.008899171219116502,0.28994574872012085,15.14547876096495,0.1682166043128816,1108,0,2.5477210078623935,1.0330037776284073,40.54618910157377,0.28068217658001665,0.11380592609054677,0.08203125,,
2.411660000000149,1200,,,,-0.0625,-0.015625,-0.9453125,0.008899171219116502,0.2969290497044783,15.145541168434175,0.16726109890807786,1109,0,2.5332598593898337,1.0333281732604258,40.790453037428044,0.28735212818942896,0.11721223490115903,0.08203125,,
2.4197400000002234,1200,,,,-0.03125,0.00390625,-0.96484375,0.008899171219116502,0.2969290497044783,15.14566201205618,0.16726631187531496,1109,0,2.5333590256666993,1.0334450335735987,40.7934691886646,0.28731963486990036,0.11720764672363643,0.08203125,,
2.427535000000149,1200,,,,-0.0625,0.09375,-0.970703125,0.008899171219116502,0.2969290497044783,15.145451672251223,0.16706017248924201,1107,0,2.530201768793768,1.0312428527273594,40.75733664588289,0.2879331952887538,0.11735390171908477,0.08203125,,
2.4352250000005586,1200,,,,-0.0625,0.0546875,-0.90625,0.008899171219116502,0.2969290497044783,15.14551068171675,0.16644310516943292,1106,0,2.520865827241751,1.0303679017715186,40.873571716385776,0.2881776976883365,0.11778851793527163,0.08203125,,
2.443415000000037,1200,,,,-0.03125,0.0234375,-0.970703125,0.008899171219116502,0.2969290497044783,15.145633543519565,0.1652045187406497,1105,0,2.502127100579391,1.0300171539937641,41.165660759409626,0.28827582973076965,0.11867065011834196,0.08203125,,
2.4518150000004097,1200,,,,-0.125,0.046875,-0.97265625,0.008899171219116502,0.2969290497044783,15.145486364295957,0.16466584562675832,1105,0,2.493944319605331,1.0298789638748296,41.29518673607792,0.28831451085019616,0.11906001564279815,0.08203125,,
2.4607649999996646,1200,,,,0,0.07421875,-0.955078125,0.008899171219116502,0.2969290497044783,15.14540525009749,0.16374627866622637,1105,0,2.4800037485953914,1.0298222527649317,41.525028070953354,0.28833038799391303,0.1197292745515611,0.08203125,,
2.47156500000041,1200,,,,-0.0625,0.0390625,-0.990234375,0.008899171219116502,0.2969290497044783,15.145467831643384,0.16371063438923641,1102,0,2.4794741468401114,1.026778416883259,41.41113623595571,0.28918512974376054,0.11975484805231394,0.08203125,,
2.4875,1200,,,,-0.0625,0.076171875,-0.974609375,0.008899171219116502,0.2969290497044783,15.145396797430381,0.16510977838872207,1100,0,2.5006531088329913,1.0250586588844204,40.9916375551504,0.28967030045639397,0.11874059966800019,0.08203125,,
2.4956300000008196,1200,,,,-0.03125,0.01171875,-0.990234375,0.008899171219116502,0.2969290497044783,15.145324432508747,0.1659018818622398,1100,0,2.5126378247673604,1.0249115581764543,40.7902622524338,0.28971187546443633,0.11817423377838798,0.08203125,,
2.50244000000041,1200,,,,0,0.0703125,-0.98828125,0.008899171219116502,0.2969290497044783,15.14526797299493,0.16559428493306583,1100,0,2.5079698201077587,1.0252744980378714,40.88065533395529,0.28960931952636004,0.11839418773058454,0.080078125,,
2.5098650000002234,1200,,,,-0.03125,0.048828125,-1.00390625,0.008899171219116502,0.2969290497044783,15.14511954015466,0.16508303135215008,1100,0,2.5002022438794125,1.0254399565379737,41.01428030665474,0.2895625899998588,0.11876201232575148,0.080078125,,
2.517165000000037,1200,,,,-0.0625,0.02734375,-0.9609375,0.008899171219116502,0.2969290497044783,15.145158911979195,0.1648942293846057,1100,0,2.4973493076982027,1.0255086865304441,41.0638865524043,0.28954318340204854,0.11889768435243714,0.080078125,,
2.5243199999993666,1200,,,,-0.125,0.04296875,-0.9609375,0.008899171219116502,0.2969290497044783,15.145166545078373,0.16538245542940225,1100,0,2.504744831112298,1.0255375409561458,40.943793084931876,0.28953503684286447,0.11854662639332371,0.08203125,,
2.5324650000007822,1200,,,,-0.03125,0.044921875,-0.939453125,0.00883046145764262,0.2969290497044783,15.145307740162984,0.16515699153879707,1100,0,2.5013534622945754,1.0176327126943923,40.683283191847806,0.29178410442240743,0.11870735351096494,0.080078125,,
2.541640000000596,1200,,,,-0.03125,0.060546875,-1.005859375,0.00883046145764262,0.2969290497044783,15.145444309965573,0.1659289540035073,1100,0,2.513067732270959,1.0175520922126293,40.490436415460564,0.2918072224281089,0.11815401785297501,0.080078125,,
2.5589200000008567,1200,,,,-0.03125,0.03125,-0.97265625,0.00883046145764262,0.29224090095527383,15.145642657726412,0.1687802742867991,1100,0,2.5562857220209088,1.0174487579093205,39.80184019120373,0.2872291097546552,0.11432247124716502,0.080078125,,
2.567,1200,,,,0,0.0546875,-1.03515625,0.00883046145764262,0.29224090095527383,15.145699443305526,0.16870193369113412,1100,0,2.555108783190376,1.0174380779901646,39.81975580389046,0.28723212476238663,0.11437513067070836,0.080078125,,
2.583820000000298,1200,,,,-0.09375,0.0546875,-0.955078125,0.00883046145764262,0.29224090095527383,15.145724358666662,0.16966757445447217,1100,0,2.5697383152909885,1.0174336319918478,39.59288873647965,0.2872333799140772,0.11372399252341048,0.080078125,,
2.6003950000004843,1200,,,,-0.01953125,0.041015625,-0.9921875,0.00883046145764262,0.29224090095527383,15.145755507993382,0.16940842877626702,1106,0,2.565818643238651,1.0228018677646227,39.86259397014952,0.2857258186221138,0.11389772294521909,0.080078125,,
2.6120750000001864,1200,,,,-0.0625,0.046875,-0.974609375,0.00883046145764262,0.29224090095527383,15.14577325467904,0.1692607847997192,1107,0,2.563585467485572,1.02370699952564,39.93262610158722,0.28547318821761586,0.11399694087122086,0.080078125,,
2.622540000000037,1200,,,,-0.03125,0.060546875,-0.99609375,0.00883046145764262,0.29224090095527383,15.145734664228824,0.1683518015760997,1107,0,2.5498117169165058,1.0233178679247878,40.133075753620304,0.2855817435768189,0.11461273748819444,0.080078125,,
2.642355000000447,1200,,,,-0.01953125,0.044921875,-1,0.00883046145764262,0.29224090095527383,15.14576783139609,0.16856230547225926,1106,0,2.5530055438077053,1.0226481845110524,40.0566378318871,0.2857687574099589,0.11446935619239128,0.080078125,,
2.650719999999739,1200,,,,-0.0625,0.015625,-1,0.00883046145764262,0.29224090095527383,15.145679177950115,0.16784941970208483,1106,0,2.542193461012876,1.0226049617835555,40.22530061013229,0.2857808360772745,0.11495620039823305,0.080078125,,
2.6579550000000745,1200,,,,-0.03125,0.060546875,-0.95703125,0.00883046145764262,0.29224090095527383,15.145606374120995,0.1666987377644862,1105,0,2.5247534652437267,1.0213595735557917,40.45383391353004,0.2861293011019201,0.11575027224571506,0.080078125,,
2.666620000000112,1200,,,,-0.0625,0.03125,-0.91015625,0.00883046145764262,0.29224090095527383,15.145591790811595,0.1665011662528063,1103,0,2.52175869675906,1.0200626091395275,40.450444780878605,0.2864931018320466,0.11588773395759833,0.080078125,,
2.6749000000003726,1200,,,,-0.03125,0.05859375,-1.009765625,0.00883046145764262,0.29224090095527383,15.145645155741637,0.1667594518225264,1103,0,2.525679483669978,1.019607857624869,40.369645642578206,0.28662087955661303,0.11570783341464556,0.080078125,,
2.6831100000003354,1200,,,,-0.03125,0.033203125,-0.982421875,0.007848373970979285,0.29224090095527383,15.145760186884731,0.16678911232125326,1102,0,2.526147897001083,0.9060548170660436,35.86705347464678,0.3225421855838685,0.11568637818166057,0.080078125,,
2.6922649999996646,1200,,,,-0.0625,0.0390625,-1,0.007848373970979285,0.29224090095527383,15.145587040609739,0.16657841852479022,1102,0,2.522927936854328,0.9059883929273596,35.91019702516658,0.32256583333370054,0.11583402628600231,0.080078125,,
2.7009500000001863,1200,,,,-0.03125,0.03125,-0.986328125,0.007848373970979285,0.29224090095527383,15.145573325023895,0.16662135275840342,1102,0,2.5235759157170716,0.9053707379265176,35.8765009718068,0.3227858916940089,0.11580428357045636,0.080078125,,
2.7087599999997765,1200,,,,-0.0625,0.087890625,-0.96484375,0.007848373970979285,0.29922121726214057,15.145300009995761,0.16697722098606357,1101,0,2.5289201066692932,0.9051590305559171,35.792314204344486,0.33057308954689363,0.1183197588856332,0.080078125,,
2.716075000000186,1200,,,,0,-0.046875,-0.89453125,0.007848373970979285,0.29922121726214057,15.145330225457272,0.16811675451967248,1101,0,2.546183763632576,0.905081288653966,35.5465815775492,0.3306014841022085,0.1175175262429799,0.080078125,,
2.7239599999999626,1200,,,,-0.0625,0.02734375,-0.955078125,0.007848373970979285,0.29922121726214057,15.14526456063577,0.167865311358034,1101,0,2.542364551070922,0.9050447050347967,35.59854170612803,0.3306148476396381,0.11769406442364821,0.080078125,,
2.7319799999995156,1200,,,,0,0.0546875,-0.962890625,0.007848373970979285,0.29922121726214057,15.145300846818627,0.16784076354957786,1101,0,2.5419988583181063,0.9050303769652522,35.60309926984226,0.3306200817982366,0.11771099592865984,0.080078125,,
2.7397450000001116,1200,,,,-0.0625,-0.01953125,-1.02734375,0.007848373970979285,0.29922121726214057,15.14543183921359,0.1682390911508589,1100,0,2.5480536877165756,0.904465280063759,35.49631958007489,0.33082664847129056,0.11743128439742022,0.080078125,,
2.7478099999995904,1200,,,,-0.03125,0.015625,-0.9453125,0.007848373970979285,0.29922121726214057,15.145459694761978,0.16819638313153654,1100,0,2.54741154152343,0.9042394326186387,35.49640165632114,0.3309092774195975,0.11746088623089034,0.078125,,
2.7562000000001863,1200,,,,0,0.125,-0.99609375,0.007848373970979285,0.29922121726214057,15.145519108327425,0.16879575301936933,1100,0,2.556499302759375,0.9041499746587208,35.36672095638048,0.33094201808177254,0.11704334006239474,0.078125,,
2.7648300000000745,1200,,,,-0.0625,0.02734375,-0.92578125,0.007848373970979285,0.29922121726214057,15.145545673796844,0.17015300030475092,1100,0,2.5770600376491735,0.9041126764896631,35.08310490563526,0.3309556707289035,0.11610952515297002,0.078125,,
2.7757050000000745,1200,,,,-0.03125,0.04296875,-0.990234375,0.007848373970979285,0.29922121726214057,15.145535483441861,0.1714899109044295,1100,0,2.5973065306553202,0.9041002005372896,34.809145161205834,0.330960237686397,0.1152044295621298,0.078125,,
2.792429999999702,1200,,,,-0.0625,0.04296875,-0.94921875,0.007848373970979285,0.29922121726214057,15.145621976748933,0.1716087905735286,1103,0,2.59912186991374,0.9067931476512652,34.888442829399146,0.32997736919072435,0.11512396580006122,0.078125,,0.30525000000093133,2678,
2.8099950000001117,1200,,,,-0.0625,0.087890625,-0.94921875,0.007848373970979285,0.29922121726214057,15.145592542370947,0.1696027745187726,1104,0,2.5687345169169435,0.9071140866655403,35.313656615409215,0.329860622451634,0.11648584752202147,0.080078125,,
2.8190499999998138,1500,,,,-0.0625,0.048828125,-0.9453125,0.007848373970979285,0.29922121726214057,15.145577179936302,0.16947030169919078,1106,0,2.566725534092184,0.9090796612300903,35.4178757781213,0.3291474114130543,0.11657702130117742,0.080078125,,
2.828589999999851,1500,,,,-0.03125,0.0078125,-0.958984375,0.007848373970979285,0.29922121726214057,15.145635975915946,0.16935688895984868,1107,0,2.5650177901994864,0.9097101174155251,35.466035397157036,0.3289193024611227,0.1166546362389438,0.080078125,,
2.836915000000037,1500,,,,-0.0625,0.115234375,-1.005859375,0.007684707215646358,0.29922121726214057,15.145656345749803,0.1685193691437949,1107,0,2.5523364526544707,0.8909682415933402,34.907946429504584,0.3358382524690622,0.11723423726168457,0.080078125,,
2.844540000000037,1500,,,,0.5625,0.04296875,-1.234375,0.007684707215646358,0.29922121726214057,15.136477662064678,0.4357325197622526,1107,0,6.595455552016492,0.8910392538139861,13.50989703116959,0.33581148752017403,0.04536778618281444,0.083984375,,
2.852995000000112,1500,,,,-0.3125,-0.150390625,-0.76171875,0.007684707215646358,0.29922121726214057,15.123714798650106,0.8066790298220858,1144,0,12.19998358108099,0.9205135343699692,7.545203059104496,0.32505900900950657,0.024526362291680055,0.091796875,,
2.8610200000004844,1500,,,,-0.1875,0.13671875,-1.16015625,0.007684707215646358,0.29309666905070014,15.114420758020888,1.0617673401589125,1156,0,16.047998326286493,0.9306291715258362,5.799035821193184,0.3149446396249821,0.01826375246878049,0.095703125,,
2.86869000000041,1500,,,,0,0.087890625,-1.033203125,0.007684707215646358,0.29309666905070014,15.10749644010751,1.258561153664349,1161,0,19.013708148641754,0.9346181804017625,4.915496614838526,0.3136004361959953,0.015415018825333002,0.09765625,,
2.8769550000000743,1500,,,,-0.09375,0.146484375,-0.9609375,0.007684707215646358,0.29309666905070014,15.10167523930876,1.4066894745866736,1502,0,21.24336760776182,1.2089263755250477,5.690841479781835,0.24244377075767382,0.013797090671424884,0.099609375,,
2.885004999999888,1500,,,,-0.09375,-0.03125,-1.005859375,0.007684707215646358,0.29309666905070014,15.0974581701178,1.5215480361318878,1638,0,22.971507829326065,1.3182068040636503,5.7384426562578135,0.22234498270466202,0.012759139331573386,0.1015625,,
2.892924999999814,1500,,,,0,0.44921875,-0.98828125,0.007684707215646358,0.29309666905070014,15.09457662413307,1.6063719328745274,1691,0,24.2475042276313,1.3611408888793008,5.613529854871453,0.21533161735521889,0.012087704627212773,0.10546875,,
2.900840000000782,1500,,,,0.1875,-0.068359375,-0.970703125,0.007684707215646358,0.29309666905070014,15.09210382921297,1.6630225669212488,1957,0,25.098509250299763,1.5751695520153464,6.275948648211181,0.1860730920526609,0.011677851705363718,0.10546875,,
2.9091749999998138,1500,,,,0.0625,-0.103515625,-1.013671875,0.007684707215646358,0.29309666905070014,15.090145125660143,1.7102446471099424,2068,0,25.80783992527245,1.664406590510824,6.4492285884063705,0.17609679673327036,0.011356884958189926,0.109375,,
2.9162199999997394,1500,,,,-0.1875,0.36328125,-0.921875,0.007684707215646358,0.29309666905070014,15.089367228385134,1.7345485912929828,2204,0,26.173240669497936,1.7740233248442188,6.778004096801242,0.1652157922311634,0.011198333165990882,0.111328125,,
2.9254199999999253,1500,,,,0.125,-0.26953125,-1.0078125,0.007684707215646358,0.29309666905070014,15.088735272237367,1.751875461470748,2264,0,26.433585068060786,1.8220699673521805,6.893011154789421,0.16085917352374027,0.011088040774493484,0.11328125,,
2.940550000000745,1500,,,,-0.03125,0.2109375,-1.037109375,0.007684707215646358,0.29309666905070014,15.08813733719317,1.7665174207811236,2415,0,26.65345745328985,1.9434035012551387,7.29137487945401,0.15081616805846287,0.010996572191969905,0.115234375,,
2.9489700000006707,1500,,,,0,-0.193359375,-0.94140625,0.007684707215646358,0.29309666905070014,15.08790321608785,1.7747643748810162,2478,0,26.77747311956543,1.9944971309845296,7.448414277474208,0.14695266515927294,0.010945643292852154,0.1171875,,
2.9571349999997767,1500,,,,-0.125,0.26171875,-0.94921875,0.007684707215646358,0.29309666905070014,15.087781351808381,1.7753110652260415,2514,0,26.785505183576543,2.0234401684962062,7.5542356010401965,0.14485067244094776,0.010942361065880197,0.1171875,,
2.9652800000002606,1500,,,,-0.03125,0.142578125,-0.998046875,0.007684707215646358,0.29309666905070014,15.088184205443667,1.763199163080185,2553,0,26.603473763437943,2.0545825809148837,7.7229861001782645,0.14265509294846027,0.011017232999605971,0.119140625,,
2.97331500000041,1500,,,,-0.0625,-0.18359375,-0.90625,0.007684707215646358,0.29309666905070014,15.088899278791036,1.7471964437869387,2580,0,26.363271160563002,2.0765551721039146,7.8766976960364765,0.14114562087639684,0.011117613867627529,0.119140625,,
2.982105000000447,1500,,,,-0.125,0.265625,-1.05078125,0.008617672584146968,0.29309666905070014,15.08965075884195,1.7302513100025774,2613,0,26.10888799296767,2.3579763258825235,9.031316563607135,0.12430008979882459,0.011225934598579786,0.12109375,,
2.9902400000002234,1500,,,,-0.03125,0.17578125,-0.99609375,0.008617672584146968,0.29309666905070014,15.090162967964732,1.7136387709641256,2624,0,25.859088322071447,2.368039241003855,9.157473811567703,0.123771880117346,0.011334377507830931,0.123046875,,
2.998165000000037,1500,,,,-0.0625,-0.087890625,-0.966796875,0.008617672584146968,0.29309666905070014,15.090844884824065,1.6964816517092898,2638,0,25.601341455895017,2.3805353964371614,9.298479146251982,0.1231221638163266,0.011448488726875329,0.123046875,,
3.005774999999441,1500,,,,-0.0625,0.1171875,-1.09765625,0.008617672584146968,0.29945810291491326,15.091610002878088,1.6789863299872043,2648,0,25.338606892330464,2.389646046631855,9.430850152046668,0.12531483620220316,0.01181825442051251,0.123046875,,
3.0141000000005587,1500,,,,-0.0625,0.04296875,-0.947265625,0.008617672584146968,0.29945810291491326,15.092317492342515,1.6600547643391041,2658,0,25.054073558081594,2.3991001042496536,9.575688754517069,0.1248210120054879,0.011952471609883903,0.125,,
3.022834999999963,1500,,,,-0.125,-0.19140625,-0.98828125,0.008617672584146968,0.29945810291491326,15.093027255637447,1.6394643138984497,2666,0,24.744479574314248,2.4057428481097256,9.72234166770265,0.12447635587910309,0.012102016614071879,0.125,,
3.0317400000002235,1500,,,,-0.09375,0.181640625,-1.048828125,0.008617672584146968,0.29945810291491326,15.093846724124383,1.6194599260718816,2673,0,24.443879899990787,2.4126008650370903,9.86995875821661,0.12412252157188443,0.012250841688803507,0.126953125,,
3.0401650000000373,1500,,,,0.0625,-0.0546875,-0.91796875,0.008617672584146968,0.29945810291491326,15.094540007048296,1.601256093721461,2678,0,24.17022416820847,2.417102242617257,10.000330265023006,0.1238913677853601,0.012389545948390328,0.12890625,,
3.0472750000003725,1500,,,,-0.09375,0.158203125,-0.95703125,0.008617672584146968,0.29945810291491326,15.09500174346765,1.5821257989694009,2682,0,23.882191693828254,2.420483418296851,10.135097520896139,0.12371830381123784,0.012538970742467518,0.12890625,,
3.054985000000335,1500,,,,-0.0625,0.109375,-1.08984375,0.008617672584146968,0.29945810291491326,15.095651085322572,1.5671010461857362,2684,0,23.656410608663847,2.4217372736705207,10.237129012224667,0.12365424861345004,0.012658644959655912,0.12890625,,
3.0629000000003725,1500,,,,0,0.0625,-0.92578125,0.008617672584146968,0.29945810291491326,15.096267436370793,1.5516132993872747,2689,0,23.42356932537996,2.4267907777954414,10.360465324838257,0.12339675329858829,0.012784477837476448,0.12890625,,
3.070174999999814,1500,,,,-0.03125,0.076171875,-0.9609375,0.008617672584146968,0.29945810291491326,15.096766940918743,1.5384056642334047,2691,0,23.224951773521003,2.4285929560195156,10.45682669097457,0.12330518466368592,0.012893809461267792,0.130859375,,
3.0807649999996647,1500,,,,-0.0625,0.10546875,-1.029296875,0.008617672584146968,0.29945810291491326,15.09760430817954,1.5210173509584988,2694,0,22.963718110646862,2.4310697722790446,10.586568606030342,0.12317955919224052,0.013040488542492297,0.130859375,,
3.088270000000484,1500,,,,-0.0625,-0.0625,-0.958984375,0.008617672584146968,0.29945810291491326,15.09818006857583,1.5044695202031855,2695,0,22.71475172371158,2.431961392167826,10.706528610784414,0.12313439838285398,0.013183419592577522,0.134765625,,
3.1050949999997393,1500,,,,-0.125,0.001953125,-0.962890625,0.008617672584146968,0.29945810291491326,15.099307898729064,1.4768119994298472,2698,0,22.298839087928954,2.434487308310446,10.91755180039085,0.1230066395880041,0.013429313594940427,0.13671875,,
3.1141349999997763,1500,,,,0,0.05078125,-0.9609375,0.008617672584146968,0.29945810291491326,15.099713950361268,1.4627562958327063,2698,0,22.08720164616389,2.4351496619214243,11.025161543469503,0.12297318214052996,0.013557991986138416,0.138671875,,
3.122410000000149,1500,,,,-0.03125,0.099609375,-1.037109375,0.008617672584146968,0.29945810291491326,15.100126294705472,1.4533764448444089,2700,0,21.946167870900616,2.436249300375693,11.101023717247795,0.12291767631035706,0.013645120399902611,0.140625,,
3.130175000000745,1500,,,,0,-0.3671875,-0.9140625,0.008617672584146968,0.29945810291491326,15.100701900217954,1.4423734251770761,2702,0,21.780851122395354,2.438397879639856,11.195145065440826,0.12280936815739944,0.01374868691917216,0.142578125,,
3.138245000000112,1500,,,,-0.03125,0.119140625,-1.029296875,0.03296185077652929,0.29945810291491326,15.1009587715162,1.4335815406983223,2703,0,21.64845574169204,9.328990296245715,43.09309822168665,0.0320997335623154,0.013832769712908293,0.14453125,,
3.1472549999998884,1500,,,,-0.15625,-0.00390625,-1.00390625,0.03296185077652929,0.29945810291491326,15.10134771594042,1.4204671490742842,2702,0,21.450968337241342,9.327962902591873,43.485043453248025,0.032103269067644526,0.013960120503978353,0.14453125,,
3.155035000000149,1500,,,,0.1875,-0.28515625,-0.984375,0.03296185077652929,1.320727217661202,15.101609726024718,1.4106949681127352,2702,0,21.30376485090541,9.328092774037396,43.786123435553,0.14158598650917611,0.06199501482035328,0.146484375,,
3.1628499999996276,1500,,,,-0.15625,0.15625,-1.0625,0.03296185077652929,1.320727217661202,15.101724931736387,1.4003458991947422,2703,0,21.147638578924045,9.329083885665252,44.11406905243176,0.1415709445694433,0.062452704245544104,0.1484375,,
3.1713950000004845,1500,,,,0,-0.078125,-0.908203125,0.03296185077652929,1.320727217661202,15.102131041860613,1.3890407941311453,2704,0,20.977476095458687,9.332338184424101,44.48742137498807,0.1415215770754566,0.0629593003300869,0.150390625,,
3.1900150000005962,1500,,,,-0.125,0.0625,-1,0.03296185077652929,1.320727217661202,15.102843886401125,1.368433913616124,2705,0,20.667243766201246,9.337649344520223,45.18091260814763,0.1414410810399801,0.06390437121669268,0.15234375,,
3.1973300000000746,1500,,,,0,-0.17578125,-1.0078125,0.03296185077652929,1.320727217661202,15.103318496699442,1.3616480219323648,2705,0,20.565403755645292,9.338499551894673,45.40878293882859,0.14142820378389823,0.0642208260705145,0.154296875,,
3.206254999999888,1500,,,,-0.15625,0.15625,-1.052734375,0.03296185077652929,1.320727217661202,15.103792096910157,1.3536780825618726,2706,0,20.445672325158505,9.338927302227393,45.67679239745907,0.1414217259562777,0.06459690816995245,0.15625,,
3.214325000000186,1500,,,,0.0625,0.14453125,-0.8984375,0.03296185077652929,1.320727217661202,15.104200048542202,1.3456313349055438,2706,0,20.324684874000223,9.339074625606708,45.94941906112136,0.14141949503646906,0.06498143640842889,0.15625,,
3.222410000000149,1500,,,,-0.125,-0.158203125,-0.90625,0.03296185077652929,1.320727217661202,15.104288743808047,1.339541272910679,2706,0,20.232818170291072,9.339131859343905,46.15833434937428,0.14141862836424135,0.06527648331266557,0.158203125,,
3.232449999999255,1500,,,,0.03125,0.115234375,-1.013671875,0.03296185077652929,1.320727217661202,15.104536930371465,1.3324808111509556,2706,0,20.126505621040934,9.33915432656418,46.40226426986268,0.14141828815319404,0.065621287794761,0.16015625,,
3.240290000000037,1500,,,,0,-0.208984375,-0.986328125,0.03296185077652929,1.320727217661202,15.104905676591404,1.3229728578142441,2706,0,19.983380229974728,9.339164076933843,46.73465634670383,0.1414181405082255,0.06609128197841795,0.16015625,,
3.2475200000004842,1500,,,,-0.1875,0.3515625,-0.98828125,0.03296185077652929,1.320727217661202,15.104926683830948,1.3184492658104667,2706,0,19.915079496417842,9.339166999921623,46.894952147198175,0.1414180962469443,0.06631794856248319,0.1640625,,
3.2548150000004097,1500,,,,-0.03125,0.048828125,-1.017578125,0.03296185077652929,1.320727217661202,15.105056719652175,1.3132701094724677,2706,0,19.837019491805446,9.339168061433224,47.079492286082484,0.14141808017303398,0.06657891414618948,0.1640625,,
3.2630900000007825,1500,,,,0,-0.328125,-0.90625,0.03296185077652929,1.320727217661202,15.105199169174126,1.3063364867389042,2705,0,19.73247281415034,9.338696488022132,47.32653923296053,0.14142522132025329,0.06693166285343093,0.166015625,,
3.2713000000007453,1500,,,,-0.0625,0.138671875,-1.08984375,0.03296185077652929,1.320727217661202,15.105610971015349,1.3022895395923393,2705,0,19.671879156704566,9.337535553708017,47.46641375399869,0.14144280469558476,0.06713782690206656,0.166015625,,
3.279985000000335,1500,,,,-0.15625,0.03125,-1.02734375,0.03296185077652929,1.320727217661202,15.105824154060118,1.2977605750178134,2705,0,19.603743040291032,9.33709950273145,47.62916695827509,0.1414494102022625,0.06737117574673102,0.166015625,,
3.2890600000005215,1500,,,,0,0.01953125,-0.923828125,0.0425959432421211,1.320727217661202,15.10612042394368,1.2933948666624437,2705,0,19.538178611513455,12.065896769895733,61.75548401827765,0.10945951576151393,0.06759725376258584,0.169921875,,
3.297265000000596,1500,,,,-0.0625,-0.12109375,-1.12890625,0.0425959432421211,1.320727217661202,15.106212472366744,1.290327471073124,2705,0,19.491960936962265,12.065823363599113,61.90153675466743,0.10946018169349717,0.06775753460272589,0.171875,,
3.3051500000003724,1500,,,,0.03125,-0.080078125,-0.91015625,0.0425959432421211,1.9078612603179412,15.106300335065091,1.2853767119912707,2705,0,19.4172866550386,12.065794306133666,62.13944574487038,0.15812148060141193,0.09825581164930011,0.171875,,
3.319195000000298,1500,,,,-0.3125,0.1015625,-1.04296875,0.0425959432421211,1.9078612603179412,15.106551970473744,1.2794042556512144,2705,0,19.327386879240347,12.065780052932489,62.4284086013325,0.1581216673889436,0.09871284060480962,0.173828125,,
3.3265,1500,,,,-0.0625,0.052734375,-1.015625,0.0425959432421211,1.9078612603179412,15.106623581312375,1.2764371150613558,2705,0,19.282655022448214,12.066148522710298,62.57514076076814,0.15811683875157517,0.09894183441527496,0.17578125,,
3.3342549999998883,1500,,,,0.03125,0.025390625,-0.984375,0.0425959432421211,1.9078612603179412,15.10650756131029,1.2746092006115413,2705,0,19.25489352675391,12.06767703682565,62.6732992320009,0.1580968113826649,0.09908448767410963,0.177734375,,
3.342230000000447,1500,,,,-0.125,-0.01953125,-1.1796875,0.0425959432421211,1.9078612603179412,15.106679913195164,1.2710502418396523,2706,0,19.201349157060932,12.068372753820041,62.85169159263023,0.15808769742499376,0.09936079203144751,0.1796875,,
3.350714999999851,1500,,,,0,-0.072265625,-0.908203125,0.0425959432421211,1.9078612603179412,15.106745440130918,1.267112326301195,2704,0,19.14194335748426,12.063080690650887,63.01910138049999,0.15815705036248073,0.09966915190834015,0.1796875,,
3.359515000000596,1500,,,,-0.0625,0.11328125,-1.0625,0.0425959432421211,1.9078612603179412,15.106741025514923,1.2630842205777795,2705,0,19.08108621368288,12.064175995964167,63.225834529865764,0.1581426912999428,0.09998703632237825,0.181640625,,
3.368445000000298,1500,,,,-0.125,-0.015625,-0.982421875,0.0425959432421211,1.9078612603179412,15.10680686120269,1.2609399497491185,2706,0,19.04877628443456,12.070901814777514,63.3683845856339,0.15805457534103104,0.10015663115729503,0.181640625,,
3.377535000000149,1500,,,,0.03125,0.029296875,-0.953125,0.0425959432421211,1.9078612603179412,15.107164642612606,1.257620574000221,2706,0,18.99908106935831,12.068270494249738,63.520285271656775,0.1580890369690499,0.10041860726595546,0.18359375,,
3.387945000000298,1500,,,,-0.0625,-0.1171875,-1.1640625,0.0425959432421211,1.9078612603179412,15.107285232485642,1.2568494646403308,2705,0,18.987583356618355,12.064696513736743,63.53992652535977,0.15813586841125007,0.10047941459874792,0.185546875,,
3.3975449999999254,1500,,,,0.0625,-0.046875,-0.923828125,0.0425959432421211,1.9078612603179412,15.107498493434045,1.253288608070683,2705,0,18.934055758265895,12.06803589434498,63.737194230435975,0.1580921101843884,0.1007634753312185,0.185546875,,
3.4063950000004843,1500,,,,-0.09375,0.150390625,-1.04296875,0.0425959432421211,1.9078612603179412,15.10752766222611,1.2486390203640392,2706,0,18.863848540284632,12.071231097021,63.99134869664756,0.1580502638864045,0.10113849547952074,0.189453125,,
3.4146000000005587,1500,,,,-0.09375,0.021484375,-0.94140625,0.0425959432421211,1.9078612603179412,15.107553497470247,1.2452893033065187,2707,0,18.813274769530683,12.07359155433801,64.17591675156935,0.15801936414127338,0.10141037558266285,0.1875,,
3.4220849999999627,1500,,,,0.03125,0.064453125,-0.958984375,0.0425959432421211,1.9078612603179412,15.107573061975414,1.2442729497998666,2707,0,18.79794449814115,12.073480365364697,64.22766258597366,0.1580208193977803,0.10149307869839715,0.189453125,,
3.4301100000003353,1500,,,,-0.0625,-0.0546875,-1.07421875,0.0425959432421211,1.9078612603179412,15.107594126660231,1.2434993117485185,2706,0,18.786282898677957,12.072503268899442,64.26233084006745,0.1580336089229211,0.10155608060454592,0.19140625,,
3.437925000000745,1500,,,,0.03125,-0.072265625,-0.916015625,0.04556804912789079,1.9078612603179412,15.107614287361548,1.241467726852236,2706,0,18.755615567491105,12.914442901599672,68.85640652596938,0.14773082159677367,0.10172213508282903,0.19140625,,
3.4445200000004843,1500,,,,-0.3125,0.15234375,-1,0.04556804912789079,1.9078612603179412,15.107740489900602,1.240307241571652,2707,0,18.738239933408973,12.916092249514112,68.92905788064769,0.14771195679480478,0.10181646019572829,0.193359375,,
3.4524000000003725,1500,,,,0.0625,0.142578125,-1.05078125,0.04556804912789079,1.9078612603179412,15.107753176345593,1.237513465832436,2707,0,18.69604799420043,12.916906340817578,69.08896652824404,0.1477026472112039,0.10204623249307904,0.193359375,,
3.460140000000596,1500,,,,-0.1875,-0.00390625,-0.99609375,0.04556804912789079,2.1559026582164713,15.107941516332033,1.2368279721380562,2707,0,18.685924668825297,12.917212556253041,69.12803505947716,0.16690153923129716,0.11537575455461811,0.193359375,,
3.468394999999553,1500,,,,0,0.037109375,-1.0078125,0.04556804912789079,2.1559026582164713,15.108141790508839,1.236099042037014,2707,0,18.67515959420735,12.917351385143784,69.16862648472616,0.16689974546143957,0.11544226154218183,0.1953125,,
3.476585000000894,1500,,,,-0.09375,0.08984375,-1.0234375,0.04556804912789079,2.1559026582164713,15.108202393117327,1.23538513646262,2707,0,18.66444867512613,12.917406735266354,69.20861665997784,0.16689903030850234,0.11550851009543159,0.1953125,,
3.4846650000000374,1500,,,,0.25,-0.30078125,-0.8984375,0.04556804912789079,2.1559026582164713,15.108382532758842,1.2333105836779268,2707,0,18.633328079906203,12.917427177798164,69.32431566923384,0.1668987661816999,0.11570142751585813,0.1953125,,
3.4933099999995902,1500,,,,-0.15625,0.1796875,-0.998046875,0.04556804912789079,2.1559026582164713,15.108580427328413,1.2334070706407327,2707,0,18.635029926411047,12.915348191916701,69.30682828478876,0.1669256319055944,0.11569086106810887,0.197265625,,
3.5014199999999254,1500,,,,0,0.080078125,-0.9375,0.04556804912789079,2.1559026582164713,15.108487069749366,1.2317939156339757,2706,0,18.61054244695186,12.914641611658412,69.39422452876242,0.16693476466821014,0.11584308541041892,0.1953125,,
3.511665000000037,1500,,,,0.0625,-0.27734375,-0.98046875,0.04556804912789079,2.1559026582164713,15.108596332942772,1.2313058183118115,2706,0,18.603302571276934,12.914357817864532,69.41970528288886,0.166938433069757,0.11588816824089797,0.197265625,,
3.5196900000004097,1500,,,,-0.08203125,0.197265625,-0.974609375,0.04556804912789079,2.1559026582164713,15.10847034476827,1.229567536123132,2706,0,18.576884656406126,12.910844123558384,69.49951169076219,0.16698386546876523,0.11605297110315112,0.197265625,,
3.5265149999996646,1500,,,,0.1875,-0.3203125,-0.8828125,0.04556804912789079,2.1559026582164713,15.108621304659389,1.2281330194505968,2705,0,18.55539670262695,12.9072294652519,69.5605147769467,0.16703062915403094,0.11618736547471674,0.197265625,,
3.535015000000596,1500,,,,-0.125,0.162109375,-1.029296875,0.04556804912789079,2.1559026582164713,15.108590945251127,1.2256045207789346,2705,0,18.517157365099457,12.907489076909242,69.7055645335545,0.16702726962390058,0.11642730121632208,0.19921875,,
3.544635000000708,1500,,,,0,0.12109375,-1.0078125,0.04556804912789079,2.1559026582164713,15.108683201987409,1.2262182063833047,2705,0,18.526542416754566,12.909454813335966,69.68086393530851,0.16700183620375206,0.11636832225460324,0.197265625,,
3.552644999999553,1500,,,,-0.03125,-0.12109375,-0.9765625,0.04556804912789079,2.1559026582164713,15.108556216143704,1.2224030748130776,2706,0,18.4687455746003,12.912122385496275,69.91336977024612,0.16696733455981796,0.11673249000632947,0.197265625,,
3.560415000000037,1500,,,,-0.03125,0.2421875,-1.03125,0.04556804912789079,2.1559026582164713,15.108718646994937,1.220749148982177,2706,0,18.443955430530217,12.913341258903335,70.01394742869486,0.1669515747312916,0.11688938776374469,0.19921875,,
3.5692949999999253,1500,,,,0.03125,-0.033203125,-0.958984375,0.04556804912789079,2.1559026582164713,15.108571765869273,1.2194115461858972,2705,0,18.42356685767924,12.909724396188416,70.07179714935295,0.16699834884569645,0.11701874424592522,0.19921875,,
3.577375,1500,,,,-0.1875,0.140625,-0.87890625,0.04556804912789079,2.1559026582164713,15.108477978183194,1.2184734622500963,2705,0,18.40927947140621,12.906493979613632,70.1086318976272,0.16704014751192797,0.11710956214039107,0.19921875,,
3.585375,1500,,,,0,0.12890625,-1.06640625,0.046338880298288324,2.1559026582164713,15.10815917777245,1.2212150505346224,2704,0,18.450311373768503,13.123528734900885,71.12903662731186,0.16427766508279404,0.11684912056723328,0.19921875,,
3.5934900000002234,1500,,,,-0.0625,0.01171875,-0.828125,0.046338880298288324,2.1559026582164713,15.108218651459387,1.2194997867107882,2704,0,18.424469423034672,13.123013638047084,71.22600568155524,0.16428411321359448,0.11701301181140744,0.19921875,,
3.6004700000006706,1500,,,,-0.03125,0.0703125,-0.99609375,0.046338880298288324,2.1559026582164713,15.108115721648955,1.2181084639822533,2704,0,18.40332363536394,13.120873999096856,71.29621941703891,0.1643109032496515,0.11714746210699004,0.201171875,,
3.6086200000001116,1500,,,,0,0.1796875,-1.05859375,0.046338880298288324,2.1970842140789935,15.108021942905442,1.2171280102943083,2704,0,18.388396686851248,13.120018129123126,71.34944037021285,0.16746045565303158,0.1194820979498465,0.201171875,,
3.627674999999814,1500,,,,-0.125,0.15625,-0.96484375,0.046338880298288324,2.1970842140789935,15.108111212321612,1.215469296753793,2705,0,18.363445310518646,13.127737525626895,71.48842335216519,0.1673619852461268,0.11964444454333936,0.203125,,
3.6357050000000743,1500,,,,-0.03125,0.109375,-0.93359375,0.046338880298288324,2.1970842140789935,15.108105943702803,1.2139211669334313,2705,0,18.340049597333618,13.126703762636858,71.57398180943466,0.16737516544958195,0.11979707047239493,0.201171875,,
3.643014999999665,1500,,,,0,-0.3046875,-1.03125,0.046338880298288324,2.1970842140789935,15.108166903782386,1.2121693591535645,2705,0,18.31365699374299,13.126277220747626,71.67480108004823,0.16738060435035176,0.11996971521469718,0.203125,,
3.649679999999702,1500,,,,-0.03125,0.275390625,-1.01171875,0.046338880298288324,2.1970842140789935,15.107994405164096,1.2133871567684096,2705,0,18.331846375755102,13.12430357206824,71.59291706385817,0.16740577524851924,0.11985067783378117,0.203125,,
3.6586550000002607,1500,,,,0,-0.060546875,-0.939453125,0.046338880298288324,2.1970842140789935,15.108195655031887,1.2138225862598873,2704,0,18.338669123711195,13.123315064374312,71.56089122850452,0.16741838501183204,0.11980608839483603,0.205078125,,
3.6675449999999254,1500,,,,-0.1875,0.203125,-0.96875,0.046338880298288324,2.1970842140789935,15.108404674601559,1.2126057708050286,2705,0,18.32053869607952,13.127165599563234,71.6527271240794,0.16736927689493725,0.11992465126307425,0.205078125,,
3.6756699999999256,1500,,,,-0.03125,0.12109375,-1.06640625,0.046338880298288324,2.1970842140789935,15.108190812129909,1.2133803621115058,2705,0,18.331982038471914,13.12713112174227,71.60781138773416,0.16736971648283425,0.11984979089921335,0.205078125,,
3.683610000000335,1500,,,,-0.125,0.05859375,-0.83984375,0.046338880298288324,2.1970842140789935,15.108115696180997,1.2138081048279734,2705,0,18.338353280703213,13.12443483293521,71.56822988433524,0.16740410098006692,0.119808151825219,0.203125,,
3.6914199999999253,1500,,,,-0.0625,0.03515625,-0.982421875,0.046338880298288324,2.1970842140789935,15.108307260132998,1.2154999369053168,2705,0,18.3641465214378,13.125388830570733,71.47290409194088,0.16739193348403514,0.11963987607668987,0.205078125,,
3.702,1500,,,,-0.09375,0.115234375,-0.99609375,0.046338880298288324,2.1970842140789935,15.108357614012727,1.2179500024526206,2706,0,18.40122419304187,13.129775076419518,71.35272598539576,0.16733601309171375,0.11939880689621651,0.205078125,,
3.7126699999999255,1500,,,,-0.03125,-0.001953125,-0.970703125,0.046338880298288324,2.1970842140789935,15.108480702825977,1.2153320790063649,2708,0,18.36182126319304,13.139139836235099,71.55684421442984,0.16721674641287235,0.11965502673109729,0.20703125,,
3.720594999999739,1500,,,,-0.041015625,0.09375,-0.9921875,0.046338880298288324,2.1970842140789935,15.108301511925832,1.2144785846042339,2709,0,18.34870863597769,13.14790462917529,71.65574913209537,0.16710527464609445,0.11974053638690439,0.205078125,,
3.7294150000000372,1500,,,,0.125,-0.3046875,-0.9453125,0.046338880298288324,2.1970842140789935,15.108484244216712,1.2135669172807773,2708,0,18.33515664903927,13.138623076238812,71.65809012560169,0.16722332327596937,0.11982903970412039,0.20703125,,
3.739570000000298,1500,,,,-0.0625,0.1953125,-1.0625,0.04677933883214029,2.1970842140789935,15.108577542331956,1.2108845970685114,2707,0,18.29474382962499,13.259424632767729,72.47668924063598,0.16569981540898746,0.12009374028627925,0.20703125,,
3.7477999999998137,1500,,,,0.03125,-0.078125,-0.900390625,0.04677933883214029,2.1970842140789935,15.108655550558508,1.2113187040254856,2707,0,18.30139706106999,13.26246250375694,72.466940417179,0.16566186056749355,0.12005008179143571,0.20703125,,
3.755730000000447,1500,,,,-0.125,0.1875,-0.9453125,0.04677933883214029,2.2142701026680536,15.10880226967775,1.2095063147975664,2708,0,18.27419175420304,13.264384189272834,72.58533984805123,0.16693350185519937,0.12116924964184937,0.20703125,,
3.763084999999963,1500,,,,-0.03125,0.12109375,-1.08203125,0.04677933883214029,2.2142701026680536,15.108763439870582,1.2069602205978158,2708,0,18.235676454346414,13.266269267746045,72.74898357052213,0.16690978133932155,0.12142516940413745,0.20703125,,
3.7707400000002234,1500,,,,0.03125,-0.10546875,-0.892578125,0.04677933883214029,2.2142701026680536,15.108726286154115,1.206743957088844,2708,0,18.23236414512585,13.26398819921802,72.74968892481203,0.1669384855754468,0.12144722895192973,0.205078125,,
3.778645000000484,1500,,,,-0.25,0.33203125,-1.0625,0.04677933883214029,2.2142701026680536,15.108810256541487,1.2072185714913524,2707,0,18.239636334835907,13.26030430193821,72.70048622960938,0.16698486341255397,0.12139880763077585,0.20703125,,
3.786719999999739,1500,,,,0,0.12890625,-1.0078125,0.04677933883214029,2.2142701026680536,15.108870623334388,1.209290403613957,2706,0,18.2710122542431,13.257866295146364,72.56229764756176,0.1670155704827621,0.12119033537147517,0.20703125,,
3.7944500000001864,1500,,,,0,-0.2734375,-1.0546875,0.04677933883214029,2.2142701026680536,15.108892822232916,1.2101103588278017,2706,0,18.28342771460307,13.255622892929797,72.50075368713527,0.16704383645743934,0.12110804041954913,0.208984375,,
3.8027750000003726,1500,,,,-0.09375,0.146484375,-0.951171875,0.04677933883214029,2.2142701026680536,15.108781561987456,1.2096228194709813,2706,0,18.27592695178244,13.255382973690562,72.52919651442234,0.1670468599106463,0.12115774529576445,0.20703125,,
3.8103849999997763,1500,,,,-0.09375,0.0546875,-1.056640625,0.04677933883214029,2.2142701026680536,15.108744132043604,1.2095945705541433,2706,0,18.275454870011718,13.256627102161818,72.53787769690308,0.16703118263822647,0.12116087497780755,0.20703125,,
3.8178650000002237,1500,,,,0.1875,-0.21484375,-0.88671875,0.04677933883214029,2.2142701026680536,15.108886379041321,1.2070122937009176,2706,0,18.236611603633214,13.255200849230398,72.6845597051023,0.167049155109303,0.1214189428822903,0.20703125,,
3.826100000000559,1500,,,,-0.15625,0.201171875,-1.068359375,0.04677933883214029,2.2142701026680536,15.109039102779613,1.2058335657989139,2705,0,18.218986497099962,13.252517214017457,72.74014510152334,0.16708298256922655,0.12153640396080836,0.208984375,,
3.8332250000005588,1500,,,,0.0625,0.2109375,-0.8515625,0.04677933883214029,2.2142701026680536,15.108860395554462,1.2068253785111591,2705,0,18.233756165737276,13.25146752955074,72.67546746320615,0.16709621766270316,0.12143795729970597,0.208984375,,
3.8412749999994413,1500,,,,-0.0625,-0.06640625,-0.931640625,0.04677933883214029,2.2142701026680536,15.109014206089716,1.2056586694136526,2705,0,18.216313963866103,13.253068782382021,72.75384476064049,0.16707602888257816,0.1215542346854738,0.208984375,,
3.8521399999996646,1500,,,,0.0625,0.1953125,-0.98828125,0.04677933883214029,2.2142701026680536,15.109161284863022,1.2049698364500334,2705,0,18.20608360231857,13.252687830178044,72.79263415274164,0.16708083152957703,0.12162253843468362,0.208984375,,
3.8604500000001862,1500,,,,0,-0.05859375,-0.96484375,0.04677933883214029,2.2142701026680536,15.109083439922895,1.2061163363751266,2705,0,18.223312364545897,13.25134348539208,72.71643716744404,0.1670977818293673,0.12150755353214462,0.208984375,,
3.868995000000112,1500,,,,-0.1875,0.25390625,-1.01171875,0.04677933883214029,2.2142701026680536,15.109029211223104,1.2053928961152542,2705,0,18.212316478406194,13.249967364296054,72.752784523628,0.16711513634627687,0.12158091505237394,0.2109375,,
3.8769500000001864,1500,,,,0,0.123046875,-0.95703125,0.04677933883214029,2.2142701026680536,15.1089784657818,1.2047163339203788,2704,0,18.2020331465786,13.248424077135532,72.7854079291456,0.16713460331402719,0.121649602812874,0.208984375,,
3.886805000000633,1500,,,,-0.0625,-0.07421875,-0.92578125,0.047327032173092705,2.2142701026680536,15.108920674238158,1.2065117337573128,2704,0,18.229090077876787,13.40136709712865,73.51637980763964,0.16522718067640121,0.12146904169151806,0.2109375,,
3.8938799999998883,1500,,,,-0.03125,0.134765625,-1.05859375,0.047327032173092705,2.2142701026680536,15.108940932188112,1.2062098912625248,2704,0,18.224553998906533,13.400020456097206,73.52728882638885,0.16524378525560596,0.12149927525254714,0.208984375,,
3.901075000000186,1500,,,,-0.125,0.05859375,-0.97265625,0.047327032173092705,2.2142701026680536,15.108817008466234,1.2090710558724789,2703,0,18.267633333410338,13.397653441686453,73.34093693014408,0.16527297950388906,0.12121275166051723,0.208984375,,
3.909540000000037,1500,,,,-0.03125,0.080078125,-0.951171875,0.047327032173092705,2.287391258951639,15.108876044719926,1.2123165029563951,2703,0,18.31673977013651,13.396498753734527,73.13800884792876,0.1707454537935881,0.12487982510299057,0.2109375,,
3.9177550000008194,1500,,,,-0.0625,0.07421875,-1.08203125,0.047327032173092705,2.287391258951639,15.108701183522449,1.2142984835525499,2706,0,18.346472935599927,13.410455908913187,73.09555333053267,0.17056774762082003,0.12467743892686488,0.2109375,,
3.926875,1500,,,,0.03125,-0.033203125,-0.908203125,0.047327032173092705,2.287391258951639,15.108882137929779,1.214961939955615,2707,0,18.356716752859906,13.416226961934596,73.08620132107447,0.1704943771033076,0.12460786369083526,0.2109375,,
3.9358499999996273,1500,,,,-0.09375,0.154296875,-0.951171875,0.047327032173092705,2.287391258951639,15.108833169729893,1.2124623379987027,2707,0,18.318891189403057,13.4161259534353,73.23656118005731,0.17049566073624522,0.12486515888444319,0.2109375,,
3.945,1500,,,,0,0.078125,-1.015625,0.047327032173092705,2.287391258951639,15.109007354960506,1.2117964032209867,2707,0,18.309040768980573,13.416090226525831,73.27576794331877,0.17049611476442578,0.1249323374071551,0.208984375,,
3.9526749999998136,1500,,,,0,-0.13671875,-0.892578125,0.047327032173092705,2.287391258951639,15.109023218104198,1.21081909638555,2707,0,18.29429384021322,13.414036939238176,73.32361148454055,0.17052221261301725,0.12503304467121099,0.208984375,,
3.960415000000037,1500,,,,-0.125,0.201171875,-1.046875,0.047327032173092705,2.287391258951639,15.109169586397499,1.2100911961444156,2706,0,18.283473097552577,13.413215142582953,73.36251198563825,0.1705326601144162,0.1251070432158663,0.2109375,,
3.9675600000005216,1500,,,,0.0625,0.1875,-0.90625,0.047327032173092705,2.287391258951639,15.109294098132596,1.2117627949534258,2705,0,18.308880446126455,13.405191503249574,73.21688260892905,0.17063473195419468,0.1249334313849635,0.2109375,,
3.975929999999702,1500,,,,-0.09375,-0.05859375,-0.931640625,0.047327032173092705,2.287391258951639,15.109328241072918,1.2116309182889184,2704,0,18.306929251459866,13.401559016348427,73.2048440908228,0.1706809824260949,0.1249467470777074,0.2109375,,
3.985,1500,,,,0.03125,0.158203125,-1.017578125,0.047327032173092705,2.287391258951639,15.109555978127732,1.210552953132875,2706,0,18.29091760984901,13.410317240835996,73.31680961492613,0.17056951135997467,0.12505612390490242,0.2109375,,
3.9934750000005588,1500,,,,-0.03125,-0.119140625,-0.953125,0.047327032173092705,2.287391258951639,15.109703845374614,1.212429414198716,2706,0,18.31944938196363,13.411903586161186,73.21128111724714,0.17054933658424445,0.12486135425029123,0.212890625,,
4.003865000000223,1500,,,,-0.125,0.3125,-0.95703125,0.047327032173092705,2.287391258951639,15.109611346461334,1.2108297385025137,2705,0,18.29516675551039,13.408078893054304,73.28754677251507,0.17059798627352657,0.1250270789831796,0.212890625,,
4.012464999999851,1500,,,,0,0.125,-0.974609375,0.047327032173092705,2.287391258951639,15.1096351133801,1.210521339106929,2705,0,18.290535730865955,13.40509834412277,73.28980704212601,0.17063591778530338,0.1250587348894096,0.212890625,,
4.02071999999974,1500,,,,-0.09375,-0.115234375,-0.91796875,0.047327032173092705,2.287391258951639,15.109553594096585,1.2091482313858044,2704,0,18.26969000533091,13.40352648581372,73.36482710928705,0.17065592860003015,0.12520142696916048,0.21484375,,
4.029864999999292,1500,,,,0.03125,0.15234375,-1.00390625,0.047327032173092705,2.287391258951639,15.10968815963335,1.2087839059950864,2705,0,18.26434787196931,13.40505549854938,73.39465713485676,0.17063646317608813,0.125238047095136,0.21484375,,
4.037384999999777,1500,,,,-0.1875,0.03125,-0.95703125,0.04746599947974687,2.287391258951639,15.109604900763465,1.2083679291199272,2705,0,18.25796198375585,13.444936891320362,73.63876046670681,0.1701303083414478,0.12528185024082844,0.212890625,,
4.044745000000112,1500,,,,0.03125,0.041015625,-0.935546875,0.04746599947974687,2.287391258951639,15.109533719081503,1.206375248811342,2704,0,18.22776749978031,13.441240827933614,73.74046672526197,0.17017709065951545,0.1254893809117989,0.21484375,,
4.052679999999702,1500,,,,-0.0625,0.10546875,-0.951171875,0.04746599947974687,2.287391258951639,15.109365209401718,1.2065019826629,2704,0,18.229479081921017,13.439598201415892,73.72453234137961,0.17019789019515907,0.12547759860127583,0.21484375,,
4.060884999999777,1500,,,,0.0625,-0.27734375,-0.9140625,0.04746599947974687,2.3168471264890313,15.109429763687716,1.2070578998727877,2703,0,18.237956558832284,13.434795317333133,73.66392870821335,0.17245124110673357,0.12703435930529333,0.216796875,,
4.068774999999441,1500,,,,-0.09375,0.1953125,-0.962890625,0.04746599947974687,2.3168471264890313,15.109555761529458,1.206835656426187,2702,0,18.23475064577348,13.432926690356219,73.66663219751652,0.17247523044641827,0.12705669364478198,0.216796875,,
4.076905000000261,1500,,,,0,0.08203125,-1.015625,0.04746599947974687,2.3168471264890313,15.109545050912157,1.2084101267658525,2703,0,18.258527250347118,13.43626622680213,73.58899237914542,0.1724323623379445,0.1268912379800504,0.21484375,,
4.0856450000004845,1500,,,,0.03125,-0.08203125,-0.93359375,0.04746599947974687,2.3168471264890313,15.109459572848332,1.2072434659347182,2703,0,18.240796343125925,13.43769603031524,73.66836281453939,0.17241401511555693,0.12701458219844328,0.21484375,,
4.093804999999702,1500,,,,-0.15625,0.216796875,-1.08984375,0.04746599947974687,2.3168471264890313,15.10948592916264,1.2076475870241945,2704,0,18.24693422352928,13.44022014849089,73.657415453166,0.1723816351884068,0.1269718571956858,0.216796875,,
4.102964999999851,1500,,,,0.03125,-0.041015625,-0.919921875,0.04746599947974687,2.3168471264890313,15.109552015442894,1.208453578518697,2704,0,18.259192202876356,13.44275768971053,73.62186421145675,0.1723490953245711,0.1268866169295299,0.216796875,,
4.111030000000261,1500,,,,-0.1875,0.16015625,-0.98828125,0.04746599947974687,2.3168471264890313,15.109541335966481,1.2065685999424793,2705,0,18.230698135510096,13.446334100655294,73.7565506307423,0.17230325448897793,0.12708493713557975,0.21875,,
4.1304749999996275,1500,,,,0.03125,-0.09765625,-0.87890625,0.04746599947974687,2.3168471264890313,15.109311983736408,1.2073424592215316,2705,0,18.242113887589674,13.446436280331987,73.71095457023628,0.17230194515388947,0.12700540851601688,0.216796875,,
4.144865000000223,1500,,,,0.03125,-0.048828125,-0.9140625,0.04746599947974687,2.3168471264890313,15.10929313501504,1.2059779099402108,2705,0,18.221473755639412,13.445481748899782,73.78921117584413,0.17231417733906146,0.1271492722026386,0.220703125,,
4.154150000000373,1500,,,,-0.1875,0.13671875,-0.921875,0.04746599947974687,2.3168471264890313,15.109172926888117,1.2067134669820956,2705,0,18.232442445837176,13.445360053188622,73.74415190466411,0.17231573697720215,0.1270727788321094,0.220703125,,
4.163339999999851,1500,,,,0.03125,0.140625,-0.994140625,0.04746599947974687,2.3168471264890313,15.109022024731308,1.2065917574407186,2705,0,18.230421438031073,13.445301843856091,73.75200781594337,0.1723164829912486,0.12708686600386437,0.21875,,
4.171160000000149,1500,,,,0.03125,-0.087890625,-0.88671875,0.04746599947974687,2.3168471264890313,15.10918414465472,1.2057796981132176,2705,0,18.21834749667878,13.443838872122493,73.79285566143315,0.17233523463995898,0.1271710909516571,0.21875,,
4.179860000000335,1500,,,,-0.3125,0.30078125,-1.00390625,0.04746599947974687,2.3168471264890313,15.10922357681573,1.2046798338405884,2704,0,18.201776947978672,13.442662547208368,73.85357256946932,0.17235031515167878,0.12728686507425419,0.220703125,,
4.18781500000041,1500,,,,-0.03125,0.1640625,-1.01953125,0.04704876174796127,2.3168471264890313,15.109369610537513,1.2035386622785005,2704,0,18.184710488937746,13.324010914911735,73.27040440383746,0.1738851117193324,0.12740632455481943,0.220703125,,
4.202455000000074,1500,,,,0,0.2265625,-0.95703125,0.04704876174796127,2.265830168492524,15.109603411846859,1.2021940214831799,2704,0,18.164674888704152,13.321854143782636,73.3393480775532,0.17008369435946694,0.12473827262945117,0.220703125,,
4.208985000000335,1500,,,,-0.125,0.076171875,-1.00390625,0.04704876174796127,2.265830168492524,15.109779608301515,1.2024681146188168,2704,0,18.169028197900168,13.321047616873352,73.31733690860193,0.1700939921288524,0.12470838527040157,0.220703125,,
4.22331500000041,1500,,,,0.1875,-0.26953125,-0.8515625,0.04704876174796127,2.265830168492524,15.109797035423837,1.2065780039229361,2703,0,18.23114874668239,13.318041170639885,73.05102577841363,0.17013238955047164,0.12428345574794612,0.22265625,,
4.237774999999441,1500,,,,-0.08203125,0.185546875,-1,0.04704876174796127,2.265830168492524,15.10984824476046,1.20435370438223,2703,0,18.197601706230596,13.319293085805054,73.19257394915243,0.17011639836256154,0.12451257067115258,0.22265625,,
4.248589999999851,1500,,,,-0.08203125,0.01171875,-0.9375,0.04704876174796127,2.265830168492524,15.109889018793504,1.2035451897685145,2704,0,18.18543424650502,13.322999475076507,73.26192652032489,0.17006907286390271,0.1245958791953502,0.22265625,,
4.255304999999702,1500,,,,-0.03125,0.0546875,-1.009765625,0.04704876174796127,2.265830168492524,15.10989348721619,1.2029828891662508,2705,0,18.17694332224565,13.325202820388961,73.30827072603049,0.17004095164882335,0.12465408117983805,0.220703125,,
