Time (s),ESC signal (µs),Servo 1 (µs),Servo 2 (µs),Servo 3 (µs),AccX (g),AccY (g),AccZ (g),Torque (N·m),Thrust (N),Voltage (V),Current (A),Motor Electrical Speed (RPM),Motor Optical Speed (RPM),Electrical Power (W),Mechanical Power (W),Motor Efficiency (%),Propeller Mech. Efficiency (N/W),Overall Efficiency (N/W),Vibration (g),App message,90% settling time (s),Max acceleration (RPM/s),
0,1000,,,,-0.0625,0.05078125,-0.95703125,-0.0006979134205168776,-0.019177051124048296,15.162847476866673,0.05638254763267757,0,0,0.8549199701114601,0,0,0,0,0.05859375,,
0,1200,,,,-0.0625,0.048828125,-0.953125,-0.0007206858800490682,-0.019177051124048296,15.162855868485748,0.05466848616052422,0,0,0.8289303762003366,0,0,0,0,0.05859375,,
0.008294999999925494,1200,,,,-0.0625,0.046875,-0.955078125,-0.0007206858800490682,-0.019177051124048296,15.162845373733512,0.054418830239563565,0,0,0.8251443083419557,0,0,0,0,0.05859375,,
0.016799999999813735,1200,,,,-0.0625,0.046875,-0.95703125,-0.0007206858800490682,-0.019177051124048296,15.16290236981687,0.0552809634064777,0,0,0.8382198510418404,0,0,0,0,0.05859375,,
0.02471999999973923,1200,,,,-0.0625,0.048828125,-0.953125,-0.0007206858800490682,-0.019177051124048296,15.16285806642621,0.05503047816029939,0,0,0.834419329672187,0,0,0,0,0.05859375,,
0.03255000000074506,1200,,,,-0.0625,0.05078125,-0.9609375,-0.0007206858800490682,-0.01958656931078407,15.162917039702549,0.055900086926583575,0,0,0.8476083805799478,0,0,0,0,0.05859375,,
0.04035499999951571,1200,,,,-0.03125,0.03515625,-0.9375,-0.0007206858800490682,-0.01958656931078407,15.16260430312786,0.059762460321951594,0,0,0.9061545380431313,0,0,0,0,0.05859375,,
0.049865000000223515,1200,,,,-0.09375,0.0703125,-1.00390625,-0.0007206858800490682,-0.01958656931078407,15.161065113800097,0.09751108898570965,0,0,1.4783719694298993,0,0,0,0,0.060546875,,
0.05891500000003725,1200,,,,-0.0625,0.083984375,-0.9921875,-0.0007206858800490682,-0.01958656931078407,15.160104133943221,0.12428335483612082,0,0,1.8841486014314075,0,0,0,0,0.060546875,,
0.07593500000052154,1200,,,,-0.03125,0.05859375,-0.958984375,-0.0007206858800490682,-0.01958656931078407,15.1590388179194,0.15598190721484834,0,0,2.364535786362988,0,0,0,0,0.0625,,
0.08475,1200,,,,-0.125,-0.03515625,-0.98828125,-0.0007206858800490682,-0.01958656931078407,15.158757364764124,0.16436541182491904,0,0,2.49157539701348,0.00002338895637710915,0.0009387215977948835,837.4281004668302,0.00786111844508557,0.0625,,
0.10769000000040978,1200,,,,-0.09375,0.064453125,-1.01171875,-0.0007206858800490682,-0.01958656931078407,15.158317201247176,0.18766663459628974,0,0,2.844710375301107,0.00002338895637710915,0.0008221911299013515,837.4281004668302,0.006885259561339656,0.064453125,,
0.1204550000000745,1200,,,,0,-0.013671875,-1.021484375,-0.0007206858800490682,-0.01958656931078407,15.157485475060577,0.2099790342107352,0,0,3.1827541611164665,0.00002338895637710915,0.0007348653145395503,837.4281004668302,0.006153968644538153,0.06640625,,
0.14664500000048428,1200,,,,-0.03125,0.037109375,-0.98828125,-0.0007206858800490682,-0.01958656931078407,15.157421459282007,0.20757675859246555,0,0,3.146328415137638,0.00002338895637710915,0.0007433730142276323,837.4281004668302,0.00622521451242948,0.068359375,,
0.16767499999981372,1200,,,,-0.0625,0.013671875,-0.978515625,-0.0006394622449979405,-0.01958656931078407,15.157885202581618,0.1951955153128413,0,0,2.9587512131708107,0.00002075294516946385,0.0007014089281005651,943.797092453364,0.006619877069621441,0.072265625,,
0.17674500000011176,1200,,,,-0.0625,0.080078125,-1.0078125,-0.0006394622449979405,-0.01885489645933545,15.158072721868587,0.1906120880115684,296,0,2.889311891746569,0.01983073575844298,0.6863480476126597,0.9507915736968022,0.006525739402933686,0.072265625,,
0.18498500000033527,1200,,,,-0.03125,0.02734375,-0.974609375,-0.0006394622449979405,-0.01885489645933545,15.158364499469517,0.1856254860943961,398,0,2.8137787786100663,0.026638948436291873,0.9467321538849198,0.7077943224533695,0.00670091643403796,0.072265625,,
0.19277000000048428,1200,,,,-0.0625,0.04296875,-1,-0.0006394622449979405,-0.01885489645933545,15.158704834729724,0.18134000487173832,438,0,2.748879608579131,0.029306387003811767,1.0661211539547906,0.643371578246171,0.006859120494215228,0.072265625,,
0.20083499999996274,1200,,,,-0.03125,0.056640625,-0.98046875,-0.0006394622449979405,-0.01885489645933545,15.158867160006615,0.17616585588205175,453,0,2.6704748074448923,0.0303659032929727,1.1370975381725008,0.6209232861417583,0.007060503400657728,0.0703125,,
0.20883999999985098,1200,,,,0,0,-1.02734375,-0.0006394622449979405,-0.01885489645933545,15.159053982334466,0.17274392533599292,460,0,2.618634489288671,0.030782363601718148,1.1755120360489832,0.6125226997930415,0.007200278059599383,0.0703125,,
0.2169099999992177,1200,,,,-0.0625,0.072265625,-0.970703125,-0.0006394622449979405,-0.01885489645933545,15.159198671628069,0.16864377492505658,462,0,2.556504488822261,0.030946274955221453,1.2104917120438106,0.6092783860615875,0.007375264366549808,0.0703125,,
0.22530000000074507,1200,,,,-0.03125,0.02734375,-0.994140625,-0.0006394622449979405,-0.01885489645933545,15.159024054245357,0.164781755427621,463,0,2.497930594228082,0.031014386970404942,1.2416032311734067,0.6079403238673549,0.00754820670474315,0.072265625,,
0.23349000000022352,1200,,,,-0.0625,0.0234375,-0.94921875,-0.0006394622449979405,-0.01885489645933545,15.159202945767943,0.16043321145561473,463,0,2.432039611696966,0.031037662378704867,1.2761988838269047,0.6074844242223575,0.007752709441348024,0.0703125,,
0.24054499999992549,1200,,,,-0.03125,0.03515625,-0.970703125,-0.0006394622449979405,-0.01885489645933545,15.15949599930695,0.1576446718709839,464,0,2.3898137725402373,0.03104619890531615,1.299105363859201,0.6073173890574689,0.00788969277689523,0.0703125,,
0.24864500000048428,1200,,,,-0.0625,0.01953125,-0.94140625,-0.0006394622449979405,-0.01885489645933545,15.159520801448378,0.1546037645982976,464,0,2.343718985410121,0.03105019943707648,1.3248260405947554,0.6072391418143731,0.00804486227944093,0.0703125,,
0.25653000000026077,1200,,,,-0.03125,0.046875,-0.970703125,-0.0006394622449979405,-0.01885489645933545,15.15947872701524,0.15159471085914497,508,0,2.2980967943972344,0.03405026276066585,1.4816722621814917,0.5537371794122022,0.008204570192736762,0.0703125,,
0.26613000000081954,1200,,,,-0.03125,0.056640625,-1.025390625,-0.0006394622449979405,-0.01885489645933545,15.159608425551257,0.14637910885328206,526,0,2.2190499718968995,0.03525319456105853,1.5886615897578553,0.5348422091699739,0.008496832742895742,0.0703125,,
0.2730349999992177,1200,,,,-0.03125,0.033203125,-0.96484375,-0.0006394622449979405,-0.01885489645933545,15.159559842551475,0.14320462761051028,533,0,2.17091912199183,0.03571092133688635,1.6449678375913606,0.527986838577025,0.008685213681307475,0.0703125,,
0.2804000000003725,1200,,,,-0.0625,0.03125,-0.9453125,-0.0006394622449979405,-0.01885489645933545,15.159752891546407,0.1411417485716799,536,0,2.1396740310274405,0.03586830353156643,1.6763442941046018,0.5256701489308498,0.008812041547413465,0.0703125,,
0.2886499999994412,1200,,,,-0.0625,0.05078125,-0.94140625,0.0015549638380412528,-0.01885489645933545,15.159895995275152,0.13795398999109704,537,0,2.0913681403982602,0.08739772739426806,4.178973835645448,0.21573669043220503,0.009015579847049265,0.0703125,,
0.2974699999997392,1200,,,,-0.0625,0.0703125,-0.947265625,0.0015549638380412528,-0.01885489645933545,15.15998742789023,0.1358392706611467,537,0,2.059321635436762,0.08746316310426648,4.247183227680527,0.2155752866707802,0.009155877418505591,0.0703125,,
0.31469500000029804,1200,,,,-0.03125,0.033203125,-0.935546875,0.0015549638380412528,-0.01885489645933545,15.16021124487924,0.12903451955849338,537,0,1.9561905743882617,0.08750754929535318,4.473365245751603,0.21546594106637476,0.009638578524094842,0.0703125,,
0.32291500000003726,1200,,,,-0.0625,0.05859375,-0.96484375,0.0015549638380412528,-0.01885489645933545,15.160328393474373,0.12672244245383527,537,0,1.921153842423301,0.08751098661473881,4.555126439242075,0.21545747784038655,0.009814360538431583,0.0703125,,
0.3307749999994412,1200,,,,-0.09375,0.091796875,-1.015625,0.0015549638380412528,0.018895043406670253,15.160312210057075,0.12455056907556056,537,0,1.888225513125778,0.08751239801690475,4.634636986343665,0.21591276018993677,0.010006772641998308,0.0703125,,
0.33782000000029805,1200,,,,0,0.056640625,-0.986328125,0.0015549638380412528,0.018895043406670253,15.160467824836406,0.12360979840537911,542,0,1.8739823715592645,0.08832536605266415,4.713244232877827,0.2139254469141294,0.010082828789338319,0.0703125,,
0.347140000000596,1200,,,,-0.0625,0.046875,-1.046875,0.0015549638380412528,0.018895043406670253,15.160589174869367,0.12219256973459289,545,0,1.8525113499677393,0.08874132089463153,4.79032535461534,0.21292271983539204,0.010199691034011372,0.0703125,,
0.355964999999851,1200,,,,-0.0625,0.041015625,-0.998046875,0.0015549638380412528,0.018895043406670253,15.160335492667881,0.12013071262648434,546,0,1.8212219063907762,0.08889017938648647,4.880798933648093,0.212566152268816,0.010374926493233152,0.0703125,,
0.3645950000006706,1200,,,,-0.0625,0.142578125,-0.99609375,0.0015549638380412528,0.018895043406670253,15.1583491132167,0.17859174895839694,546,0,2.7071560794513356,0.08894298368987229,3.285476754184728,0.2124399544831301,0.006979665321143857,0.072265625,,
0.37149500000011176,1200,,,,-0.25,0.05078125,-0.8984375,0.0015549638380412528,0.018895043406670253,15.156942650512669,0.21426199579556265,546,0,3.2475567824577296,0.08895960456033639,2.7392778793235553,0.21240026301887155,0.005818233420500998,0.07421875,,
0.3798700000001118,1200,,,,0,0.099609375,-1.03515625,0.0015549638380412528,0.018895043406670253,15.155864353713497,0.240521593765866,546,0,3.6453126492544468,0.08896698799846531,2.4405859403215024,0.21238263575918964,0.005183380748023009,0.076171875,,
0.3869950000001118,1200,,,,-0.03125,-0.0078125,-1.009765625,0.0015549638380412528,0.018895043406670253,15.154856268382442,0.2700544435446701,546,0,4.092636276557476,0.08897061910560593,2.173919525055953,0.21237396790779103,0.004616839154483533,0.076171875,,
0.39405999999959024,1200,,,,-0.0625,0.05859375,-0.83984375,0.0015549638380412528,0.018895043406670253,15.154305875008486,0.2851794677646492,569,0,4.321696883777617,0.09265737371042615,2.1440044547833694,0.2039237963480516,0.004372135278065592,0.078125,,
0.4017150000007823,1200,,,,-0.03125,0.046875,-0.970703125,0.0015549638380412528,0.018895043406670253,15.153665937203582,0.2959199842081894,626,0,4.4842725848334615,0.10186740341129595,2.271659482874169,0.18548665003642378,0.004213625075018044,0.078125,,
0.40893999999947844,1200,,,,-0.0625,0.05078125,-1.0546875,0.0015549638380412528,0.018895043406670253,15.15330399352105,0.30430383201163463,650,0,4.611208472865662,0.10589952620481247,2.296567739844575,0.17842424875562465,0.004097633736981712,0.078125,,
0.4169850000003353,1200,,,,-0.0625,0.06640625,-0.98828125,0.0015549638380412528,0.018895043406670253,15.153174960003142,0.3102423514574617,661,0,4.701156631637703,0.10757016635123791,2.2881638451974866,0.17565319500366108,0.004019232901008011,0.078125,,
0.42483499999996277,1200,,,,0.0625,-0.04296875,-1.05859375,0.0015549638380412528,0.018895043406670253,15.152949554159726,0.3133775243398186,664,0,4.748593817728732,0.10818887051772429,2.2783349065107315,0.17464867981568147,0.003979081836000834,0.078125,,
0.43271499999985097,1200,,,,-0.0625,0.048828125,-0.974609375,0.0015549638380412528,0.018895043406670253,15.152606073899442,0.31484912936872794,666,0,4.770784830034538,0.10847601668308131,2.273756217219631,0.17418636841978785,0.003960573381494018,0.078125,,
0.44085500000044703,1200,,,,0,0.0703125,-0.96875,0.02868142716997146,0.018895043406670253,15.152510395921398,0.31474637035476816,758,0,4.769197648879151,2.2780777010242246,47.766477062648356,0.008294292770687776,0.003961891453819477,0.078125,,
0.45226500000059605,1200,,,,-0.03125,0.02734375,-0.998046875,0.02868142716997146,0.018895043406670253,15.152703608837783,0.3131953561072222,894,0,4.745756402757141,2.6848061266883185,56.57277573557141,0.0070377682838414475,0.003981460868006795,0.078125,,
0.459839999999851,1200,,,,-0.03125,0.033203125,-0.953125,0.02868142716997146,0.018895043406670253,15.15290455138807,0.30840611413462676,944,0,4.673248410546495,2.8363004557337663,60.69226813051195,0.006661862416047174,0.0040432354000331525,0.078125,,
0.46925,1200,,,,-0.03125,0.01171875,-1.013671875,0.02868142716997146,0.018895043406670253,15.15319612585321,0.3063210029894567,959,0,4.641742235767305,2.8815802315374324,62.07971242636423,0.006557181091081066,0.004070679164619058,0.078125,,
0.47753500000014903,1200,,,,-0.0625,0.080078125,-0.990234375,0.02868142716997146,0.03856903762180158,15.153442808015793,0.30140373585200625,966,0,4.567304273355676,2.9004452501946973,63.504533015570054,0.01329762650034941,0.008444595611201585,0.078125,,
0.4885250000003725,1200,,,,-0.0625,0.08203125,-0.974609375,0.02868142716997146,0.03856903762180158,15.153858653565285,0.29455572862013224,1026,0,4.463655877107419,3.0814653712724747,69.03456395633607,0.012516459857497832,0.008640683485393472,0.078125,,
0.4968700000001118,1200,,,,-0.0625,0.0390625,-0.998046875,0.02868142716997146,0.03856903762180158,15.154125736523845,0.28930272637443466,1043,0,4.384129891397336,3.1334976602730924,71.47365014028736,0.012308621803291914,0.008797421284775992,0.078125,,
0.5065099999997765,1200,,,,-0.0625,0.083984375,-1.01953125,0.02868142716997146,0.03856903762180158,15.154077853679915,0.2819189259666037,1050,0,4.2722213525237365,3.15455557110572,73.83876702086664,0.01222645686608797,0.00902786500025745,0.078125,,
0.5154199999999255,1200,,,,0,0.015625,-0.9765625,0.02868142716997146,0.03856903762180158,15.15430459033947,0.2764743621703533,1052,0,4.189776695749362,3.1608284575437127,75.44145397415704,0.012202192602307078,0.00920551151590749,0.078125,,
0.5238100000005216,1200,,,,-0.03125,0.041015625,-0.951171875,0.02868142716997146,0.03856903762180158,15.154470761145566,0.2712072046694084,1066,0,4.110001653374571,3.2005923938142455,77.87326292646031,0.012050593414001607,0.00938419029348418,0.078125,,
0.5306900000004098,1200,,,,0,-0.0234375,-0.958984375,0.02868142716997146,0.03856903762180158,15.154621152410568,0.26789053806411534,1075,0,4.05977961467709,3.2293052394845456,79.54385572580891,0.011943447510077396,0.00950027865610368,0.078125,,
0.537695000000298,1200,,,,-0.125,0.1171875,-0.96875,0.02868142716997146,0.03856903762180158,15.154594314536764,0.2624149957881678,1079,0,3.9767928032205564,3.2420482472001226,81.52419317834688,0.011896503284647393,0.009698528319244323,0.078125,,
0.545945000000298,1200,,,,-0.03125,0.009765625,-0.94921875,0.02868142716997146,0.03856903762180158,15.154729183444235,0.2588025503851156,1081,0,3.922082563071109,3.2480075956845593,82.8133407049257,0.011874675931499067,0.009833815836758129,0.078125,,
0.5543199999993667,1200,,,,-0.0625,0.046875,-0.9609375,0.02868142716997146,0.03856903762180158,15.15498976436938,0.2542828165931802,1082,0,3.8536534827246625,3.250354857599605,84.3447619815961,0.01186610056794996,0.010008434280534216,0.078125,,
0.5631500000003725,1200,,,,0,0.06640625,-1,0.02868142716997146,0.03856903762180158,15.155192024755895,0.24998028398873737,1088,0,3.788499206252326,3.2691915893280186,86.29252406685815,0.011797729367623095,0.01018055845389895,0.078125,,
0.5710750000001863,1200,,,,-0.0625,0.080078125,-0.9921875,0.02868142716997146,0.03856903762180158,15.155232332176382,0.24650912930844662,1091,0,3.735903126672019,3.2756138070456617,87.67930259379109,0.0117745985619067,0.010323885902298349,0.078125,,
0.5796100000003352,1200,,,,-0.09375,0.083984375,-1.009765625,0.02868142716997146,0.03856903762180158,15.155489195278989,0.24247978960826375,1091,0,3.6748998314815635,3.278214943581788,89.20555916921825,0.011765255874180395,0.010495262290251918,0.078125,,
0.5867650000005961,1200,,,,0.0625,0.015625,-0.9921875,0.017176697419238086,0.03856903762180158,15.155511484166095,0.24033916296005417,1092,0,3.6424629443359673,1.963760215609952,53.91297717012058,0.019640400755253046,0.010588724775299764,0.078125,,
0.5938449999997393,1200,,,,-0.03125,0.0234375,-0.970703125,0.017176697419238086,0.03856903762180158,15.155705434327686,0.23746785156494857,1092,0,3.5989928084410114,1.9639785287607523,54.5702265410054,0.019638217555330503,0.010716619808559348,0.078125,,
0.6040049999998882,1200,,,,-0.0625,0.02734375,-0.96875,0.017176697419238086,0.03856903762180158,15.155719916525177,0.23488607745441353,1095,0,3.5598676021903306,1.9697991213524628,55.3334938675943,0.019580188255602485,0.01083440226767722,0.078125,,
0.6123799999998882,1200,,,,-0.03125,0.060546875,-0.974609375,0.017176697419238086,0.03856903762180158,15.155574490459873,0.2294465271758104,1097,0,3.4773939341903204,1.9723577065532927,56.71942103426192,0.01955478841066878,0.01109136277100628,0.078125,,
0.6202100000008941,1200,,,,-0.03125,0.025390625,-0.958984375,0.017176697419238086,0.03856903762180158,15.15598646876399,0.22662173492267554,1097,0,3.43467594801589,1.9731093040598586,57.446738321839796,0.019547339593626235,0.011229309025231846,0.078125,,
0.6291100000003352,1200,,,,-0.03125,0.04296875,-0.998046875,0.017176697419238086,0.1820757374740676,15.155878822813108,0.22411616242402477,1097,0,3.3966773999324196,1.9734223336469374,58.098609355312945,0.09226394896301127,0.053604071283805226,0.078125,,
0.6380599999995902,1200,,,,-0.03125,0.01953125,-0.9453125,0.017176697419238086,0.1820757374740676,15.156103553829494,0.22031022897636088,1098,0,3.3390446443336126,1.9750894044007603,59.15133263499498,0.0921860737384236,0.054529291120156684,0.078125,,
0.6454599999999627,1200,,,,0,0.01953125,-0.953125,0.017176697419238086,0.1820757374740676,15.156294569668491,0.21771533145517855,1099,0,3.299757695867698,1.9763943211601187,59.89513483475367,0.0921252077708822,0.055178517411166854,0.076171875,,
0.6530049999998883,1200,,,,-0.0625,0.05859375,-0.93359375,0.017176697419238086,0.1820757374740676,15.156461029652531,0.2157464245567925,1099,0,3.269952276081895,1.9768850896448413,60.4560838427151,0.09210233737297222,0.05568146630330441,0.076171875,,
0.660390000000596,1200,,,,0,0,-0.90234375,0.017176697419238086,0.1820757374740676,15.156695649156788,0.21425300356363858,1099,0,3.2473675669317745,1.9771009851486716,60.883190596643956,0.09209227998051707,0.056068718345333196,0.076171875,,
0.669175000000745,1200,,,,-0.0625,0.076171875,-0.978515625,0.017176697419238086,0.1820757374740676,15.157056299203516,0.21129712721050045,1099,0,3.2026424529895223,1.9771886008171007,61.73616411571277,0.09208819907156165,0.05685172171002358,0.076171875,,
0.676214999999851,1200,,,,-0.0625,0.01171875,-0.98046875,0.017176697419238086,0.1820757374740676,15.157386280863594,0.20797005778704258,1100,0,3.152282500731728,1.9785129267472428,62.76445484463964,0.09202655944907454,0.05775996835048985,0.076171875,,
0.6841900000004097,1200,,,,0,0.013671875,-0.955078125,0.017176697419238086,0.1820757374740676,15.157514036039332,0.20566792780615864,1101,0,3.1174145024849738,1.9797114736008843,63.50491639859902,0.09197084519740203,0.05840600835369509,0.076171875,,
0.6919650000007823,1200,,,,-0.0625,0.056640625,-0.984375,0.017176697419238086,0.1820757374740676,15.157715276935523,0.2039500036691395,1101,0,3.091416086346772,1.9801639197213976,64.05362023141383,0.09194983085020812,0.0588971954562197,0.076171875,,
0.7001700000008568,1200,,,,-0.0625,0.0625,-0.93359375,0.017176697419238086,0.1820757374740676,15.157957693550319,0.20300903877897342,1101,0,3.077202421219995,1.9803649121617495,64.35601696220587,0.09194049862018373,0.05916924288714209,0.076171875,,
0.7080800000000745,1200,,,,-0.0625,0.083984375,-0.939453125,0.017176697419238086,0.1820757374740676,15.157959810902607,0.20126531814368465,1101,0,3.050771603750499,1.980444294048337,64.91617699645744,0.09193681338134303,0.05968186449953541,0.076171875,,
0.715839999999851,1200,,,,-0.0625,0.1015625,-1,0.017176697419238086,0.1820757374740676,15.157994943648598,0.19893626995750782,1101,0,3.015474974124216,1.9803933363992061,65.67434163416898,0.09193917901436774,0.06038045052154606,0.076171875,,
0.7242850000001491,1200,,,,-0.03125,0.01171875,-1.01171875,0.017176697419238086,0.1820757374740676,15.15818864357097,0.19677875199664377,1101,0,2.9828094438115937,1.9803328275765864,66.39153002834841,0.09194198820451867,0.06104169270746356,0.076171875,,
0.7320750000001862,1200,,,,-0.03125,0.033203125,-0.91796875,0.017176697419238086,0.1820757374740676,15.15814249728065,0.19519094599028047,1101,0,2.9587321734996825,1.9803072905721149,66.93094117504202,0.09194317384018999,0.061538431597444196,0.076171875,,
0.7410549999997019,1200,,,,0,0.07421875,-0.99609375,0.012851484909506704,0.1820757374740676,15.158333439910134,0.19381393182906756,1101,0,2.937896203965018,1.4816454215989356,50.432190885412844,0.12288752411327832,0.06197487073516625,0.076171875,,
0.7486300000008196,1200,,,,-0.09375,0.064453125,-1.01171875,0.012851484909506704,0.1820757374740676,15.158414514996172,0.19210482577450766,1101,0,2.9120045794211076,1.4816428401783226,50.88051202422442,0.1228877382164206,0.06252591041950332,0.076171875,,
0.758589999999851,1200,,,,-0.03125,0.072265625,-0.982421875,0.012851484909506704,0.1820757374740676,15.158590817904887,0.1896083992138244,1100,0,2.874196139320323,1.4807201955672638,51.5177156948453,0.12296431021818705,0.06334840374433322,0.076171875,,
0.7682649999996647,1200,,,,-0.03125,0.021484375,-0.994140625,0.012851484909506704,0.1820757374740676,15.158617090337813,0.1883911000921494,1100,0,2.8557485495243977,1.4797854192817663,51.817777147368695,0.12304198642695136,0.06375762232441329,0.076171875,,
0.7770649999994784,1200,,,,-0.03125,0.052734375,-1.00390625,0.012851484909506704,0.24465189644607174,15.158776001017701,0.18639986781761544,1099,0,2.8255938428665406,1.479505043971155,52.360853195737775,0.16536063695288192,0.08658424035843541,0.076171875,,
0.7858349999999628,1200,,,,0,-0.0625,-0.8828125,0.012851484909506704,0.24465189644607174,15.158835885875877,0.18504486928220848,1099,0,2.8050648049723526,1.4794179729405832,52.740955229202434,0.1653703692404023,0.08721791240344734,0.076171875,,
0.7940800000000745,1200,,,,-0.03125,0.060546875,-1.015625,0.012851484909506704,0.24465189644607174,15.159010777029886,0.1844274149707956,1100,0,2.7957371711220533,1.480032931648765,52.938915250562054,0.16530165729050916,0.08750890426079719,0.076171875,,
0.8020499999998137,1200,,,,-0.0625,0.076171875,-0.96484375,0.012851484909506704,0.24465189644607174,15.159123259273041,0.18444197443460358,1100,0,2.7959786246378426,1.4805425682586604,52.952571068043554,0.1652447566798562,0.0875013472171165,0.078125,,
0.8101650000000372,1200,,,,-0.03125,0.00390625,-0.98828125,0.012851484909506704,0.24465189644607174,15.159362937398999,0.18424279414845837,1100,0,2.793003385096973,1.4807473229778223,53.01630964283313,0.16522190697199457,0.08759455779806634,0.078125,,
0.8183050000006333,1200,,,,-0.0625,0.046875,-0.98046875,0.012851484909506704,0.24465189644607174,15.159394448553144,0.18362316250818117,1100,0,2.7836159503522935,1.480828209603436,53.198007053236736,0.16521288212870364,0.08788996068768347,0.078125,,
0.8272450000001118,1200,,,,-0.03125,0.048828125,-0.9765625,0.012851484909506704,0.24465189644607174,15.15957734860276,0.18344246467668773,1100,0,2.7809102322845773,1.4808619578134705,53.250980223008156,0.1652091169978506,0.08797547421913182,0.076171875,,
0.835554999999702,1200,,,,-0.03125,0.025390625,-0.931640625,0.012851484909506704,0.24465189644607174,15.15970082026225,0.1829551195394225,1101,0,2.7735448757529615,1.4810612317142093,53.399577005658905,0.16518688843330728,0.08820909969219579,0.076171875,,
0.8442450000001117,1200,,,,-0.03125,0.03515625,-0.96875,0.012851484909506704,0.24465189644607174,15.159716462082896,0.1816889728715317,1101,0,2.754353313019492,1.4811383134279419,53.77444884891063,0.16517829174228177,0.08882371600245766,0.076171875,,
0.8532799999993295,1200,,,,0,0.03515625,-0.953125,0.012851484909506704,0.24465189644607174,15.159732200486516,0.18161696445338266,1101,0,2.75326454417856,1.4811680791321185,53.79679487261282,0.16517497230255196,0.08885884103049892,0.076171875,,
0.8612749999994412,1200,,,,-0.03125,0.021484375,-0.978515625,0.012851484909506704,0.24465189644607174,15.159549949458274,0.18028523626089057,1101,0,2.7330430442468567,1.481178033985134,54.195195977723856,0.16517386217768285,0.08951629831117071,0.076171875,,
0.8704250000007451,1200,,,,-0.0625,0.072265625,-0.951171875,0.012851484909506704,0.24465189644607174,15.159506911897674,0.17965517101879533,1101,0,2.7234838068175864,1.4811819676567402,54.38556175546032,0.16517342351467862,0.08983049424918356,0.07421875,,
0.8783250000001863,1200,,,,-0.0625,0.0703125,-0.93359375,0.012851484909506704,0.24465189644607174,15.159536644555136,0.1791767121351794,1101,0,2.716235933464159,1.4811836974434567,54.53074525652214,0.16517323061841976,0.09007019362049828,0.076171875,,
0.8868150000004098,1200,,,,0,0.02734375,-0.94140625,0.010957298379642247,0.24465189644607174,15.15968999269337,0.1773237717915799,1101,0,2.6881734086954565,1.2628717618046335,46.97880567226846,0.19372663467941206,0.09101045924146643,0.07421875,,
0.8948000000007451,1200,,,,-0.0625,0.046875,-0.982421875,0.010957298379642247,0.24465189644607174,15.159705467526111,0.17650340571306297,1101,0,2.6757396446253003,1.2628719374678594,47.1971157584245,0.19372660773238398,0.0914333713063222,0.07421875,,
0.9025999999996275,1200,,,,0,0.046875,-0.94921875,0.010957298379642247,0.24465189644607174,15.159654968703375,0.1766924113898275,1101,0,2.6785959922579794,1.262872005030127,47.14678916418307,0.19372659736822287,0.09133587041614186,0.07421875,,
0.9123100000005215,1200,,,,-0.0625,0.06640625,-0.97265625,0.010957298379642247,0.24465189644607174,15.15958182196759,0.1759925788735741,1100,0,2.6679738994930315,1.2627237622098824,47.32893985394029,0.19374934072509137,0.09169950893918434,0.07421875,,
0.9209599999999627,1200,,,,-0.0625,0.048828125,-0.908203125,0.010957298379642247,0.24465189644607174,15.159609533184733,0.1757091637438787,1100,0,2.663682313759621,1.2624658572827505,47.395511497797905,0.19378892112983123,0.09184725039554768,0.07421875,,
0.9292000000001862,1200,,,,0,0.02734375,-0.9921875,0.010957298379642247,0.26728692834979617,15.159302542735407,0.17508870491721842,1100,0,2.6542226496558388,1.2623978036110852,47.561865383628415,0.21172955750178168,0.10070252711634953,0.07421875,,
0.937570000000298,1200,,,,-0.0625,0.068359375,-0.97265625,0.010957298379642247,0.26728692834979617,15.159487386318537,0.17442572577889742,1100,0,2.6442045897946516,1.2623693112140617,47.74098479694784,0.21173433635893577,0.10108405733103792,0.07421875,,
0.9442800000002608,1200,,,,-0.0625,0.068359375,-1.0234375,0.010957298379642247,0.26728692834979617,15.159340187370267,0.17467721892177127,1100,0,2.6479913846188814,1.2623604534100514,47.67237766491977,0.21173582206870165,0.10093950074851399,0.07421875,,
0.9528499999996275,1200,,,,-0.03125,0.017578125,-0.916015625,0.010957298379642247,0.26728692834979617,15.159282368900298,0.17604805462888787,1100,0,2.6687621706148965,1.2620641519961477,47.290244364688434,0.21178553239709802,0.10015389579964404,0.07421875,,
0.9606699999999255,1200,,,,0,0.03515625,-1.03515625,0.010957298379642247,0.26728692834979617,15.159248411880165,0.17436907432391716,1100,0,2.643304113025856,1.261916871341945,47.740131947867226,0.21181025027865621,0.10111849296213829,0.07421875,,
0.968980000000447,1200,,,,-0.0625,0.048828125,-0.98828125,0.010957298379642247,0.26728692834979617,15.15948274521385,0.17466569925797765,1100,0,2.6478416540820238,1.2618672840937968,47.656448116844494,0.2118185737272259,0.10094520869015541,0.076171875,,
0.9763349999999628,1200,,,,0,0.078125,-1,0.010957298379642247,0.26728692834979617,15.159274150812143,0.1747255735854401,1100,0,2.6487128711395873,1.261849142487978,47.64008799281734,0.2118216190429774,0.10091200569988477,0.07421875,,
0.985105000000447,1200,,,,-0.03125,0.04296875,-1.05078125,0.010957298379642247,0.26728692834979617,15.15942490347734,0.17359877617652997,1100,0,2.631657610783677,1.2618401642281878,47.94849295963035,0.2118231261986211,0.10156599675221475,0.076171875,,
0.9944950000001117,1200,,,,-0.03125,0.041015625,-0.986328125,0.010957298379642247,0.26728692834979617,15.1595179628177,0.17223636985178467,1100,0,2.6110203426186427,1.261915353200857,48.330353180445066,0.2118105050959409,0.10236876518615284,0.076171875,,
1.0030950000006706,1200,,,,-0.0625,-0.00390625,-0.9453125,0.010957298379642247,0.26728692834979617,15.159544645368177,0.17292669842574157,1100,0,2.621490005161148,1.2619470887427289,48.13854282328857,0.21180517846916444,0.10195992653932151,0.076171875,,
1.0107599999997765,1200,,,,-0.0625,0.072265625,-0.99609375,0.010957298379642247,0.26728692834979617,15.159353133315605,0.1733299473438826,1100,0,2.6275698803649155,1.2619582996219854,48.027582788653575,0.21180329685209165,0.101724003744736,0.076171875,,
1.0184750000005587,1200,,,,0,0.03515625,-0.95703125,0.010957298379642247,0.26728692834979617,15.159207712178805,0.17250695600326954,1100,0,2.6150687778492534,1.2619619200752057,48.25731280051067,0.2118026892078229,0.10221028625091254,0.07421875,,
1.0270949999997392,1200,,,,-0.0625,-0.00390625,-0.99609375,0.010957298379642247,0.26728692834979617,15.15880792806553,0.1729441155167749,1100,0,2.6216266294079684,1.2621586787110455,48.14410505877695,0.21176967116587722,0.10195461296872643,0.07421875,,
1.0351450000004843,1200,,,,0,0.0390625,-1.01953125,0.010957298379642247,0.26728692834979617,15.158767941871988,0.1723451844114415,1100,0,2.6125406563921754,1.2625929885998528,48.32816612865456,0.2116968261056185,0.10230919380941227,0.07421875,,
1.0432949999999255,1200,,,,-0.03125,0.041015625,-1.001953125,0.010060421549476175,0.26728692834979617,15.15882825758461,0.17273890811629344,1100,0,2.6185194415375803,1.1594021647756751,44.27701190161416,0.23053857968387675,0.10207559436444236,0.07421875,,
1.051214999999851,1200,,,,-0.0625,0.0390625,-0.966796875,0.010060421549476175,0.26728692834979617,15.158820439112175,0.17311084493994713,1101,0,2.624156214507649,1.1594632299887966,44.18423048059042,0.23052643795558647,0.10185633266499161,0.07421875,,
1.059339999999851,1200,,,,0,0.03125,-0.96875,0.010060421549476175,0.26728692834979617,15.15858135859552,0.1721799399713144,1101,0,2.6100036283732617,1.1594877268473942,44.424755362124486,0.2305215675516806,0.10240864244176866,0.07421875,,
1.0706550000002608,1200,,,,-0.03125,0.05078125,-0.966796875,0.010060421549476175,0.26728692834979617,15.158585552909129,0.1713117203687733,1100,0,2.5968433694260953,1.159305783282222,44.642884393078724,0.23055774602715645,0.10292762801819151,0.07421875,,
1.079464999999851,1200,,,,-0.0625,0.04296875,-0.974609375,0.010060421549476175,0.27903210672754575,15.15890948395776,0.1707834191267836,1100,0,2.588890391903733,1.1591038798845479,44.77222687794844,0.24073088837847617,0.10778057951011215,0.07421875,,
1.0934350000005215,1200,,,,-0.0625,0.083984375,-0.97265625,0.010060421549476175,0.27903210672754575,15.158770203686409,0.16856244056174632,1100,0,2.5551993014480616,1.1590449569222128,45.36025648822651,0.24074312653799199,0.10920169967540887,0.07421875,,
1.1012649999996647,1200,,,,-0.041015625,0.046875,-0.97265625,0.010060421549476175,0.27903210672754575,15.158780300910161,0.1682258326948869,1100,0,2.55009843875946,1.1590348940568334,45.450594237478384,0.24074521669566176,0.1094201315864833,0.07421875,,
1.1091149999992922,1200,,,,-0.0625,0.01953125,-0.97265625,0.010060421549476175,0.27903210672754575,15.158644332403712,0.16797148415853752,1100,0,2.5462199863452546,1.1591022578233876,45.52247111558959,0.24073122526007698,0.10958680248522344,0.07421875,,
1.1164850000003352,1200,,,,-0.0625,0.107421875,-1.01171875,0.010060421549476175,0.27903210672754575,15.15871000675393,0.1676270208203394,1100,0,2.541009397911628,1.1591287370972894,45.616861474417966,0.24072572596750802,0.10981152094788514,0.07421875,,
1.124425000000745,1200,,,,-0.0625,-0.00390625,-0.8828125,0.010060421549476175,0.27903210672754575,15.15851341157037,0.16803647707486222,1100,0,2.5471831913723357,1.1591393134757644,45.506711782722604,0.2407235295047042,0.10954536276490295,0.07421875,,
1.1319550000000744,1200,,,,-0.0625,0.064453125,-0.994140625,0.010060421549476175,0.27903210672754575,15.1584029111239,0.16657628555356283,1100,0,2.5250304518593327,1.1591432911225044,45.90611136071476,0.2407227034522483,0.11050643231731226,0.076171875,,
1.139160000000149,1200,,,,-0.03125,0.05078125,-0.955078125,0.010060421549476175,0.27903210672754575,15.15812784622461,0.16717008366721792,1100,0,2.5339855002917537,1.1591449777421947,45.743946743528525,0.24072235318747612,0.11011590504184772,0.076171875,,
1.1475649999994784,1200,,,,-0.125,0.0546875,-0.95703125,0.010060421549476175,0.27903210672754575,15.157918572120558,0.1721296370742824,1100,0,2.6091270226206364,1.1589257831936637,44.4181434305803,0.24076788244249264,0.10694462335807736,0.076171875,,
1.156285000000149,1200,,,,-0.03125,0.0390625,-0.974609375,0.010060421549476175,0.27903210672754575,15.15788720570687,0.1759455265486462,1100,0,2.6669624457730827,1.1588392739920932,43.451653240515576,0.24078585614923642,0.10462543526617286,0.076171875,,
1.164390000000596,1200,,,,-0.125,0.03515625,-0.96484375,0.010060421549476175,0.27903210672754575,15.15792587270641,0.1746594461476418,1100,0,2.6474749376739117,1.1588088244902282,43.770341618733696,0.24079218317162437,0.10539556116542698,0.076171875,,
1.172375,1200,,,,-0.03125,0.107421875,-0.974609375,0.010060421549476175,0.27903210672754575,15.157832510587417,0.1733583643120367,1100,0,2.627737050551247,1.1587970604977937,44.09866886242294,0.24079462766990423,0.10618722549465531,0.076171875,,
1.1804150000000373,1200,,,,-0.03125,0.0234375,-0.958984375,0.010060421549476175,0.27903210672754575,15.157807929552616,0.17263444142804915,1102,0,2.61675970519197,1.1612022878664447,44.37557967445302,0.24029586372950593,0.10663268246370196,0.076171875,,
1.1880549999997019,1200,,,,-0.0625,0.01953125,-0.92578125,0.008564033297525074,0.27903210672754575,15.157913509190209,0.17206738519146889,1108,0,2.6081825424848013,0.9933211497789185,38.08480171915371,0.28090825086091176,0.10698335035312113,0.076171875,,
1.1965299999993295,1200,,,,-0.0625,0.09375,-0.943359375,0.008564033297525074,0.27903210672754575,15.158084936084112,0.17139718075091884,1110,0,2.598053023627789,0.9953055094862008,38.30966883410281,0.2803481986868418,0.10740046649930167,0.076171875,,
1.2045700000002981,1200,,,,-0.0625,0.029296875,-0.93359375,0.008564033297525074,0.27903210672754575,15.158177465014028,0.17088780476804288,1111,0,2.5903476712806643,0.9960584097092855,38.45269192057279,0.28013628920515354,0.10771994424578252,0.076171875,,
1.214929999999702,1200,,,,0,0.015625,-0.96484375,0.008564033297525074,0.27903210672754575,15.158291260515211,0.16904367513928956,1111,0,2.5624132635092653,0.9963988801848106,38.88517493935489,0.28004056636012203,0.10889426413029367,0.076171875,,
1.239105000000447,1200,,,,-0.046875,0.0390625,-0.962890625,0.008564033297525074,0.282267530521954,15.158464396338966,0.1663081661148796,1106,0,2.520976414872829,0.9921419738218981,39.35546433392344,0.2845031638310916,0.11196754117042901,0.076171875,,
1.2465699999993667,1200,,,,-0.0625,0.0625,-0.96875,0.008564033297525074,0.282267530521954,15.158409514501232,0.16593779900890845,1106,0,2.515353111312031,0.9917673578959584,39.428553924925616,0.28461062796096315,0.1122178549216578,0.076171875,,
1.2545800000000744,1200,,,,-0.03125,0.056640625,-0.982421875,0.008564033297525074,0.282267530521954,15.15856530844689,0.16571736983722207,1106,0,2.5120375734215776,0.991627580115694,39.47502977692428,0.2846507460885887,0.1123659667787075,0.076171875,,
1.2631900000004097,1200,,,,-0.0625,0.09765625,-1,0.008564033297525074,0.282267530521954,15.158645359973116,0.16580932514234395,1105,0,2.5134447572092657,0.9907662684173313,39.41866100599726,0.2848982040666902,0.11230305727322291,0.076171875,,
1.2714550000000746,1200,,,,-0.0625,0.037109375,-0.966796875,0.008564033297525074,0.282267530521954,15.158777059901455,0.16546043387675596,1104,0,2.50817782937231,0.990480526925136,39.49004394050525,0.2849803937067092,0.11253888269660432,0.076171875,,
1.2802549999998882,1200,,,,-0.03125,0.07421875,-0.97265625,0.008564033297525074,0.282267530521954,15.158916087324044,0.16509213106876613,1104,0,2.5026177615489287,0.990361523917795,39.573023860616935,0.2850146372865185,0.11278891041964476,0.076171875,,
1.2885800000000744,1200,,,,-0.0625,0.08203125,-0.99609375,0.008564033297525074,0.282267530521954,15.158969867573386,0.1652049971285463,1104,0,2.504337573444181,0.990320438400501,39.544207174854904,0.2850264617156176,0.11271145452398232,0.076171875,,
1.2964950000001119,1200,,,,-0.125,0.03125,-0.94140625,0.008564033297525074,0.282267530521954,15.159084824851822,0.1648880437255271,1104,0,2.4995518414391413,0.9897320072693315,39.59637847316996,0.2851959201569418,0.1129272559353823,0.078125,,
1.3045300000002609,1200,,,,-0.03125,0.0546875,-0.974609375,0.008564033297525074,0.282267530521954,15.159130184407173,0.165332943369081,1102,0,2.5063036123031175,0.988339778014119,39.43416005796297,0.2855976626673035,0.11262303941802562,0.076171875,,
1.3121150000002235,1200,,,,-0.0625,0.05859375,-1.01953125,0.008564033297525074,0.282267530521954,15.159107675788238,0.1662766187318971,1101,0,2.520605167322816,0.9877999613790667,39.18900009350645,0.2857537371512756,0.11198403231941158,0.076171875,,
1.3194850000003353,1200,,,,-0.0625,0.03125,-0.974609375,0.008564033297525074,0.282267530521954,15.159146153783741,0.16632363634344596,1101,0,2.5213243121590745,0.9875996030168706,39.16987585667485,0.2858117091781903,0.11195209166893771,0.076171875,,
1.3270300000002608,1200,,,,0,0.046875,-0.982421875,0.008564033297525074,0.282267530521954,15.159088930093738,0.1663757499214655,1101,0,2.5221047888705317,0.9875047814395748,39.15399494094005,0.28583915321449604,0.11191744758882965,0.076171875,,
1.3443099999995902,1200,,,,-0.0625,0.02734375,-0.99609375,0.007898541568048095,0.282267530521954,15.159044935048692,0.16625569483909275,1102,0,2.52027754877355,0.9113600004083229,36.16109665587509,0.3097212192717343,0.11199858946460667,0.076171875,,
1.3557000000001862,1200,,,,-0.03125,0.033203125,-0.96484375,0.007898541568048095,0.282267530521954,15.159109862834569,0.1654467467160021,1102,0,2.5080254099164403,0.9116297036015071,36.34850348792438,0.3096295890829586,0.11254572198746515,0.076171875,,
1.3629500000001862,1200,,,,-0.03125,0.03515625,-1.025390625,0.007898541568048095,0.282267530521954,15.159105018570783,0.16553173355708867,1102,0,2.5093129328979846,0.9116946398892058,36.332440961689755,0.30960753543122366,0.11248797502349203,0.076171875,,
1.3713799999998881,1200,,,,-0.0625,0.00390625,-0.9609375,0.007898541568048095,0.282267530521954,15.158944507760255,0.16596318488535208,1102,0,2.515826710008208,0.9117248281900969,36.23957184980846,0.3095972839549572,0.11219673016391225,0.076171875,,
1.3815,1200,,,,-0.03125,0.0234375,-0.931640625,0.007898541568048095,0.2852966720744467,15.158806841169215,0.16521733316699816,1102,0,2.5044976402916252,0.9111275112451556,36.37965141540574,0.3131248574467448,0.11391373163411189,0.076171875,,
1.3977250000005588,1200,,,,0,0.001953125,-0.953125,0.007898541568048095,0.2852966720744467,15.158940987945032,0.16517258198995563,1101,0,2.5038414232122497,0.9107624339638514,36.374605257365225,0.3132503729131304,0.1139435866143757,0.076171875,,
1.4129150000000372,1200,,,,-0.03125,0.0390625,-0.990234375,0.007898541568048095,0.2852966720744467,15.15903565685099,0.1654228694283937,1101,0,2.507651176123626,0.9104410702897322,36.30652775626908,0.3133609427171996,0.11377047764492651,0.076171875,,
1.4333199999993667,1200,,,,-0.041015625,0.0703125,-0.96875,0.007898541568048095,0.2852966720744467,15.159239063214386,0.16335539416556494,1100,0,2.4763434724214153,0.9097656910552229,36.73826757827083,0.3135935712672739,0.11520884532042651,0.076171875,,
1.455589999999851,1200,,,,-0.03125,0.001953125,-0.9140625,0.007898541568048095,0.2852966720744467,15.15916476643912,0.16500364258414027,1100,0,2.501317404995613,0.909521404434883,36.36169494596702,0.31367779876682655,0.11405856430081775,0.076171875,,
1.4630849999999627,1200,,,,-0.09375,0.08984375,-0.974609375,0.007898541568048095,0.2852966720744467,15.159026662036053,0.1649173525492947,1099,0,2.499986544327158,0.9090315209678104,36.36145654585775,0.31384684193426254,0.11411928305047377,0.076171875,,
1.4706049999995157,1200,,,,-0.03125,0.052734375,-0.9296875,0.007898541568048095,0.2852966720744467,15.158894586325415,0.1650242960774878,1099,0,2.5015859084211924,0.9088194759975499,36.32973278823458,0.31392006840665004,0.11404632202077916,0.076171875,,
1.478054999999702,1200,,,,-0.0625,0.046875,-0.95703125,0.007898541568048095,0.2852966720744467,15.158819651469539,0.16617835850372867,1099,0,2.5190677665352723,0.9087229209196199,36.07377828384022,0.3139534235427107,0.11325486192332332,0.076171875,,
1.4907949999999255,1200,,,,-0.0625,0.03125,-0.966796875,0.007898541568048095,0.2852966720744467,15.158908482677083,0.16577798179793235,1099,0,2.5130132545177637,0.9086755739845047,36.158805463955886,0.313969782222089,0.11352772276929111,0.076171875,,
1.4986450000004843,1200,,,,-0.041015625,0.05078125,-0.98828125,0.008800887910337748,0.2852966720744467,15.15891324523637,0.16552298862271483,1099,0,2.5091486246239807,1.0129256353510447,40.369295999866935,0.2816560881841763,0.11370257994071638,0.076171875,,
1.506320000000298,1200,,,,-0.0625,0.05078125,-1.03515625,0.008800887910337748,0.2852966720744467,15.158961569251753,0.1647376205897822,1099,0,2.4972512595304845,1.013078590714826,40.567747712550876,0.2816135635372,0.11424427998009547,0.076171875,,
1.5134000000003724,1200,,,,-0.0625,0.0078125,-0.95703125,0.008800887910337748,0.2852966720744467,15.15900587335639,0.16484980275602643,1099,0,2.498959128200247,1.0131423422187749,40.542573537344765,0.28159584313656155,0.1141662017817465,0.076171875,,
1.5215249999994411,1200,,,,-0.03125,0.05859375,-0.966796875,0.008800887910337748,0.2852966720744467,15.159054934774842,0.16529470890505665,1099,0,2.50571157271937,1.013172763928118,40.43453264768832,0.281587387888654,0.11385854428761057,0.076171875,,
1.529285000000149,1200,,,,-0.03125,0.0234375,-1,0.008800887910337748,0.2902362093543303,15.15880965261469,0.165395359496936,1099,0,2.5071967720398303,1.0130178128447271,40.404400011274184,0.2865065210840641,0.11576124083719086,0.076171875,,
1.5391200000001117,1200,,,,-0.0625,0.015625,-1.03125,0.008800887910337748,0.2902362093543303,15.158746136384208,0.16622768915754083,1099,0,2.519803340776947,1.01264800320552,40.187580785303815,0.2866111506027687,0.11518208768817646,0.076171875,,
1.5466149999992922,1200,,,,-0.03125,0.060546875,-0.98046875,0.008800887910337748,0.2902362093543303,15.15874128122647,0.1662981023033009,1099,0,2.52086990837467,1.0124539955180405,40.1628815574549,0.2866660713861134,0.11513335471621383,0.076171875,,
1.5563650000002236,1200,,,,-0.03125,0.046875,-1.017578125,0.008800887910337748,0.2902362093543303,15.15888863353377,0.16685219724832293,1098,0,2.529293876347737,1.0123936607772825,40.02673118551032,0.2866831555735903,0.11474989603557935,0.076171875,,
1.5644699999997391,1200,,,,-0.0625,0.1015625,-0.9765625,0.008800887910337748,0.2902362093543303,15.15901832554208,0.16641913730983438,1098,0,2.522750752200683,1.01237334932785,40.12974125346,0.28668890735520475,0.11504751672401532,0.076171875,,
1.5724150000000372,1200,,,,-0.03125,0.037109375,-1.017578125,0.008800887910337748,0.2902362093543303,15.159066860893644,0.16839570222297612,1099,0,2.5527217090852314,1.012576467252949,39.6665435033185,0.2866313989517467,0.11369676855936503,0.076171875,,
1.5809050000002607,1200,,,,-0.0625,0.048828125,-1.00390625,0.008800887910337748,0.2902362093543303,15.15911216194533,0.16813528796716015,1099,0,2.5487816886751578,1.0127594859559894,39.735042450121185,0.2865796009606005,0.11387252609508249,0.076171875,,
1.5887199999997392,1200,,,,0,0.0390625,-0.98046875,0.008800887910337748,0.2902362093543303,15.159156114718147,0.16681005676962105,1099,0,2.528699692075682,1.0128331537812272,40.05351671276725,0.2865587567614533,0.11477685953134674,0.076171875,,
1.5957400000002235,1200,,,,-0.125,0.109375,-0.9375,0.008800887910337748,0.2902362093543303,15.159260063204384,0.16642209765049798,1099,0,2.5228358585478943,1.012861479211773,40.14773596070418,0.2865507429310051,0.1150436356653761,0.076171875,,
1.6067249999996274,1200,,,,-0.03125,0.0703125,-1.01171875,0.008800887910337748,0.2902362093543303,15.159223590822872,0.1664802751600275,1099,0,2.523711714612572,1.0128744052531906,40.13431484224348,0.2865470860444729,0.11500370968436306,0.076171875,,
1.6153950000004842,1200,,,,-0.03125,0.0703125,-0.953125,0.008800887910337748,0.2902362093543303,15.15904378973682,0.1682240116616622,1099,0,2.550115159264335,1.0130798731505426,39.726828393224366,0.28648896996811773,0.11381298146475022,0.076171875,,
1.6238100000005216,1200,,,,-0.0625,0.04296875,-0.95703125,0.008800887910337748,0.2902362093543303,15.158895748268476,0.16786556140268144,1099,0,2.5446565450278085,1.0131477448800175,39.8147147543224,0.2864697777999809,0.11405712488840358,0.076171875,,
1.633285000000149,1200,,,,-0.03125,0.033203125,-0.9609375,0.008800887910337748,0.2902362093543303,15.158883260239623,0.16712528226342394,1099,0,2.533432643665839,1.0131763593159209,39.99223590368955,0.286461687233102,0.11456243373195148,0.07421875,,
1.6406399999996648,1200,,,,0,0,-0.9140625,0.009150368328453704,0.2902362093543303,15.15893826782689,0.1673508276709819,1099,0,2.5368608657341505,1.0534194078285328,41.52452434649704,0.27551819075804673,0.11440761820035325,0.07421875,,
1.6487750000003725,1200,,,,-0.0625,0.0390625,-0.970703125,0.009150368328453704,0.2902362093543303,15.158892494791615,0.1679874851194064,1099,0,2.546504227395488,1.053336357960367,41.36401371843383,0.27553991387549803,0.11397436777522177,0.07421875,,
1.6569550000000746,1200,,,,-0.0625,0.0859375,-0.9765625,0.009150368328453704,0.2902362093543303,15.158881456843343,0.16817003591869226,1099,0,2.549269639084543,1.053259698837868,41.3161355193521,0.2755599684242807,0.11385072999125968,0.07421875,,
1.6655,1200,,,,-0.03125,0.060546875,-0.962890625,0.009150368328453704,0.2902362093543303,15.159164193597032,0.16740693330762235,1099,0,2.5377491891567954,1.0532276156313896,41.50243137231934,0.27556836247627187,0.11436757052053893,0.07421875,,
1.6729000000003724,1200,,,,-0.0625,0.0625,-1.0234375,0.009150368328453704,0.2922368415370818,15.159028584882108,0.1676843449937422,1099,0,2.5419317789973714,1.0532176044627375,41.43374787493959,0.2774705248932449,0.1149664377115386,0.07421875,,
1.6807949999999254,1200,,,,-0.0625,0.08203125,-0.9453125,0.009150368328453704,0.2922368415370818,15.15917469870928,0.16894978951148554,1099,0,2.56113937451477,1.0532128704004016,41.1228252894258,0.277471772089133,0.11410423206368789,0.07421875,,
1.6910499999998136,1200,,,,-0.0625,0.07421875,-0.990234375,0.009150368328453704,0.2922368415370818,15.159083570429932,0.16865684000083292,1099,0,2.556683132297256,1.0528826604845316,41.18158590652121,0.2775587940659938,0.11430311321939152,0.076171875,,
1.698609999999404,1200,,,,0,0.013671875,-1.009765625,0.009150368328453704,0.2922368415370818,15.159138923959759,0.1667455059127216,1098,0,2.5277182890769003,1.0523786890581304,41.63354332663587,0.2776917136155913,0.11561289990262483,0.076171875,,
1.7061150000002234,1200,,,,-0.0625,0.08203125,-1.04296875,0.009150368328453704,0.2922368415370818,15.159181578783299,0.16634642759186788,1098,0,2.5216757008470534,1.0522276303049647,41.72731767021081,0.27773157928991415,0.11588993836079589,0.076171875,,
1.712855000000447,1200,,,,-0.03125,0.02734375,-0.94921875,0.009150368328453704,0.2922368415370818,15.159215813645357,0.16666115213212188,1098,0,2.5264523729216166,1.0521738697138878,41.64629743236136,0.2777457699235092,0.11567082944814669,0.076171875,,
1.7208799999998883,1200,,,,-0.0625,0.0390625,-1.03515625,0.009150368328453704,0.2922368415370818,15.15924960921314,0.16669154913114972,1098,0,2.526918801025514,1.0521494391041482,41.63764338914049,0.27775221910103054,0.11564947849471127,0.076171875,,
1.7281450000004843,1200,,,,-0.0625,0.068359375,-0.962890625,0.009150368328453704,0.2922368415370818,15.15899221391566,0.16608647472112112,1098,0,2.517703577134175,1.0522685653308186,41.79477579837193,0.2777207750620267,0.11607277528267487,0.076171875,,
1.7355849999999629,1200,,,,0,0.015625,-1.001953125,0.009150368328453704,0.2922368415370818,15.159036877745862,0.16614322819434382,1098,0,2.518571323185804,1.0523747558696022,41.78459216864373,0.2776927514719788,0.11603278368445173,0.076171875,,
1.7438150000004098,1200,,,,-0.0625,-0.0390625,-1.00390625,0.009150368328453704,0.2922368415370818,15.159018732480922,0.16535085326450719,1098,0,2.5065566820683687,1.052422819438785,41.98679515080199,0.27768006939731693,0.11658896191245628,0.076171875,,
1.752804999999702,1200,,,,-0.03125,0.0625,-0.982421875,0.009150368328453704,0.2922368415370818,15.159072770415673,0.16510356853665664,1098,0,2.5028170101024894,1.0524428871295255,42.05033300003137,0.27767477467032925,0.11676316740596022,0.076171875,,
1.7603300000000746,1200,,,,-0.03125,0.01953125,-0.927734375,0.009150368328453704,0.2922368415370818,15.159053333727414,0.16583718220602614,1098,0,2.513934689776221,1.052449587838488,41.86463523172005,0.27767300677771684,0.11624679142444047,0.076171875,,
1.7682949999999256,1200,,,,-0.0625,0.046875,-0.97265625,0.009150368328453704,0.2922368415370818,15.159235639176979,0.16569541852354464,1098,0,2.5118158937304633,1.0523197252794818,41.89477930711762,0.2777072732904134,0.11634484926483271,0.076171875,,
1.775714999999851,1200,,,,0,0.037109375,-0.974609375,0.009150368328453704,0.2922368415370818,15.15917707863309,0.16515714193770697,1098,0,2.5036463604346397,1.0522712824682512,42.029549344403975,0.27772005794133137,0.11672448879175919,0.076171875,,
1.7833100000005215,1200,,,,-0.0625,0.0234375,-0.921875,0.009150368328453704,0.2922368415370818,15.159038055294381,0.16525381699497577,1098,0,2.505088900609491,1.052252518749445,42.00459786051628,0.27772501023270746,0.11665727370632643,0.076171875,,
1.7917750000003725,1200,,,,-0.03125,0.033203125,-0.986328125,0.008330390616347686,0.2922368415370818,15.159183791973918,0.16471693076242552,1098,0,2.496974227077451,0.9579507849752529,38.364464261870786,0.3050645671161815,0.11703638682691826,0.076171875,,
1.7998549999995157,1200,,,,-0.0625,0.08984375,-0.962890625,0.008330390616347686,0.2922368415370818,15.158897804908813,0.1644222686836358,1098,0,2.4924603678264936,0.957947699220576,38.4338187112655,0.30506554979447964,0.1172483403585357,0.076171875,,
1.8085349999992177,1200,,,,-0.0625,0.04296875,-0.98046875,0.008330390616347686,0.2922368415370818,15.159031568566949,0.16720534007167917,1098,0,2.534671028579557,0.958198377744515,37.80365842116776,0.30498574024407404,0.11529576747513971,0.07421875,,
1.816839999999851,1200,,,,-0.0625,0.06640625,-1.021484375,0.008330390616347686,0.2922368415370818,15.158947824348246,0.16849825936278096,1098,0,2.5542563221738948,0.9582835717465795,37.517126352103794,0.30495862618665925,0.11441171310808886,0.076171875,,
1.8249399999994784,1200,,,,-0.03125,0.05859375,-0.96484375,0.008330390616347686,0.29340085541851973,15.158901160583575,0.1690845628781189,1099,0,2.5631361764498832,0.9583169925349536,37.3884540876126,0.30616263481085904,0.11446947614968304,0.076171875,,
1.8335650000004098,1200,,,,-0.0625,0.05859375,-0.984375,0.008330390616347686,0.29340085541851973,15.158960525548396,0.16758596933884654,1099,0,2.5404290938433385,0.9583307536030408,37.72318447798955,0.3061582384948194,0.1154926371019639,0.076171875,,
1.8441800000006332,1200,,,,-0.0625,0.025390625,-0.9296875,0.008330390616347686,0.29340085541851973,15.15891266318884,0.1682245171884479,1100,0,2.550100763866791,0.9596449511079547,37.63164831388143,0.3057389663539362,0.11505461257680955,0.076171875,,
1.8519050000002608,1200,,,,-0.0625,0.11328125,-0.978515625,0.008330390616347686,0.29340085541851973,15.15897884403992,0.16797439249184729,1104,0,2.546320262124371,0.9630896723808522,37.82280205308328,0.3046454175894172,0.11522543325863424,0.076171875,,
1.8602199999997393,1200,,,,-0.0625,0.041015625,-0.93359375,0.008330390616347686,0.29340085541851973,15.159034257963118,0.16794146844576405,1105,0,2.5458304735019692,0.9641596441838421,37.8721071265037,0.3043073387155532,0.11524760131216677,0.076171875,,
1.8684950000001117,1200,,,,0,0.0234375,-0.98046875,0.008330390616347686,0.29340085541851973,15.159136514449074,0.16772309753212425,1106,0,2.542537332115728,0.9645088046195461,37.934892535754706,0.3041971768565168,0.11539687213731935,0.07421875,,
1.875,1200,,,,-0.0625,0.068359375,-1.001953125,0.008330390616347686,0.29340085541851973,15.159371136146131,0.16707785237820216,1106,0,2.532795172831402,0.9646646411819003,38.08695829530918,0.3041480353825834,0.11584073539216674,0.076171875,,
1.882640000000596,1200,,,,-0.03125,0.021484375,-0.939453125,0.008330390616347686,0.29340085541851973,15.159484975237811,0.16652667181991052,1105,0,2.5244585794302914,0.9638245311020175,38.1794551495287,0.30441314362797045,0.11622327964071137,0.076171875,,
1.8909449999993666,1200,,,,-0.0625,0.04296875,-0.94140625,0.008330390616347686,0.29340085541851973,15.15937969394635,0.16656784350626214,1104,0,2.525065184513264,0.9634331477049971,38.15478323545577,0.30453680789106397,0.1161953589230118,0.07421875,,
1.8998600000003352,1200,,,,-0.0625,0.095703125,-0.95703125,0.008330390616347686,0.29340085541851973,15.159303419971996,0.16661204111144046,1104,0,2.525722484629174,0.9632688162529934,38.13834742792102,0.30458876117241684,0.11616511996233694,0.076171875,,
1.9079500000001863,1200,,,,-0.0625,-0.0234375,-0.95703125,0.008330390616347686,0.29340085541851973,15.159141957291668,0.16643664480924492,1104,0,2.523036725558675,0.963213759665205,38.17676333870728,0.30460617124126255,0.11628877710987424,0.076171875,,
1.9158199999993668,1200,,,,-0.0625,0.083984375,-1.01953125,0.008330390616347686,0.29340085541851973,15.159118635050575,0.16605563717207336,1104,0,2.5172571039103744,0.9631919229878864,38.26354969826635,0.30461307701623,0.11655577611152354,0.076171875,,
1.9238799999998883,1200,,,,-0.0625,0.06640625,-1.001953125,0.008330390616347686,0.29340085541851973,15.159161740961911,0.16611972496892036,1102,0,2.5182357791679726,0.9613297298645594,38.17473081024143,0.30520314342078714,0.11651047842528059,0.076171875,,
1.9319399999994784,1200,,,,0,0.04296875,-0.91015625,0.008330390616347686,0.29340085541851973,15.159006450528189,0.16660721671128997,1101,0,2.5255998728309925,0.9605907730266774,38.03416302638363,0.30543792805135705,0.11617075949946147,0.076171875,,
1.9431150000002235,1200,,,,-0.03125,0.029296875,-0.99609375,0.007994272785117853,0.29340085541851973,15.159061606604286,0.168093889659404,1101,0,2.5481456290406483,0.9215356450681725,36.16495205633603,0.3183825357041016,0.11514289139313527,0.076171875,,
1.950890000000596,1200,,,,-0.09375,0.0703125,-0.97265625,0.007994272785117853,0.29340085541851973,15.159057934343934,0.16941800831911238,1101,0,2.5682174032305873,0.9214259777743073,35.87803651728378,0.318420429308088,0.1142429979056476,0.078125,,
1.9588449999997393,1200,,,,-0.03125,0.021484375,-0.962890625,0.007994272785117853,0.29340085541851973,15.159104231536121,0.16899762977951724,1102,0,2.5618526847102547,0.9222850035605202,36.00070406331075,0.31812384922863685,0.11452682551561442,0.078125,,
1.9663999999994413,1200,,,,0,0.06640625,-1.0390625,0.007994272785117853,0.29340085541851973,15.159148416000335,0.1687035614739415,1103,0,2.5574023266913155,0.923517003454846,36.11152589548405,0.3176994622956773,0.11472612359671709,0.078125,,
1.97375,1200,,,,-0.0625,0.005859375,-0.951171875,0.007994272785117853,0.2951087350503943,15.159012591357316,0.16864586730119044,1104,0,2.556504825899121,0.923967012238911,36.14180590932202,0.3193931505577255,0.1154344525622418,0.078125,,
1.9817949999999256,1200,,,,-0.03125,0.072265625,-0.943359375,0.007994272785117853,0.2951087350503943,15.15876607205336,0.16794287131669716,1104,0,2.5458066997587725,0.9241781066979698,36.301974803724896,0.31932019695294367,0.11591953744106231,0.078125,,
1.98975,1200,,,,-0.125,0.0546875,-0.94921875,0.007994272785117853,0.2951087350503943,15.158892472443332,0.1674872615112872,1104,0,2.5389213877535997,0.9242612019861339,36.403695145673915,0.31929148861408296,0.1162339001411549,0.078125,,
2.0002250000005586,1200,,,,-0.0625,0.04296875,-0.984375,0.007994272785117853,0.2951087350503943,15.158946199149261,0.16748144144064891,1104,0,2.5388421601547644,0.9245614559310452,36.41665757885024,0.31918779780108403,0.11623752735869364,0.078125,,
2.0150999999996273,1200,,,,-0.03125,0.009765625,-1.02734375,0.007994272785117853,0.2951087350503943,15.158662970729017,0.16717217739958787,1106,0,2.534106695283275,0.925507823202216,36.5220542972741,0.3188614160270749,0.11645473949446536,0.078125,,
2.0234750000005586,1200,,,,-0.0625,-0.03515625,-0.94140625,0.007994272785117853,0.2951087350503943,15.158728821404939,0.16782268861322955,1106,0,2.543978626767029,0.92559434213053,36.38373107351163,0.31883161080167577,0.11600283585142698,0.078125,,
2.03105999999959,1200,,,,-0.0625,0.12109375,-0.98828125,0.007994272785117853,0.2951087350503943,15.158661139407764,0.16674796292881744,1106,0,2.5276758657244716,0.9256281182172532,36.61973161863274,0.31881997666489387,0.11675101980127167,0.078125,,
2.0379850000003352,1200,,,,-0.03125,0.0625,-0.95703125,0.007994272785117853,0.2951087350503943,15.158547216730764,0.16733233124438354,1105,0,2.5365150440536204,0.924678126530754,36.454667544688405,0.3191475245095237,0.11634416903704982,0.078125,,
2.0451399999996647,1200,,,,-0.03125,0.01953125,-0.998046875,0.007994272785117853,0.2951087350503943,15.158784329023254,0.16648535146151636,1103,0,2.5237155367467627,0.9237721363138061,36.60365531943469,0.31946052868404085,0.11693423080115008,0.078125,,
2.0535299999993293,1200,,,,-0.0625,0.08984375,-0.9765625,0.007994272785117853,0.2951087350503943,15.158748698288527,0.16563655875462346,1103,0,2.5108429694106396,0.9233690350818633,36.77526019473063,0.3195999907276843,0.11753372817244084,0.078125,,
2.0618349999999626,1200,,,,0,-0.029296875,-0.98046875,0.007994272785117853,0.2951087350503943,15.15867326675561,0.16549745862943727,1103,0,2.5087219018420432,0.9231854052097519,36.79903318625703,0.3196635620375132,0.11763310027855581,0.078125,,
2.0733849999997767,1200,,,,0,0.01171875,-1.0390625,0.007994272785117853,0.2951087350503943,15.158672852141573,0.1656334058899186,1103,0,2.510782613271255,0.9231081521433435,36.76575372412038,0.3196903140387052,0.11753655353933738,0.078125,,
2.081289999999106,1200,,,,-0.041015625,0.05078125,-0.9609375,0.007994272785117853,0.2951087350503943,15.15854389616251,0.1672892819648053,1102,0,2.5358619240210083,0.922620324955803,36.38290855729413,0.31985934741306626,0.11637413388125364,0.078125,,
2.0891450000004843,1200,,,,-0.0625,0.015625,-0.97265625,0.008578859130301163,0.2951087350503943,15.158431291698411,0.16786894795828633,1102,0,2.54462991363538,0.9897279368406637,38.894769394056645,0.2981715722731022,0.11597314543425605,0.078125,,
2.097019999999553,1200,,,,-0.03125,0.046875,-0.97265625,0.008578859130301163,0.2951087350503943,15.158214822709493,0.16752609785683376,1102,0,2.5393965797241385,0.9895654531287836,38.968527445850256,0.2982205311607502,0.11621214953453736,0.078125,,
2.105035000000149,1200,,,,0,0.04296875,-0.94921875,0.008578859130301163,0.2951087350503943,15.158301878905256,0.16836460739168063,1101,0,2.5521215445664582,0.9895012265383342,38.77171244625913,0.29823988807250007,0.1156327118035148,0.078125,,
2.112725000000559,1200,,,,-0.03125,0.015625,-0.982421875,0.008578859130301163,0.2951087350503943,15.158188835589536,0.16831560229830755,1101,0,2.551359683613734,0.9894345859273825,38.780678094197675,0.29825997518956066,0.11566724086209736,0.078125,,
2.121129999999888,1200,,,,-0.03125,0.041015625,-0.990234375,0.008578859130301163,0.29581590737287855,15.158278078229067,0.16762759117580095,1101,0,2.5409456406264876,0.9893260141005896,38.93534746601917,0.29900750931108283,0.11641961269975973,0.076171875,,
2.1293300000000746,1200,,,,-0.03125,0.048828125,-0.935546875,0.008578859130301163,0.29581590737287855,15.158362668370632,0.16569673562212103,1101,0,2.5116912115252377,0.989283400410987,39.38714265000113,0.2990203891523754,0.1177755872280346,0.076171875,,
2.1368500000005586,1200,,,,-0.0625,0.015625,-0.91796875,0.008578859130301163,0.29581590737287855,15.158117880097805,0.1651441477569214,1101,0,2.503274458907704,0.989266682597359,39.518906090266356,0.2990254423571631,0.11817158375113086,0.076171875,,
2.14531500000041,1200,,,,-0.03125,0.068359375,-1.046875,0.008578859130301163,0.29581590737287855,15.158210729831264,0.1655745480863987,1101,0,2.5098138913902117,0.9892600050515568,39.415671753398236,0.29902746079122206,0.11786368239798971,0.078125,,
2.1545750000001864,1200,,,,-0.125,0.1015625,-0.9609375,0.008578859130301163,0.29581590737287855,15.15823344790017,0.1656637488777542,1101,0,2.511169779343308,0.9892987224957187,39.39593135572174,0.29901575797714497,0.11780004275546709,0.078125,,
2.172149999999441,1200,,,,-0.0625,0.03125,-0.927734375,0.008578859130301163,0.29581590737287855,15.158048713027929,0.16420108440034362,1101,0,2.488968036072419,0.9893503917570852,39.74942134324376,0.29900014174706074,0.11885082615993525,0.078125,,
2.181219999999739,1200,,,,-0.0625,0.076171875,-0.927734375,0.008578859130301163,0.29581590737287855,15.158375325528201,0.16366000208100484,1101,0,2.480819737320598,0.9893548337875808,39.880158114838714,0.29899879928861967,0.11924119391777076,0.078125,,
2.189074999999255,1200,,,,-0.03125,0.017578125,-0.95703125,0.008578859130301163,0.29581590737287855,15.158517866327582,0.164047702978849,1101,0,2.4867200365348827,0.9893563248231014,39.78559348408673,0.29899834867460007,0.1189582675278086,0.078125,,
2.196160000000149,1200,,,,-0.125,0.046875,-0.98828125,0.008578859130301163,0.29581590737287855,15.158654297312331,0.16462869345625933,1100,0,2.49554945152164,0.9886239696739335,39.61548303805915,0.2992198413623777,0.11853738550142025,0.078125,,
2.2037050000000744,1200,,,,0,0.1015625,-1.0234375,0.008578859130301163,0.29581590737287855,15.158713601989795,0.1670448819658624,1100,0,2.5321855243986984,0.9883468437655636,39.03137563351563,0.2993037406239203,0.11682236728808565,0.078125,,
2.211165000000037,1200,,,,-0.0625,0.03125,-0.93359375,0.008578859130301163,0.29581590737287855,15.158592056196394,0.1693923190562053,1100,0,2.5677490620260786,0.9882268590260975,38.48611508191298,0.29934008033783516,0.11520436780510998,0.078125,,
2.21894000000041,1200,,,,-0.0625,0.041015625,-1.00390625,0.008578859130301163,0.29581590737287855,15.158659924784349,0.17023518232962315,1100,0,2.580537236168415,0.988173869435502,38.29333890576769,0.2993561320760935,0.11463345819109604,0.078125,,
2.227234999999404,1200,,,,-0.125,0.11328125,-0.984375,0.008578859130301163,0.29581590737287855,15.158857413756554,0.1707355324547196,1100,0,2.5881555919428987,0.9881524034873151,38.1797912986182,0.2993626350843318,0.11429602930124187,0.078125,,
2.23506500000041,1200,,,,-0.03125,0.072265625,-0.939453125,0.008578859130301163,0.29581590737287855,15.15871929363475,0.17088756491746837,1104,0,2.590436627356689,0.9921332604384161,38.2998468273976,0.2981614659729881,0.11419538476597764,0.078125,,
2.243394999999553,1200,,,,-0.0625,0.0390625,-0.95703125,0.00947314699180254,0.29581590737287855,15.158783136812806,0.16984789782485518,1106,0,2.5746874493705194,1.097338438822594,42.62025820224821,0.269575818095171,0.11489390972298483,0.078125,,
2.2523250000001864,1200,,,,-0.0625,0.046875,-1.01171875,0.00947314699180254,0.29581590737287855,15.15884890954495,0.1704172280968302,1107,0,2.5833290123033072,1.0980615585888722,42.50567981698297,0.2693982910694314,0.11450957503439634,0.078125,,
2.2600300000002607,1200,,,,-0.03125,0.091796875,-1.01171875,0.00947314699180254,0.29581590737287855,15.158905848606906,0.17155372621731527,1107,0,2.6005667837059683,1.0983130404650472,42.23360258796674,0.26933660666327364,0.11375055208208212,0.078125,,
2.268165000000037,1200,,,,-0.0625,-0.01953125,-0.88671875,0.00947314699180254,0.29581590737287855,15.158762003703153,0.17005681221788121,1107,0,2.5778507435192997,1.0984117053253728,42.60959282017288,0.26931241349549495,0.11475292280461072,0.078125,,
2.27606500000041,1200,,,,-0.0625,0.06640625,-0.96484375,0.00947314699180254,0.3009173886833739,15.15872531576314,0.16961303565711278,1107,0,2.5711174174989115,1.0986542721875774,42.73061450675822,0.2738963441922494,0.11703759098489376,0.080078125,,
2.284214999999851,1200,,,,-0.0625,0.0703125,-0.95703125,0.00947314699180254,0.3009173886833739,15.158591014359567,0.16950242407468094,1108,0,2.5694179224906235,1.0987523404053192,42.76269464720872,0.2738718978039841,0.11711500338243322,0.080078125,,
2.2922099999999626,1200,,,,-0.0625,0.02734375,-0.962890625,0.00947314699180254,0.3009173886833739,15.158464306402152,0.1700349859638211,1108,0,2.5774692655721734,1.098790756877366,42.63060559263139,0.2738623225577049,0.11674916659639516,0.080078125,,
2.301340000000782,1200,,,,0,0.0234375,-1.0546875,0.00947314699180254,0.3009173886833739,15.15834468022823,0.1707490072761505,1108,0,2.588272306098687,1.0988058824980769,42.453256556853994,0.27385855270382625,0.11626187398224257,0.080078125,,
2.3163500000005586,1200,,,,-0.03125,0.046875,-1.00390625,0.00947314699180254,0.3009173886833739,15.158319627616008,0.17121409767474038,1107,0,2.5953180173075814,1.0980753231009628,42.30985627881246,0.2740407532641602,0.11594624885144124,0.080078125,,
2.3243800000008195,1200,,,,-0.041015625,0.078125,-0.99609375,0.00947314699180254,0.3009173886833739,15.158445039827406,0.17165562295380715,1106,0,2.6020323263226213,1.0971273519681901,42.1642475717713,0.27427753773848,0.11564706004581118,0.080078125,,
2.3330950000006707,1200,,,,-0.0625,0.03515625,-0.970703125,0.00947314699180254,0.3009173886833739,15.15842136851499,0.16934490999281485,1106,0,2.567001502284332,1.0969046401744313,42.73096993509019,0.27433322611847244,0.11722524837464743,0.080078125,,
2.341285000000149,1200,,,,-0.03125,0.052734375,-0.966796875,0.00947314699180254,0.3009173886833739,15.15836789464924,0.1681793779329045,1106,0,2.5493248830002204,1.0968259864439702,43.02417450823883,0.2743528986388999,0.11803806987881188,0.080078125,,
2.3490499999998136,1200,,,,-0.0625,0.046875,-0.97265625,0.00947314699180254,0.3009173886833739,15.158350062811481,0.16624286225008408,1106,0,2.5199675014305223,1.097272914877401,43.54313753072239,0.27424115240919406,0.11941320215937336,0.078125,,
2.3582750000003725,1200,,,,-0.03125,0.00390625,-0.97265625,0.00947314699180254,0.3009173886833739,15.158441383616905,0.1667855711365737,1106,0,2.52820930370682,1.0974626850810334,43.40869577024146,0.27419373138974207,0.11902392268004618,0.078125,,
2.3671699999999256,1200,,,,-0.03125,0.05078125,-0.953125,0.00947314699180254,0.3009173886833739,15.158307831478808,0.16586726530039084,1106,0,2.5142670665888875,1.0975299222531962,43.652082025726,0.27417693365990375,0.11968393997684156,0.078125,,
2.3753300000000745,1200,,,,-0.0625,0.0546875,-0.9765625,0.00947314699180254,0.3009173886833739,15.158193944856611,0.1657271196119561,1106,0,2.5121238210004804,1.097552873482589,43.6902378898456,0.2741712002707882,0.11978604962375235,0.078125,,
2.384165000000037,1200,,,,-0.0625,0.029296875,-0.98828125,0.00947314699180254,0.3009173886833739,15.158072763630052,0.16461849357968708,1106,0,2.4952991039200634,1.097562413609748,43.98520449454336,0.2741688171460734,0.12059371488197103,0.078125,,
2.3929650000007823,1200,,,,-0.03125,0.095703125,-0.986328125,0.008930951998779484,0.3009173886833739,15.15817805225102,0.16263434794328946,1104,0,2.4652404035361264,1.0324307417145924,41.879515694845814,0.2914649637259254,0.12206411522857559,0.078125,,
2.400035000000149,1200,,,,-0.125,0.0546875,-0.96875,0.008930951998779484,0.3009173886833739,15.158257128283807,0.16246320402272618,1103,0,2.4626590204613157,1.0316942505377917,41.89350786957629,0.29167303057714494,0.12219206401826786,0.078125,,
2.408109999999404,1200,,,,-0.03125,0.021484375,-0.986328125,0.008930951998779484,0.3009173886833739,15.158342278547275,0.16333854297176903,1103,0,2.4759415416452772,1.0313523286380228,41.654954743102834,0.2917697282758431,0.12153654826737653,0.078125,,
2.4161850000005214,1200,,,,-0.0625,0.0859375,-0.94921875,0.008930951998779484,0.3009173886833739,15.158292304213127,0.1650446251919607,1103,0,2.501794671899038,1.0312158832278109,41.219045464072614,0.29180833381025106,0.12028060978120017,0.078125,,
2.4248799999998885,1200,,,,-0.0625,0.080078125,-0.98046875,0.008930951998779484,0.292756938239843,15.158276471201727,0.1651709076618133,1102,0,2.5037062833370975,1.0307770276409314,41.17004596350043,0.28401577682600837,0.11692942586286044,0.078125,,
2.4338499999996275,1200,,,,-0.03125,0.009765625,-0.98828125,0.008930951998779484,0.292756938239843,15.158295382873744,0.16485735525476317,1101,0,2.498956486991053,1.0299059657305836,41.21344133409358,0.2842559883922706,0.11715167501469631,0.078125,,
2.4414300000006333,1200,,,,-0.03125,0.05859375,-1.015625,0.008930951998779484,0.292756938239843,15.158315828891661,0.16451836364543668,1101,0,2.4938213157899773,1.029534898629179,41.28342684820822,0.2843584405245976,0.11739290878067794,0.078125,,
2.4492750000003727,1200,,,,-0.0625,0.04296875,-1.03125,0.008930951998779484,0.292756938239843,15.158301998173203,0.16407188073347254,1101,0,2.487051117566232,1.0294168397624495,41.39106078245033,0.2843910522266182,0.11771247328696961,0.078125,,
2.457300000000745,1200,,,,-0.03125,0.015625,-0.974609375,0.008930951998779484,0.292756938239843,15.158253587934722,0.16358504594462092,1101,0,2.4796636096225164,1.0293622360500079,41.51217254048058,0.2844061380794821,0.11806316675527206,0.078125,,
2.46743499999959,1200,,,,-0.0625,0.05859375,-0.9296875,0.008930951998779484,0.292756938239843,15.158241454251714,0.16376669218334677,1100,0,2.482415062279287,1.0285832241626167,41.43478017806576,0.2846215370449779,0.11793230821401858,0.078125,,
2.48368499999959,1200,,,,-0.0625,0.03125,-0.9453125,0.008930951998779484,0.292756938239843,15.158017401045248,0.1635473311515129,1099,0,2.479053291489142,1.0275722555529117,41.45018822631519,0.28490155963029345,0.11809223272646427,0.078125,,
2.491929999999702,1200,,,,-0.03125,0.04296875,-0.974609375,0.008930951998779484,0.292756938239843,15.157703122468678,0.16374696415452736,1099,0,2.482027869859846,1.0274819860442033,41.396875454997314,0.28492658967867135,0.1179507054674508,0.078125,,
2.499280000000261,1200,,,,0,0.0078125,-1.01171875,0.008930951998779484,0.292756938239843,15.15780128337042,0.16390162701145194,1099,0,2.484388292260686,1.0274516842499744,41.35632451057148,0.28493499278611,0.1178386402607971,0.078125,,
2.5073800000008197,1200,,,,-0.0625,0.06640625,-0.98828125,0.008930951998779484,0.292756938239843,15.157911319978826,0.1637493004807084,1099,0,2.4820973753951443,1.0273727511633088,41.39131531855205,0.2849568843521985,0.11794740252414021,0.078125,,
2.515379999999888,1200,,,,-0.03125,0.013671875,-0.927734375,0.008930951998779484,0.292756938239843,15.15788292408581,0.1647794244536269,1098,0,2.497707224166319,1.0273423813139906,41.13141730039619,0.2849653081238616,0.11721027004578528,0.078125,,
2.5231550000002607,1200,,,,-0.03125,0.021484375,-0.970703125,0.008930951998779484,0.292756938239843,15.157987359862028,0.16362287668284128,1098,0,2.4801934965427717,1.0273303954505748,41.42138090768348,0.28496863281402607,0.1180379428653156,0.078125,,
2.531660000000149,1200,,,,-0.0625,0.11328125,-0.9609375,0.008930951998779484,0.292756938239843,15.157819364210704,0.16447109518440056,1098,0,2.493023151439049,1.0273256244916342,41.20802584198348,0.28496995622465077,0.1174304932029431,0.078125,,
2.5402250000005586,1200,,,,-0.0625,0.0546875,-0.947265625,0.008201481184889331,0.292756938239843,15.157933759309792,0.16428145194689367,1098,0,2.4901673664942487,0.9434130266623288,37.88552686683471,0.3103168283308304,0.11756516536958608,0.078125,,
2.5478700000001115,1200,,,,0,0.01953125,-0.953125,0.008201481184889331,0.292756938239843,15.158021818444512,0.1636732999406267,1099,0,2.4809634515968324,0.943574924964665,38.03260077682113,0.31026358426259176,0.11800131035844752,0.078125,,
2.5563100000005217,1200,,,,-0.0625,0.0625,-0.966796875,0.008201481184889331,0.292756938239843,15.157911168275227,0.16280608474785216,1099,0,2.4678001702626315,0.9436564953770284,38.23877260194051,0.31023676483345236,0.1186307310322808,0.078125,,
2.5634550000000744,1200,,,,-0.0625,0.037109375,-0.9609375,0.008201481184889331,0.292756938239843,15.157948128600866,0.16366467878196309,1099,0,2.4808207114611194,0.9436841554602308,38.039192074643424,0.3102276715635505,0.11800809985475295,0.078125,,
2.5715049999998882,1200,,,,0,0.01171875,-0.98828125,0.008201481184889331,0.299479652628272,15.157853570626608,0.16384460246367993,1099,0,2.483532492481988,0.9436950603135801,37.998095985064886,0.3173479074148782,0.12058616246610028,0.076171875,,
2.579449999999255,1200,,,,-0.0625,0.0625,-0.96484375,0.008201481184889331,0.299479652628272,15.157827934962825,0.16337594580638357,1099,0,2.4764244752449733,0.9436994396308145,38.107337779298184,0.31734643473501656,0.12093227781503282,0.076171875,,
2.5864150000000374,1200,,,,-0.0625,0.06640625,-0.978515625,0.008201481184889331,0.299479652628272,15.157747913192113,0.16412113091152705,1099,0,2.4877067295849287,0.9437010461633835,37.9345778560015,0.3173458944925477,0.12038382541909987,0.076171875,,
2.5939550000000744,1200,,,,-0.0625,0.04296875,-0.9765625,0.008201481184889331,0.299479652628272,15.157758806855478,0.1625780725074975,1099,0,2.4643192103521088,0.9437017325718083,38.29462224729278,0.3173456636686676,0.12152632312008048,0.076171875,,
2.60255999999959,1200,,,,-0.0625,0.015625,-0.94140625,0.008201481184889331,0.299479652628272,15.157606893969094,0.1630266230460447,1099,0,2.471093465383228,0.9437020552485496,38.189654437137854,0.31734555515977536,0.12119317088713491,0.076171875,,
2.6102599999997764,1200,,,,-0.03125,0.021484375,-0.953125,0.008201481184889331,0.299479652628272,15.157723797680312,0.16323859011060132,1099,0,2.4743254620192436,0.9437021819413095,38.13977572583255,0.31734551255588506,0.12103486676480833,0.076171875,,
2.621125,1200,,,,0,0.00390625,-1.02734375,0.008201481184889331,0.299479652628272,15.15790214743519,0.16365696291188767,1099,0,2.480696229564823,0.9437022324022891,38.04182959426025,0.3173454955870098,0.12072403265627096,0.076171875,,
2.6362599999997767,1200,,,,-0.0625,0.046875,-0.96484375,0.008201481184889331,0.299479652628272,15.158075487602032,0.16286611533527984,1098,0,2.468736870624671,0.9432830857049005,38.209138322069094,0.3174865076738608,0.12130885887101198,0.076171875,,
2.644370000000112,1200,,,,-0.03125,0.046875,-1.048828125,0.008201481184889331,0.299479652628272,15.15797438817036,0.16340253415821385,1098,0,2.476851427732338,0.9432441752170249,38.0823881745949,0.3174996045529427,0.12091143185865542,0.076171875,,
2.6523250000001863,1200,,,,-0.03125,0.076171875,-0.984375,0.008201481184889331,0.299479652628272,15.15807461610587,0.1648866705630623,1098,0,2.4993644555961656,0.9432285985715051,37.73873780030691,0.3175048477981118,0.1198223220137929,0.076171875,,
2.6597699999995528,1200,,,,-0.0625,0.05078125,-1.0390625,0.008201481184889331,0.299479652628272,15.158233494206,0.16500758209918698,1099,0,2.5012234577738424,0.9437480012739692,37.731454914225495,0.3173301053077762,0.11973326561346785,0.076171875,,
2.6683100000005213,1200,,,,-0.03125,0.01171875,-0.96484375,0.008201481184889331,0.299479652628272,15.158309634055957,0.16454827136319333,1099,0,2.4942736470719473,0.9439403870840221,37.84429940925379,0.31726542981534134,0.12006687918137375,0.076171875,,
2.6896299999998883,1200,,,,-0.03125,0.0234375,-0.966796875,0.008823904556247176,0.299479652628272,15.158722611917328,0.16531415637598634,1099,0,2.5059514403267014,1.0157232692123168,40.532440208813334,0.2948437450492942,0.1195073646715312,0.076171875,,
2.697354999999516,1200,,,,-0.03125,0.044921875,-0.97265625,0.008823904556247176,0.299479652628272,15.158691998036165,0.16429653165673072,1099,0,2.4905205197299796,1.0159060695999964,40.79091344768925,0.29479069137384845,0.12024781577015127,0.076171875,,
2.704209999999963,1200,,,,0,-0.046875,-0.8984375,0.008823904556247176,0.299479652628272,15.158574854711587,0.1638633710527197,1100,0,2.4839351760480315,1.0161654929656134,40.909501293119256,0.2947154323792869,0.12056661362022637,0.076171875,,
2.712209999999963,1200,,,,-0.03125,0.046875,-0.99609375,0.008823904556247176,0.299479652628272,15.158644148460382,0.16276814637206133,1100,0,2.4673444095585904,1.0162848462099046,41.18941977750559,0.29468082078084745,0.12137732027522218,0.076171875,,
2.720660000000149,1200,,,,-0.0625,0.0859375,-0.9765625,0.008823904556247176,0.29217709804823,15.158711330508952,0.16342536211047673,1100,0,2.477317888316612,1.0163327441981578,41.02552801121444,0.2874817324504732,0.11794089867359345,0.076171875,,
2.7282350000003355,1200,,,,-0.0625,0.068359375,-0.91015625,0.008823904556247176,0.29217709804823,15.158773799624775,0.1645632307899405,1100,0,2.494576791280155,1.0163512943857704,40.74243366403662,0.28747648540636395,0.11712491636639173,0.076171875,,
2.735605000000447,1200,,,,0,0.015625,-1.015625,0.008823904556247176,0.29217709804823,15.158769187646925,0.16430828785724005,1100,0,2.490711411245352,1.0160634446201406,40.79410565321618,0.2875579272094191,0.11730668464000889,0.076171875,,0.3211599999992177,6614,
2.7425200000004843,1200,,,,-0.09375,0.048828125,-1,0.008823904556247176,0.29217709804823,15.158539056341814,0.16634133253584488,1099,0,2.521491585928546,1.015617746752815,40.2784507559168,0.28768412031238483,0.11587470673261636,0.076171875,,
2.7512800000002606,1500,,,,-0.03125,0.0390625,-0.9609375,0.008823904556247176,0.29217709804823,15.158314070617475,0.16865309695853126,1099,0,2.5564966126797177,1.015437221849696,39.71987354934594,0.2877352649295318,0.11428808338688554,0.076171875,,
2.758,1500,,,,-0.0625,0.0859375,-0.9765625,0.008823904556247176,0.29217709804823,15.158329044963375,0.16915020022615282,1099,0,2.5640343930494627,1.0153725897020514,39.60058384764669,0.2877535803226339,0.11395209785027,0.076171875,,
2.7661699999999256,1500,,,,-0.03125,0.005859375,-0.9765625,0.008823904556247176,0.29217709804823,15.158312738618267,0.16712141878451495,1099,0,2.5332787312572713,1.015341327571339,40.080126795499645,0.2877624401905391,0.1153355508981919,0.076171875,,
2.777370000000112,1500,,,,-0.0625,0.15234375,-1,0.008823904556247176,0.29217709804823,15.158396886240373,0.2955101365674201,1101,0,4.479459933996048,1.0177000426286715,22.71925762534501,0.2870954955386955,0.06522596526219712,0.076171875,,
2.7857000000001864,1500,,,,0.0625,-0.01171875,-0.982421875,0.008823904556247176,0.29217709804823,15.139801990738114,0.8574083277087877,1105,0,12.98099230672094,1.0214447843677317,7.868772742734591,0.28604296827369474,0.022508071120029446,0.08203125,,
2.8049900000002235,1500,,,,0,-0.00390625,-0.92578125,0.008823904556247176,0.29217709804823,15.118511920176347,1.4156884157243173,1255,0,21.40310218838366,1.1594002813700122,5.416973068508107,0.25200709603328475,0.013651156522852398,0.087890625,,
2.8131500000003724,1500,,,,-0.125,0.015625,-1.03515625,0.008823904556247176,0.29217709804823,15.11261348662191,1.5631547177495135,1435,0,23.623353069137963,1.3263675417615195,5.614645549595216,0.22028366108853664,0.012368146773792929,0.08984375,,
2.821445000000298,1500,,,,0.03125,0.25390625,-1.03515625,0.008823904556247176,0.29217709804823,15.108335107398352,1.6575042181927033,1501,0,25.042129170381678,1.386992252276943,5.53863548438762,0.21065517674563805,0.011667422368933368,0.091796875,,
2.829375,1500,,,,0.03125,0.00390625,-0.88671875,0.008823904556247176,0.29217709804823,15.105464453859948,1.725179287475829,1818,0,26.059634403501565,1.6803071124526734,6.4479304906399415,0.17388315259925993,0.011211864814533658,0.095703125,,
2.8373400000007822,1500,,,,0,-0.15625,-1.26953125,0.008823904556247176,0.29217709804823,15.103169662714825,1.7850396323901958,1951,0,26.95975642265923,1.8026620998562577,6.686492532036195,0.1620809013910748,0.010837527367371168,0.099609375,,
2.8444249999998137,1500,,,,-0.0625,0.10546875,-1.30078125,0.009699092779867276,0.29217709804823,15.101678817083695,1.814852894181439,2081,0,27.407325508182875,2.113399200060883,7.711074177704408,0.13824983847813177,0.010660547595605273,0.1015625,,
2.8520400000000374,1500,,,,0,-0.146484375,-0.869140625,0.009699092779867276,0.29217709804823,15.10053031848419,1.835835924526482,2188,0,27.722096038074593,2.2221019984392205,8.015634876191541,0.13148680765034726,0.010539502411612122,0.103515625,,
2.862819999999367,1500,,,,0.03125,0.03515625,-0.994140625,0.009699092779867276,0.29217709804823,15.099626365952453,1.8592046845573675,2314,0,28.07329607464474,2.3507427667032026,8.373590192091294,0.12429139512273968,0.010407652071611168,0.107421875,,
2.870605000000447,1500,,,,-0.09375,0.15234375,-1.025390625,0.009699092779867276,0.29964284922479373,15.099377415412164,1.8621243164587487,2377,0,28.116917848627043,2.414418642487444,8.587067243593134,0.12410558962388063,0.010657030434060374,0.109375,,
2.878375,1500,,,,-0.0625,-0.10546875,-0.94140625,0.009699092779867276,0.29964284922479373,15.099021160976445,1.8683101089669854,2446,0,28.20965387055872,2.4839177087171493,8.805204488203644,0.12063316275463411,0.01062199666113305,0.111328125,,
2.8865400000000374,1500,,,,0.125,0.15625,-1.01953125,0.009699092779867276,0.29964284922479373,15.098608242907613,1.8729476473337197,2494,0,28.27890278656732,2.5327325496215107,8.956261735955955,0.11830812900855721,0.010595985688918815,0.111328125,,
2.894339999999851,1500,,,,-0.09375,0.171875,-1.005859375,0.009699092779867276,0.29964284922479373,15.098480515821286,1.8710415291542926,2540,0,28.24988407222855,2.5803117177449226,9.13388427063152,0.11612660872100686,0.010606870047985856,0.11328125,,
2.9024000000003727,1500,,,,0.0625,-0.1796875,-0.82421875,0.009699092779867276,0.29964284922479373,15.098818485581834,1.8507034011879269,2573,0,27.943434725185444,2.613482986801439,9.352762151482775,0.11465268790271228,0.010723193199822546,0.115234375,,
2.910640000000596,1500,,,,-0.09375,0.08984375,-1.009765625,0.009699092779867276,0.29964284922479373,15.099265520040472,1.8296066367845527,2595,0,27.625716406038208,2.6357066989702096,9.540772301543347,0.11368596109038477,0.010846518686454778,0.115234375,,
2.918290000000037,1500,,,,0,0.125,-1.0390625,0.009699092779867276,0.29964284922479373,15.099994886661348,1.8102703386311187,2623,0,27.3350728568046,2.6639544137167577,9.745554466497833,0.11248047176855817,0.010961845640378557,0.115234375,,
2.927285000000149,1500,,,,-0.0625,-0.11328125,-0.93359375,0.009699092779867276,0.29964284922479373,15.100555701467409,1.7976562990322513,2636,0,27.145609075630265,2.6772513443946124,9.862557649509847,0.11192182230187649,0.011038354246904539,0.115234375,,
2.934,1500,,,,-0.09375,0.177734375,-1.001953125,0.009699092779867276,0.29964284922479373,15.101328817550167,1.778615056999344,2653,0,26.859450815592826,2.694183531581912,10.030672444046573,0.11121842506729895,0.011155955915928141,0.1171875,,
2.9423899999996648,1500,,,,0.125,0.0625,-0.91796875,0.009699092779867276,0.29964284922479373,15.101816756208004,1.7543423112655832,2665,0,26.49375611239526,2.7064371378594916,10.215377262393039,0.11071487493028559,0.011309942159715286,0.1171875,,
2.950125,1500,,,,-0.03125,-0.00390625,-0.9296875,0.009699092779867276,0.29964284922479373,15.102768711263453,1.7285214839356335,2677,0,26.105460184329758,2.719146929194669,10.416008413545926,0.11019737330396452,0.011478167674847555,0.1171875,,
2.9586799999997018,1500,,,,-0.0625,0.1328125,-1.017578125,0.009699092779867276,0.29964284922479373,15.103626633848863,1.7037520649682991,2684,0,25.732835065930203,2.7262791534500854,10.594554181321545,0.10990908573892662,0.011644377638805733,0.1171875,,
2.9662599999997763,1500,,,,0,0.00390625,-0.9375,0.009699092779867276,0.29964284922479373,15.104226123122737,1.6806119798201509,2689,0,25.384343368432546,2.7314955904643674,10.76055248236675,0.10969918833874193,0.011804238733920669,0.1171875,,
2.9743849999997765,1500,,,,0,0.068359375,-0.966796875,0.009699092779867276,0.29964284922479373,15.105095185510894,1.657554840035175,2693,0,25.037523633935603,2.7352478957805064,10.924594363929744,0.10954869929231414,0.011967751028646494,0.1171875,,
2.9825049999998883,1500,,,,-0.1875,0.2421875,-1.05859375,0.009699092779867276,0.29964284922479373,15.105695842275514,1.6355446940573115,2696,0,24.70604068487731,2.7384023225598546,11.083938367494248,0.10942250769955819,0.012128323313585678,0.119140625,,
2.9917799999993293,1500,,,,0.0625,-0.091796875,-0.904296875,0.035873633013892604,0.29964284922479373,15.106272663649928,1.6127646877916462,2699,0,24.362863116086857,10.141057610353291,41.625065009937714,0.02954749501855506,0.012299164010281652,0.119140625,,
2.9998449999997394,1500,,,,-0.09375,0.125,-1.111328125,0.035873633013892604,0.29964284922479373,15.106937276398218,1.5930198420245278,2702,0,24.06565083352234,10.148790113203098,42.171268017677306,0.02952498237548262,0.012451059449736762,0.12109375,,
3.0085849999999628,1500,,,,-0.0625,-0.0390625,-0.91796875,0.035873633013892604,0.29964284922479373,15.107881236958196,1.571045180062206,2702,0,23.735163998275414,10.152088910200776,42.77235628512372,0.029515388593938915,0.01262442716833832,0.123046875,,
3.016415000000037,1500,,,,0.03125,0,-0.935546875,0.035873633013892604,0.29964284922479373,15.108673699259823,1.55004720878169,2703,0,23.419157495931017,10.153196536428862,43.35423483185908,0.029512168719447025,0.012794774930603521,0.123046875,,
3.0255750000001864,1500,,,,-0.25,0.1640625,-1.16015625,0.035873633013892604,1.1457726409153912,15.109360187153527,1.5336833991381182,2704,0,23.172974890635775,10.158556403736926,43.837946796559166,0.1127889234826621,0.049444348268741244,0.125,,
3.035825000000186,1500,,,,0.0625,-0.041015625,-0.90625,0.035873633013892604,1.1457726409153912,15.10995257330217,1.515356493220981,2705,0,22.896964744214515,10.160525223321718,44.374987413513075,0.11276706821075247,0.05004037232510912,0.125,,
3.0437949999999256,1500,,,,-0.125,0.11328125,-1.029296875,0.035873633013892604,1.1457726409153912,15.110552985804798,1.4955047009024764,2707,0,22.597903023507026,10.16809855988441,44.99576155056177,0.11268307778169455,0.05070260898648533,0.126953125,,
3.050894999999553,1500,,,,0,0.078125,-0.9609375,0.035873633013892604,1.1457726409153912,15.111135167505672,1.4816933284594709,2708,0,22.390068163142445,10.17168897596351,45.42946855654375,0.11264330276151197,0.05117325380909346,0.12890625,,
3.0587700000004845,1500,,,,0.0625,-0.125,-1.04296875,0.035873633013892604,1.1457726409153912,15.111766446771298,1.4684119994542257,2708,0,22.190299183388724,10.174746499613176,45.85222765824544,0.11260945331256668,0.05163394289758369,0.12890625,,
3.066820000000298,1500,,,,-0.0625,0.1640625,-0.95703125,0.035873633013892604,1.1457726409153912,15.1123642504933,1.453820170641171,2709,0,21.970659973443702,10.176122721853945,46.316873203417614,0.11259422397243336,0.052150123951683995,0.12890625,,
3.0779900000002236,1500,,,,-0.0625,-0.00390625,-0.98828125,0.035873633013892604,1.1457726409153912,15.11285887581055,1.4391330823033497,2709,0,21.749415176360774,10.176700610856626,46.79068622460057,0.11258783025345831,0.052680618380981585,0.12890625,,
3.085415000000037,1500,,,,-0.041015625,0.07421875,-0.998046875,0.035873633013892604,1.1457726409153912,15.11321233540996,1.4230109599754837,2709,0,21.50626679372505,10.175187221932177,47.31266155826274,0.1126045758102345,0.05327622185221365,0.12890625,,
3.093390000000596,1500,,,,0.0625,0.14453125,-0.98828125,0.035873633013892604,1.1457726409153912,15.113677766032744,1.413498578625234,2708,0,21.363162040087087,10.17332200465714,47.62086242461356,0.11262522118054259,0.05363310163380292,0.12890625,,
3.1015250000003727,1500,,,,-0.0625,-0.00390625,-0.943359375,0.035873633013892604,1.1457726409153912,15.114239646904446,1.4018968389391993,2708,0,21.188604783964863,10.174864045776957,48.02045320830706,0.1126081523802709,0.054074945122507094,0.12890625,,
3.1088849999997765,1500,,,,-0.0625,0.125,-1.01953125,0.035873633013892604,1.1457726409153912,15.114316117929162,1.3935241025387484,2709,0,21.062163803724175,10.177541866464942,48.32144484920095,0.11257852396468332,0.05439956936963892,0.12890625,,
3.116035000000149,1500,,,,-0.03125,0.15234375,-0.990234375,0.035873633013892604,1.1457726409153912,15.114587054404911,1.3904193364262842,2709,0,21.015614102542983,10.176465139469581,48.42335365416795,0.11259043540290764,0.054520064715917464,0.12890625,,
3.1231899999994783,1500,,,,0,-0.1015625,-0.96875,0.035873633013892604,1.1457726409153912,15.114387392618804,1.397544242504719,2708,0,21.123025079540323,10.173865064657932,48.164810799340934,0.11261920947778117,0.05424282916868674,0.12890625,,
3.1299350000005215,1500,,,,-0.09375,0.169921875,-0.990234375,0.035873633013892604,1.1457726409153912,15.114285060138553,1.4025808209545314,2711,0,21.19900634778994,10.183885739598328,48.03944851245364,0.11250839514628949,0.054048412558489634,0.130859375,,
3.138140000000596,1500,,,,0,0.16796875,-1.0390625,0.035873633013892604,1.1457726409153912,15.114708296561744,1.3975561555501161,2718,0,21.123653619204276,10.21078833505897,48.338173495592514,0.11221196672752047,0.054241215159565384,0.130859375,,
3.1456899999994783,1500,,,,-0.09375,-0.126953125,-0.9140625,0.04783668896517972,1.1457726409153912,15.115263105332197,1.3815665630918343,2721,0,20.88274209866261,13.632475113701537,65.28105863345695,0.08404729378627761,0.0548669631364537,0.130859375,,
3.153464999999851,1500,,,,-0.125,0.1640625,-1.05859375,0.04783668896517972,1.1457726409153912,15.115821364705823,1.368764867679345,2728,0,20.690005230126182,13.664269449777047,66.04285159812747,0.08385173061221259,0.05537807401068519,0.1328125,,
3.160070000000298,1500,,,,-0.03125,0.04296875,-1.01171875,0.04783668896517972,1.1457726409153912,15.116083498843388,1.3571557649312762,2729,0,20.51487986363784,13.670669681694006,66.63782470364332,0.08381247353592794,0.0558508091946591,0.1328125,,
3.1690049999998884,1500,,,,-0.03125,-0.0625,-0.962890625,0.04783668896517972,1.1457726409153912,15.11657103662381,1.3455598962639224,2727,0,20.340251755905747,13.662481739657036,67.16967864318673,0.08386270245395058,0.05633030773981048,0.1328125,,
3.1884199999999256,1500,,,,0.03125,0.0546875,-0.98046875,0.04783668896517972,1.7846191439733365,15.11757528610829,1.3229338596160607,2723,0,19.999552221287612,13.642704684544663,68.21505068510137,0.13081124199624936,0.08923295502955211,0.134765625,,
3.203179999999702,1500,,,,0.03125,0.09765625,-0.994140625,0.04783668896517972,1.7846191439733365,15.11822894179894,1.30976143926996,2719,0,19.801273298023343,13.62187996416873,68.79294962071218,0.13101122228852663,0.09012648414642535,0.13671875,,
3.2110800000000745,1500,,,,0,-0.0546875,-0.83984375,0.04783668896517972,1.7846191439733365,15.118447851726048,1.303727937214558,2718,0,19.710342831616668,13.617009290946026,69.0856034685681,0.1310580837423628,0.09054226804775267,0.13671875,,
3.2191200000001117,1500,,,,-0.09375,0.19140625,-1.052734375,0.04783668896517972,1.7846191439733365,15.118523875587389,1.29813282202064,2718,0,19.625852063402682,13.614058086100195,69.36798485038526,0.13108649402601075,0.09093205931686431,0.13671875,,
3.2283300000000743,1500,,,,0,0.2890625,-0.9375,0.04783668896517972,1.7846191439733365,15.11889571586304,1.2908980132371686,2716,0,19.516952441947538,13.60691693272569,69.71845103993037,0.13115529056263944,0.09143943703719222,0.138671875,,
3.23630999999959,1500,,,,-0.09375,-0.08984375,-0.89453125,0.04783668896517972,1.7846191439733365,15.119198814337228,1.2865505950640592,2714,0,19.45161423147738,13.596629408069726,69.89974840271671,0.13125452569253293,0.09174658322625968,0.138671875,,
3.251469999999739,1500,,,,0,-0.171875,-1.01953125,0.04783668896517972,1.7846191439733365,15.11972744668814,1.2765039291186013,2712,0,19.30039149289977,13.587455958791132,70.39989817714158,0.13134314101078515,0.09246543753425221,0.140625,,
3.2594350000005217,1500,,,,-0.03125,0.056640625,-0.888671875,0.04783668896517972,1.7846191439733365,15.119930372246927,1.2720603477923222,2711,0,19.233463887916123,13.580629698400804,70.6093804919516,0.131409160223512,0.09278719394349791,0.142578125,,
3.2721200000001116,1500,,,,-0.09375,0.130859375,-1.017578125,0.04783668896517972,1.7846191439733365,15.120484893749826,1.2641505878057686,2709,0,19.114569866342087,13.571274551571424,70.99963350715215,0.13149974508228446,0.0933643370712613,0.142578125,,
3.295230000000447,1500,,,,-0.09375,0.24609375,-1.0078125,0.04847477736854099,1.7846191439733365,15.120584473461044,1.254124083272859,2711,0,18.963089141329156,13.759443919352911,72.55908473986369,0.1297014003206363,0.09411014896744031,0.142578125,,
3.302839999999851,1500,,,,-0.0625,-0.048828125,-0.94921875,0.04847477736854099,1.7846191439733365,15.120743428764289,1.2516220462680003,2710,0,18.92545583140338,13.757020775540596,72.69056501515436,0.1297242457572147,0.09429728720256678,0.14453125,,
3.3110449999999254,1500,,,,-0.0625,0.1796875,-1.04296875,0.04847477736854099,1.7846191439733365,15.12063982780401,1.248194797875815,2710,0,18.873503973618824,13.755987235852942,72.88517942974929,0.12973399243363584,0.09455685316663284,0.14453125,,
3.3187450000001117,1500,,,,-0.09375,-0.025390625,-0.974609375,0.04847477736854099,2.0586124372117127,15.12079982725706,1.2457104936353927,2710,0,18.83613901697435,13.755595160763008,73.02767912451185,0.1496563698736772,0.1092905735807416,0.14453125,,
3.3266150000002237,1500,,,,-0.03125,0.04296875,-0.94921875,0.04847477736854099,2.0586124372117127,15.120760499474493,1.243586034099206,2709,0,18.803966582105414,13.753324939553348,73.14055191228401,0.14968107321389065,0.10947756305686952,0.14453125,,
3.3352150000007823,1500,,,,-0.25,0.234375,-1.09375,0.04847477736854099,2.0586124372117127,15.120788749171716,1.2388915469755706,2709,0,18.73301736495215,13.752431002262417,73.41279161995558,0.14969080280228636,0.10989219713548112,0.14453125,,
3.343945000000298,1500,,,,0.09375,-0.140625,-0.919921875,0.04847477736854099,2.0586124372117127,15.120818253843378,1.2365716229635517,2710,0,18.697974768692003,13.754276405251147,73.5602469005434,0.14967071887735003,0.1100981503439969,0.146484375,,
3.351570000000298,1500,,,,-0.125,0.078125,-1.080078125,0.04847477736854099,2.0586124372117127,15.120580857789149,1.2361768114852942,2710,0,18.691711432587365,13.755620696958342,73.59208784368786,0.14965609204875177,0.11013504272394779,0.1484375,,
3.3598650000002235,1500,,,,0.0625,0.06640625,-0.84765625,0.04847477736854099,2.0586124372117127,15.12068260697379,1.2333728062298417,2710,0,18.64943873907402,13.75754486040922,73.76921661231886,0.14963516078627412,0.11038468588861816,0.1484375,,
3.3688700000001117,1500,,,,-0.09375,-0.10546875,-0.96875,0.04847477736854099,2.0586124372117127,15.120864880152954,1.2309627725705063,2710,0,18.613221756537076,13.756125638382747,73.90512947363081,0.1496505986734893,0.1105994687077059,0.1484375,,
3.37994000000041,1500,,,,-0.125,0.1796875,-1.0078125,0.04847477736854099,2.0586124372117127,15.12096432472407,1.2316678592894992,2709,0,18.624005760225785,13.751145609734467,73.83559577232303,0.149704795195712,0.11053542743249,0.1484375,,
3.387339999999851,1500,,,,0.0625,-0.173828125,-0.9375,0.04847477736854099,2.0586124372117127,15.121026684710143,1.2281496359011743,2709,0,18.570883417278704,13.75084337790417,74.04517635983932,0.14970808557965523,0.11085161599239488,0.150390625,,
3.395785000000149,1500,,,,-0.125,0.142578125,-1.01953125,0.04847477736854099,2.0586124372117127,15.120757167382477,1.2264261701692418,2709,0,18.544492302852003,13.751482699374717,74.15399933736575,0.14970112548702244,0.1110093716016757,0.150390625,,
3.409834999999963,1500,,,,0,0.015625,-0.908203125,0.04847477736854099,2.0586124372117127,15.120826290709587,1.2237188063427031,2710,0,18.503639499382498,13.756993447985634,74.34750038469313,0.1496411585129558,0.11125446090107909,0.150390625,,
3.4185,1500,,,,-0.03125,-0.017578125,-1.037109375,0.04847477736854099,2.0586124372117127,15.12106529513384,1.2220192494323094,2710,0,18.478232862576398,13.758138510065688,74.45592125819442,0.149628704181572,0.11140743016508793,0.150390625,,
3.427209999999963,1500,,,,-0.0625,0.05859375,-0.93359375,0.04847477736854099,2.0586124372117127,15.121112509282382,1.2174204665688246,2710,0,18.408751846090247,13.758551066232384,74.73918482504017,0.1496242174994841,0.11182792045995951,0.15234375,,
3.4349900000002234,1500,,,,-0.0625,0.025390625,-0.919921875,0.04847477736854099,2.0586124372117127,15.121383757581238,1.2155272520789884,2710,0,18.38045404648457,13.758707449911384,74.85510104981799,0.14962251684659314,0.11200008617879825,0.154296875,,
3.4428499999996274,1500,,,,-0.0625,0.0390625,-1.0078125,0.04749993275331292,2.0586124372117127,15.121413903401116,1.2152099627943935,2710,0,18.375692826950694,13.482075674429867,73.36907403380401,0.1526925443028095,0.1120291058736273,0.15234375,,
3.4510549999997018,1500,,,,-0.03125,-0.03515625,-0.96484375,0.04749993275331292,2.0586124372117127,15.121541223267158,1.21383861388415,2709,0,18.35511063824264,13.475896834622592,73.41768241127205,0.15276255543324413,0.11215472779132261,0.15234375,,
3.460035000000149,1500,,,,0,-0.0625,-0.9296875,0.04749993275331292,2.0586124372117127,15.121529874231205,1.213337584123255,2709,0,18.34752052584732,13.473330817600498,73.434068644969,0.15279164930193087,0.11220112463216023,0.15234375,,
3.467984999999404,1500,,,,-0.0625,0.1328125,-1.0859375,0.04749993275331292,2.184914834976925,15.121648903042267,1.2115608940070743,2710,0,18.320798463830986,13.478601318085317,73.56994480723557,0.1621024899701759,0.11925871240221297,0.15234375,,
3.4754699999997394,1500,,,,0.0625,-0.06640625,-0.951171875,0.04749993275331292,2.184914834976925,15.121373269137703,1.212072723821499,2710,0,18.32820408624534,13.480723606830407,73.5517977833257,0.16207696995359158,0.11921052519360721,0.15234375,,
3.4827099999999627,1500,,,,-0.1875,0.07421875,-1.04296875,0.04749993275331292,2.184914834976925,15.121312780580798,1.2119387923376024,2710,0,18.326105549856244,13.47957223471173,73.55393756758903,0.16209081393180058,0.11922417608219353,0.15234375,,
3.491070000000298,1500,,,,0.0625,0.1640625,-1.03125,0.04749993275331292,2.184914834976925,15.121346825848192,1.2111506165477948,2710,0,18.314228531159078,13.479044643815811,73.59875749548019,0.16209715841985614,0.11930149453249424,0.15234375,,
3.499175000000745,1500,,,,-0.1875,-0.1328125,-0.9921875,0.04749993275331292,2.184914834976925,15.121346197510542,1.2168214994597286,2709,0,18.399979153904443,13.47676907832663,73.24339318866502,0.16212452868178248,0.11874550599766792,0.15234375,,
3.507799999999814,1500,,,,0.03125,0.091796875,-0.98828125,0.04749993275331292,2.184914834976925,15.120986604280596,1.2264446819391932,2709,0,18.545053606493717,13.475834648268375,72.66538525156751,0.1621357705852886,0.11781658232639765,0.15234375,,
3.516030000000261,1500,,,,-0.15625,0.056640625,-1.041015625,0.04749993275331292,2.184914834976925,15.12093825953158,1.2262293882330537,2714,0,18.541738871495188,13.498266522326555,72.79935617623153,0.1618663278994386,0.11783764457689913,0.154296875,,
3.523120000000112,1500,,,,0.03125,0.021484375,-0.904296875,0.04749993275331292,2.184914834976925,15.120989698029437,1.2235056196527132,2715,0,18.5006158702498,13.507055145366179,73.00867841424893,0.1617610064860434,0.11809957302504781,0.154296875,,
3.533359999999404,1500,,,,-0.125,0.2734375,-1.09375,0.04749993275331292,2.184914834976925,15.121137179032033,1.220030823164543,2721,0,18.448253439718425,13.535544542947251,73.37033062330829,0.16142053450781804,0.11843477986229753,0.154296875,,
3.542320000000298,1500,,,,-0.0625,-0.076171875,-0.935546875,0.04749993275331292,2.184914834976925,15.121232014094801,1.2129010196564283,2724,0,18.34055772835701,13.54813127249262,73.86978887531515,0.16127056868817438,0.11913022860797455,0.154296875,,
3.550834999999963,1500,,,,-0.0625,0.138671875,-0.984375,0.04749993275331292,2.184914834976925,15.121384515888817,1.2098173938123709,2721,0,18.294114005847348,13.534302094426112,73.9817303538184,0.1614353529079824,0.11943266748411868,0.154296875,,
3.5581200000001116,1500,,,,-0.125,0.0078125,-1.04296875,0.04749993275331292,2.184914834976925,15.121411025311385,1.2064225675146376,2720,0,18.24281151360031,13.528677044548326,74.15894767351227,0.16150247565096423,0.11976853640942547,0.15625,,
3.566070000000298,1500,,,,0,-0.01171875,-0.9375,0.04749993275331292,2.184914834976925,15.121602308022272,1.204011089499155,2719,0,18.206576869854832,13.525350054762235,74.28826490253947,0.16154220231864702,0.12000689918787275,0.15625,,
3.575,1500,,,,-0.125,0.169921875,-1.013671875,0.04749993275331292,2.184914834976925,15.121734625968985,1.202851420306883,2718,0,18.189199972350565,13.519542532148558,74.32730715314383,0.16161159519867963,0.12012154675841805,0.15625,,
3.5829699999997393,1500,,,,0,-0.091796875,-1.001953125,0.04749993275331292,2.184914834976925,15.121714969885833,1.199533994542025,2716,0,18.13901116215309,13.50928621670286,74.47642043955453,0.16173429150353627,0.12045391093510836,0.15625,,
3.590924999999814,1500,,,,-0.0625,0.0078125,-0.93359375,0.04672580044528908,2.184914834976925,15.121826720042911,1.1993617367301943,2713,0,18.136540357483725,13.277018506345561,73.2059050108034,0.16456366570044892,0.12047032079496672,0.15625,,
3.598980000000447,1500,,,,-0.09375,0.1484375,-1.06640625,0.04672580044528908,2.184914834976925,15.12173679960951,1.1974878102814468,2712,0,18.108095487816765,13.272214945571271,73.29437242310158,0.1646232255834582,0.12065956005406248,0.15625,,
3.6075049999998883,1500,,,,0.03125,-0.140625,-0.8984375,0.04672580044528908,2.184914834976925,15.121646798531241,1.1974113499924375,2712,0,18.106831507138114,13.271670815517595,73.29648376241646,0.16462997503089538,0.1206679829165905,0.158203125,,
3.6150250000003727,1500,,,,-0.125,0.10546875,-1.05078125,0.04672580044528908,2.184914834976925,15.12169429842899,1.1977497743251866,2712,0,18.112005933357782,13.272136019813688,73.27811214642844,0.16462420455268933,0.12063350923228544,0.158203125,,
3.6231200000001116,1500,,,,0,0.119140625,-1,0.04672580044528908,2.2021106486432473,15.12190689618949,1.1970207378788142,2712,0,18.101236151011474,13.268254662574524,73.30026829042342,0.16596837373454196,0.12165526322467189,0.15625,,
3.631209999999963,1500,,,,-0.0625,-0.21875,-0.87890625,0.04672580044528908,2.2021106486432473,15.121683102431163,1.1965467591317445,2711,0,18.09380090883127,13.26470699972693,73.31078233127157,0.1660127621883077,0.12170525473000178,0.158203125,,
3.639429999999702,1500,,,,0,0.083984375,-1.009765625,0.04672580044528908,2.2021106486432473,15.121602710338225,1.194653348305893,2712,0,18.065073309657027,13.268671944103799,73.4493113682012,0.16596315425688096,0.12189879392662456,0.15625,,
3.6493499999996275,1500,,,,-0.0625,0.001953125,-1.048828125,0.04672580044528908,2.2021106486432473,15.121884225518633,1.192799779848472,2713,0,18.037380175092707,13.273283665891976,73.58764708092512,0.16590549136698976,0.12208594747501512,0.158203125,,
3.660519999999553,1500,,,,-0.03125,0.068359375,-0.861328125,0.04672580044528908,2.2021106486432473,15.121736670490547,1.1927115024139554,2711,0,18.035869263368983,13.265210041603803,73.54904744483576,0.1660064666700902,0.12209617493268009,0.158203125,,
3.668200000000186,1500,,,,-0.0625,0.171875,-1.072265625,0.04672580044528908,2.2021106486432473,15.121749406047725,1.190829505985248,2711,0,18.00742537483653,13.263516970171183,73.65582082992022,0.16602765718893833,0.12228903370719858,0.16015625,,
3.6766200000001117,1500,,,,-0.03125,-0.052734375,-0.904296875,0.04672580044528908,2.2021106486432473,15.121849432434361,1.18932414120526,2710,0,17.984780589665245,13.260947670751124,73.73427551499505,0.1660598249324451,0.12244300883540753,0.16015625,,
3.686304999999702,1500,,,,0,0.078125,-1.109375,0.04672580044528908,2.2021106486432473,15.121695667184003,1.1890181413406293,2710,0,17.97997047611377,13.259798386290244,73.7476093406592,0.16607421806051623,0.12247576555082398,0.16015625,,
3.6940650000004096,1500,,,,-0.03125,0.1015625,-0.943359375,0.04672580044528908,2.2021106486432473,15.12142366356694,1.187018676926728,2710,0,17.949412310375745,13.259279634342796,73.87027165607091,0.1660807154967583,0.12268427570580161,0.16015625,,
3.7020649999994784,1500,,,,-0.0625,0.099609375,-0.9375,0.04672580044528908,2.2021106486432473,15.121356350332707,1.1883690646124299,2710,0,17.969752101716107,13.26112625885605,73.79693489254988,0.16605758859830122,0.12254541054202668,0.16015625,,
3.7112750000003727,1500,,,,-0.0625,0.21484375,-1.0234375,0.04672580044528908,2.2021106486432473,15.12128477320059,1.1890014426504885,2710,0,17.979229410064367,13.261920918834964,73.76245453217945,0.1660476383565028,0.12248081374447313,0.162109375,,
3.719019999999553,1500,,,,-0.03125,-0.0234375,-0.9453125,0.04672580044528908,2.2021106486432473,15.121216781984515,1.1882241186265163,2711,0,17.967394483334036,13.26432944001192,73.82444601144297,0.16601748762365393,0.12256149052027841,0.16015625,,
3.7272199999997393,1500,,,,-0.0625,0.1015625,-0.970703125,0.04672580044528908,2.2021106486432473,15.12115816561789,1.1911085694304637,2711,0,18.010941070780902,13.265178285060006,73.65066729678033,0.16600686408590445,0.12226516315772779,0.16015625,,
3.7349850000003353,1500,,,,-0.0625,0.103515625,-1.0078125,0.04672580044528908,2.2021106486432473,15.121166792764695,1.1904972907408267,2710,0,18.001708099626526,13.259427020229555,73.6564938551839,0.16607886941747527,0.12232787224724156,0.162109375,,
3.7430950000006704,1500,,,,0,-0.1171875,-0.83203125,0.046968292603451645,2.2021106486432473,15.121109297800611,1.1930150299325102,2709,0,18.039710661528353,13.325954665123978,73.87011308082134,0.1652497478778388,0.12207017562313169,0.162109375,,
3.751540000000037,1500,,,,-0.125,0.181640625,-1.04296875,0.046968292603451645,2.2021106486432473,15.121153360350986,1.1928413049626259,2712,0,18.037136306901065,13.337364910590681,73.9439159501598,0.16510837511048657,0.12208759811837276,0.162109375,,
3.7608300000000745,1500,,,,0.0625,0.0390625,-0.89453125,0.046968292603451645,2.2021106486432473,15.121145046727946,1.191246463510904,2713,0,18.01301056115009,13.342056609858792,74.06899898584712,0.16505031518274704,0.12225111627884637,0.162109375,,
3.768379999999888,1500,,,,-0.125,-0.056640625,-0.958984375,0.046968292603451645,2.2088259587977697,15.120975405388782,1.192909674576374,2712,0,18.03795785011969,13.337307854019464,73.94023184243646,0.16561257961306605,0.1224543253261407,0.1640625,,
3.7762900000000372,1500,,,,-0.03125,0.23828125,-1.017578125,0.046968292603451645,2.2088259587977697,15.121192196455429,1.193043467769289,2711,0,18.040239574865094,13.3357758119218,73.92238754136127,0.1656316055360756,0.1224388373353566,0.1640625,,
3.784925000000745,1500,,,,0,-0.1328125,-0.98046875,0.046968292603451645,2.2088259587977697,15.121349472576362,1.1951543190339757,2710,0,18.07234613177177,13.328460654191979,73.75058311195198,0.16572251035629268,0.12222131773553088,0.1640625,,
3.7928700000001117,1500,,,,-0.0625,0.1875,-1,0.046968292603451645,2.2088259587977697,15.121405060349096,1.195373459300493,2709,0,18.07572627647348,13.326244145407678,73.7245294688518,0.16575007441680012,0.1221984624580576,0.1640625,,
3.801125,1500,,,,-0.09375,0.0703125,-1.00390625,0.046968292603451645,2.2088259587977697,15.121548953732876,1.1954089358003925,2711,0,18.076434742435357,13.331620755987013,73.7513837542884,0.16568322781052874,0.12219367315903494,0.1640625,,
3.809410000000149,1500,,,,-0.0625,-0.064453125,-0.85546875,0.046968292603451645,2.2088259587977697,15.121406095966153,1.195223806043259,2711,0,18.073464546746404,13.332744864968486,73.76972373218092,0.1656692587436676,0.12221375448435556,0.1640625,,
3.818120000000112,1500,,,,-0.0625,0.11328125,-1.08984375,0.046968292603451645,2.2088259587977697,15.121257280513607,1.1964466640251965,2711,0,18.09177782913722,13.331770436331146,73.68966478717213,0.16568136762829158,0.12209004442009039,0.1640625,,
3.827195000000298,1500,,,,-0.0625,0,-0.916015625,0.046968292603451645,2.2088259587977697,15.121187623662976,1.200030072035446,2711,0,18.145879873285775,13.333588420543185,73.47997734831692,0.16565877760218028,0.12172603225758077,0.1640625,,
3.8373400000007822,1500,,,,-0.0625,-0.048828125,-1.013671875,0.046968292603451645,2.2088259587977697,15.121128735453384,1.2021993252992422,2712,0,18.178610763525043,13.338311724849499,73.373658187415,0.16560011524417215,0.12150686251722423,0.166015625,,
3.845945000000298,1500,,,,0,0.103515625,-1,0.046968292603451645,2.2088259587977697,15.121319854699818,1.2012099422099178,2714,0,18.16387974880165,13.348299143949907,73.48814971553944,0.16547621048775463,0.12160540530684232,0.166015625,,
3.854285000000149,1500,,,,-0.125,-0.04296875,-0.974609375,0.046968292603451645,2.2088259587977697,15.121578741461311,1.200538474193282,2715,0,18.154037069667535,13.354284011854443,73.56096035612539,0.16540205052079324,0.12167133681181919,0.16796875,,
3.861584999999963,1500,,,,0.0625,0.109375,-1.015625,0.046968292603451645,2.2088259587977697,15.12169881500957,1.1979454400459761,2715,0,18.114970141189353,13.354638706257004,73.72156068803874,0.1653976575017994,0.12193373445178352,0.166015625,,
3.870125,1500,,,,-0.125,-0.001953125,-0.9921875,0.046968292603451645,2.2088259587977697,15.121906693804114,1.1959643181180468,2715,0,18.085260827700164,13.354775403180705,73.84342161505327,0.1653959645230495,0.12213403941703936,0.16796875,,
3.8779449999993667,1500,,,,0.125,-0.0078125,-0.91796875,0.046968292603451645,2.2088259587977697,15.122009194938476,1.1961790431164188,2715,0,18.088630488799193,13.352784121480582,73.81865713796778,0.16542062978794353,0.12211128753862902,0.16796875,,
3.8857400000002236,1500,,,,-0.09375,0.134765625,-1.037109375,0.046968292603451645,2.2088259587977697,15.122008781087692,1.194586181817922,2715,0,18.064542731216633,13.351999069523261,73.91274314655189,0.16543035595617644,0.12227411408431521,0.16796875,,
3.8934000000003723,1500,,,,0.09375,-0.037109375,-0.919921875,0.047104800374094126,2.2088259587977697,15.122008385694476,1.1946559880202738,2713,0,18.0655978688627,13.382294080915623,74.07612069114484,0.16505585256475255,0.12226697255366419,0.16796875,,
3.9014350000005216,1500,,,,-0.1875,0.15625,-0.9921875,0.047104800374094126,2.2088259587977697,15.122040866332567,1.1940818767622392,2712,0,18.05695493814567,13.378919034243255,74.09288598256414,0.16509749054795042,0.12232549543176752,0.16796875,,
3.909355000000447,1500,,,,-0.03125,0.193359375,-1.056640625,0.047104800374094126,2.2088259587977697,15.121951261450164,1.1947381712870593,2712,0,18.06677239639701,13.375744630023414,74.03505361417456,0.1651366723793308,0.12225902393270134,0.16796875,,
3.917179999999702,1500,,,,0,-0.046875,-0.890625,0.047104800374094126,2.264729794909205,15.121790417468784,1.1948006177742476,2711,0,18.067524532644402,13.374292661188079,74.02393524925569,0.16933454742480727,0.12534809574035952,0.16796875,,
3.9278300000000743,1500,,,,-0.09375,0.05859375,-0.9765625,0.047104800374094126,2.264729794909205,15.121941511346586,1.1931024626265478,2710,0,18.04202565688223,13.368849008886587,74.09838154058363,0.16940349864104126,0.1255252507661362,0.16796875,,
3.935280000000261,1500,,,,-0.03125,0.150390625,-0.943359375,0.047104800374094126,2.264729794909205,15.121759966404968,1.1929365747059775,2710,0,18.03930053784912,13.368511015446328,74.10770161180704,0.16940778163644976,0.12554421332232185,0.16796875,,
3.9442350000003352,1500,,,,-0.0625,-0.015625,-0.97265625,0.047104800374094126,2.264729794909205,15.121671751634103,1.1930908492752046,2711,0,18.041528192618003,13.371472624516683,74.11496676865681,0.16937025999341374,0.12552871191010626,0.16796875,,
3.951950000000186,1500,,,,0,0.1953125,-0.96484375,0.047104800374094126,2.264729794909205,15.121588860296777,1.193020539062983,2710,0,18.04036609360006,13.368496289846515,74.1032428082991,0.16940796824167023,0.12553679804273113,0.16796875,,
3.9604500000001863,1500,,,,-0.0625,0.056640625,-1.015625,0.047104800374094126,2.264729794909205,15.12151135853155,1.193484322638593,2709,0,18.047286741008815,13.363256979975805,74.04579520316759,0.16947438774116166,0.12548865806864273,0.16796875,,
3.967959999999963,1500,,,,-0.03125,0.06640625,-0.984375,0.047104800374094126,2.264729794909205,15.12137274174784,1.1929732030231706,2709,0,18.039392473830183,13.364244409535237,74.08367232390336,0.16946186596926838,0.12554357349864512,0.16796875,,
3.9765449999999256,1500,,,,-0.03125,0.12890625,-0.9765625,0.047104800374094126,2.264729794909205,15.121601215158243,1.192159001010691,2710,0,18.027352998345105,13.367719462373241,74.15242528173928,0.1694178129099618,0.12562741713201628,0.169921875,,
3.9843100000005216,1500,,,,0,-0.07421875,-0.89453125,0.047104800374094126,2.264729794909205,15.121783778703755,1.1927726172868642,2710,0,18.036849615770524,13.367031965511554,74.10957151754532,0.16942652645347617,0.12556127279173177,0.169921875,,
3.9935950000006706,1500,,,,-0.09375,0.142578125,-1.03515625,0.047104800374094126,2.264729794909205,15.121892230745685,1.1910211471360204,2709,0,18.010493431529998,13.364715857364317,74.20516216378297,0.16945588810713683,0.12574501656597953,0.169921875,,
4.001884999999777,1500,,,,-0.0625,-0.009765625,-0.97265625,0.047104800374094126,2.264729794909205,15.122019589041319,1.1915851556656223,2710,0,18.01917406598639,13.366722662747318,74.18055130495021,0.16943044694276058,0.12568443962058096,0.169921875,,
4.011984999999404,1500,,,,0,-0.04296875,-0.94921875,0.047104800374094126,2.264729794909205,15.122053200484162,1.1904658746450765,2710,0,18.002288289743756,13.368740552370294,74.26134020965944,0.16940487295997866,0.12580232904055116,0.169921875,,
4.019445000000298,1500,,,,-0.125,0.23046875,-1.041015625,0.047104800374094126,2.264729794909205,15.12201147994377,1.191039794320147,2708,0,18.010917442779128,13.359538507449718,74.17466961298952,0.16952155897049265,0.1257420562891521,0.169921875,,
4.028475000000559,1500,,,,0.0625,-0.07421875,-0.93359375,0.047104800374094126,2.264729794909205,15.122044494080463,1.190635270262649,2707,0,18.004839533133296,13.353505425208896,74.16620070751082,0.16959814841081525,0.12578450314658732,0.171875,,
4.037639999999665,1500,,,,-0.15625,0.1015625,-1.04296875,0.047104800374094126,2.264729794909205,15.12171231887314,1.1912883586925018,2708,0,18.01431984897057,13.359726521883047,74.16170376616518,0.1695191732555011,0.125718307096597,0.171875,,
4.046375,1500,,,,0,-0.01171875,-0.90625,0.04697070282007713,2.264729794909205,15.121691696997932,1.1920196133074137,2709,0,18.025353089209403,13.322474023955948,73.9096424797983,0.16999318526250132,0.1256413554675359,0.171875,,
4.053870000000112,1500,,,,-0.125,-0.08984375,-1.046875,0.04697070282007713,2.264729794909205,15.12173929914649,1.1932713233090713,2708,0,18.04433786422732,13.320029715748786,73.81833468190364,0.17002438006812606,0.1255091659195212,0.173828125,,
4.061334999999962,1500,,,,-0.03125,0.169921875,-0.958984375,0.04697070282007713,2.264729794909205,15.121750725566288,1.1939603561424366,2708,0,18.054770881794273,13.321031304468846,73.7812259800054,0.1700115961854582,0.12543663997380716,0.171875,,
4.069340000000782,1500,,,,-0.0625,-0.12109375,-1.0625,0.04697070282007713,2.288470459757359,15.121470809184258,1.1950118038043167,2709,0,18.0703361078576,13.325553806797604,73.74270034193331,0.17173548603960978,0.12664238485095217,0.173828125,,
4.077120000000112,1500,,,,-0.03125,-0.0234375,-0.94140625,0.04697070282007713,2.288470459757359,15.121464074819421,1.1965565504419702,2709,0,18.093686890998104,13.32735963751036,73.6575122461135,0.17171221622296226,0.12647894669250132,0.171875,,
4.085165000000037,1500,,,,-0.0625,0.138671875,-1.080078125,0.04697070282007713,2.288470459757359,15.121392794184013,1.1990688223420438,2710,0,18.131590649893692,13.330100995823852,73.51865180070128,0.1716769033088577,0.1262145447658657,0.171875,,
4.093460000000894,1500,,,,0,-0.21484375,-0.828125,0.04697070282007713,2.288470459757359,15.121389932006016,1.2010355068504093,2710,0,18.161326221269523,13.331187463268366,73.40426189611433,0.17166291195460406,0.12600789346965371,0.173828125,,
4.101259999999776,1500,,,,-0.09375,0.01171875,-0.951171875,0.04697070282007713,2.288470459757359,15.121321433702343,1.2011088832543124,2712,0,18.16235350056372,13.341873873846334,73.45894833195615,0.17152541549979552,0.1260007663481679,0.171875,,
4.10915499999933,1500,,,,-0.0625,0.068359375,-1.033203125,0.04697070282007713,2.288470459757359,15.121322054090829,1.198728922365869,2714,0,18.126366090647547,13.348111678783189,73.63920386486214,0.17144525868740526,0.12625092356145862,0.173828125,,
4.117339999999851,1500,,,,-0.0625,-0.15234375,-0.84765625,0.04697070282007713,2.288470459757359,15.121257455168621,1.1989143406924558,2715,0,18.12909241230437,13.354653613763249,73.66421500890652,0.17136127420024366,0.12623193746886935,0.173828125,,
4.124625,1500,,,,-0.125,0.109375,-1.05859375,0.04697070282007713,2.288470459757359,15.121293816981728,1.196541369187962,2716,0,18.09325360766478,13.357244561822473,73.82444778292385,0.17132803469798252,0.12648197551312176,0.173828125,,
4.131469999999739,1500,,,,0.0625,0.125,-0.89453125,0.04697070282007713,2.288470459757359,15.12146552090475,1.1946738032883515,2714,0,18.06521872515295,13.348736873614063,73.89191947633641,0.17143722896215677,0.12667825917717937,0.173828125,,
4.138779999999329,1500,,,,-0.0625,-0.203125,-1.04296875,0.04697070282007713,2.288470459757359,15.121575193042311,1.1944500853373534,2713,0,18.061966779764596,13.34304009814945,73.87368308692766,0.17151042363087463,0.12670106681411938,0.173828125,,
4.148564999999478,1500,,,,0,0.017578125,-0.96875,0.04697070282007713,2.288470459757359,15.121506042104087,1.1936635538944296,2712,0,18.049990642454055,13.338624165017228,73.89823313062796,0.1715672044916938,0.12678513275097306,0.173828125,,
4.156375,1500,,,,-0.09375,0.044921875,-1.03125,0.04697070282007713,2.288470459757359,15.121414304061362,1.1943366805760334,2711,0,18.060059765527598,13.33636838120848,73.84454179196277,0.17159622427511173,0.12671444554826505,0.173828125,,
4.173769999999553,1500,,,,-0.0625,0.091796875,-1.03125,0.04697070282007713,2.288470459757359,15.121203076668623,1.1940636675345746,2711,0,18.05567920326203,13.33439407555776,73.85152297759423,0.17162163100850425,0.12674518825876746,0.173828125,,
4.1821100000003355,1500,,,,0,0.02734375,-0.98046875,0.04697070282007713,2.288470459757359,15.121210230435938,1.1941701784163223,2711,0,18.0572983187504,13.332799648223206,73.83607122655025,0.1716421546964693,0.12673382359647062,0.173828125,,
4.195234999999404,1500,,,,-0.09375,0.037109375,-1.009765625,0.04697070282007713,2.288470459757359,15.121270710289387,1.1923186850778618,2710,0,18.029373609998625,13.332139309200983,73.94676929767168,0.17165065610873148,0.12693011467066345,0.173828125,,
4.202570000000298,1500,,,,-0.0625,0.0546875,-0.947265625,0.04638518938144784,2.288470459757359,15.121257181299471,1.1933213329128571,2711,0,18.044518774906397,13.166824812381691,72.96855613956372,0.17380579542649868,0.12682357940959996,0.173828125,,
4.21052999999933,1500,,,,0,0.140625,-1.03125,0.04638518938144784,2.288470459757359,15.121494637400264,1.1928679505970714,2711,0,18.03794631808026,13.169986972462576,73.0126741715696,0.1737640640451941,0.1268697899085951,0.173828125,,
4.218474999999628,1500,,,,-0.0625,0.16796875,-1.01171875,0.04638518938144784,2.2460405501659975,15.1216170107375,1.193021536828703,2712,0,18.04041476548511,13.171430994691802,73.01068831239601,0.17052365464854735,0.1245004939943575,0.171875,,
