Time (s),ESC signal (µs),Servo 1 (µs),Servo 2 (µs),Servo 3 (µs),AccX (g),AccY (g),AccZ (g),Torque (N·m),Thrust (N),Voltage (V),Current (A),Motor Electrical Speed (RPM),Motor Optical Speed (RPM),Electrical Power (W),Mechanical Power (W),Motor Efficiency (%),Propeller Mech. Efficiency (N/W),Overall Efficiency (N/W),Vibration (g),App message,90% settling time (s),Max acceleration (RPM/s),
0,1000,,,,-0.0625,0.046875,-0.953125,-0.00046005154991952913,0.014048844052405864,23.0205295545285,0.07928327016680164,0,0,1.825142864054525,0,0,0,0,0.05859375,,
0,1200,,,,-0.0625,0.046875,-0.953125,-0.00046005154991952913,0.014048844052405864,23.020347819548494,0.07885701040971757,0,0,1.8153158076414548,0,0,0,0,0.05859375,,
0.008669999999925494,1200,,,,-0.0625,0.05078125,-0.95703125,-0.00046005154991952913,0.012551480998124838,23.020220040125984,0.07835890838957407,0,0,1.8038393132320691,0,0,0,0,0.05859375,,
0.01606499999947846,1200,,,,-0.0625,0.05078125,-0.953125,-0.00046005154991952913,0.012551480998124838,23.020094574749056,0.07939880941179747,0,0,1.8277681017820533,0,0,0,0,0.05859375,,
0.024044999999925494,1200,,,,-0.0625,0.052734375,-0.95703125,-0.00046005154991952913,0.012551480998124838,23.02028284979464,0.07924573075653206,0,0,1.8242591366540386,0,0,0,0,0.05859375,,
0.03221000000089407,1200,,,,-0.0625,0.05078125,-0.95703125,-0.00046005154991952913,0.012551480998124838,23.020268815058,0.07844829252867835,0,0,1.8059007820924817,0,0,0,0,0.05859375,,
0.04012999999895692,1200,,,,-0.3125,0.10546875,-0.96875,-0.00046005154991952913,0.012551480998124838,23.019278405419236,0.11558256432434008,0,0,2.6606272269942615,0,0,0,0,0.060546875,,
0.04808999999985099,1200,,,,0.0625,0.0234375,-1,-0.00046005154991952913,0.012551480998124838,23.0178752367544,0.1627163384205618,0,0,3.745384376745998,0,0,0,0,0.064453125,,
0.055734999999403956,1200,,,,0,0.08203125,-0.98828125,-0.00046005154991952913,0.012551480998124838,23.016732977600377,0.19808857175220834,0,0,4.5593517619348125,0,0,0,0,0.064453125,,
0.06321999999880791,1200,,,,0,0.068359375,-0.943359375,-0.00046005154991952913,0.012551480998124838,23.016185627553707,0.2279763724878211,0,0,5.247146507876018,0,0,0,0,0.06640625,,
0.07114999999850988,1200,,,,0,0.0234375,-0.986328125,-0.00046005154991952913,0.012551480998124838,23.015490903767294,0.24413173656477463,0,0,5.618811762227484,0,0,0,0,0.06640625,,
0.08241499999910593,1200,,,,-0.1875,0.1953125,-0.9765625,-0.00046005154991952913,0.012551480998124838,23.014797087300924,0.26100409432478194,0,0,6.006956269839607,0,0,0,0,0.068359375,,
0.100714999999851,1200,,,,0.09375,0.05859375,-1.03515625,-0.0002874947471085638,0.012551480998124838,23.013413991911932,0.31973740811381557,0,0,7.358249341624139,0,0,0,0,0.072265625,,
0.11026999999955296,1200,,,,-0.1875,-0.197265625,-1.06640625,-0.0002874947471085638,0.012551480998124838,23.01267520161545,0.3485056310876108,0,0,8.020046894153204,0,0,0,0,0.076171875,,
0.117714999999851,1200,,,,-0.09375,0.17578125,-0.88671875,-0.0002874947471085638,0.012551480998124838,23.012451846244243,0.35353866593934086,1,0,8.135791525714511,0.00003756291532942044,0.0004616995803136873,0,0.0015427486014672096,0.078125,,
0.12484999999962747,1200,,,,-0.0625,-0.0625,-1.140625,-0.0002874947471085638,0.012551480998124838,23.012320089510002,0.3530997778298147,1,0,8.125645110954563,0.00003756291532942044,0.00046227610013117735,0,0.001544675016781572,0.080078125,,
0.1319699999988079,1200,,,,0,0.0078125,-1.021484375,-0.0002874947471085638,0.012551480998124838,23.012132729321635,0.35182074029675137,1,0,8.09614557263704,0.00003756291532942044,0.0004639604734427424,0,0.0015503032752456581,0.080078125,,
0.139839999999851,1200,,,,-0.0625,0.037109375,-0.95703125,-0.0002874947471085638,0.012551480998124838,23.012126184311647,0.34750437137642565,1,0,7.996814443714204,0.00003756291532942044,0.00046972348294196443,0,0.0015695601150268997,0.080078125,,
0.14724499999918045,1200,,,,0,0.0546875,-1.05859375,-0.0002874947471085638,0.012551480998124838,23.012178086535076,0.34265892536975046,1,0,7.88532821354943,0.00003756291532942044,0.0004763646396465241,0,0.0015917512446162376,0.080078125,,
0.15895999999903143,1200,,,,-0.09375,0.025390625,-0.96875,-0.0002874947471085638,0.012551480998124838,23.01216711496745,0.33583069909810576,1,0,7.728192169981958,0.00003756291532942044,0.0004860504824831255,0,0.0016241160574238336,0.080078125,,
0.1668300000000745,1200,,,,-0.03125,0.048828125,-0.9921875,-0.0002874947471085638,0.011913053908620198,23.012334222271,0.3287732988080771,1,0,7.565841035530042,0.00003756291532942044,0.0004964803668623324,0,0.0015745842204026167,0.080078125,,
0.17489499999955296,1200,,,,-0.0625,0.0390625,-1.009765625,-0.0002874947471085638,0.011913053908620198,23.01251371078463,0.3234248536046805,1,0,7.442818877986221,0.00003756291532942044,0.0005046866777924832,0,0.001600610481581875,0.080078125,,
0.18305499999783933,1200,,,,-0.0625,0.07421875,-1.03515625,-0.0002874947471085638,0.011913053908620198,23.01262142901345,0.3169165867250304,409,0,7.293081434878235,0.01231663102983946,0.16888102977894554,0.967233156514836,0.0016334733150856554,0.080078125,,
0.19116499999910594,1200,,,,-0.03125,0.056640625,-1.015625,-0.0002874947471085638,0.011913053908620198,23.012786958711725,0.30895338424660207,566,0,7.109878411840056,0.017025866251351458,0.23946775549632945,0.6997032475616081,0.0016755636620707083,0.080078125,,
0.19903499999828636,1200,,,,-0.0625,0.09375,-1.05078125,-0.0002874947471085638,0.011913053908620198,23.013140420565414,0.30243531031335574,627,0,6.959986264378531,0.018886660449626214,0.27136059946395075,0.6307655045948564,0.0017116490544804163,0.080078125,,
0.20728999999910594,1200,,,,-0.0625,0.060546875,-0.9921875,-0.0002874947471085638,0.011913053908620198,23.013281296946424,0.29621426429857683,652,0,6.816862188471183,0.019622145106433918,0.28784717314102803,0.6071229136265035,0.0017475861443653354,0.080078125,,
0.21514499999955297,1200,,,,-0.03125,0.0078125,-0.99609375,-0.0002874947471085638,0.011913053908620198,23.013508985274825,0.28999914557847967,661,0,6.6738979424923635,0.019908321771990166,0.2983012617743959,0.5983956882483766,0.0017850218884484879,0.08203125,,
0.22279999999888242,1200,,,,-0.0625,0.0546875,-0.984375,-0.0002874947471085638,0.011913053908620198,23.013696916800615,0.28311676667705593,665,0,6.515563460370322,0.020023872546246078,0.30732372830128174,0.5949425557472181,0.0018283996435732822,0.08203125,,
0.23246000000089406,1200,,,,-0.03125,0.052734375,-0.97265625,-0.0002874947471085638,0.011913053908620198,23.013971329010417,0.2769484235875294,667,0,6.373683080058034,0.02006643887059961,0.314832705337726,0.5936805222612088,0.0018691004492981044,0.080078125,,
0.23974000000022352,1200,,,,-0.03125,0.01953125,-0.94921875,-0.0002874947471085638,0.011913053908620198,23.014346072548655,0.26932561872843325,748,0,6.198352995619454,0.022512323186813954,0.3631984690566031,0.5291792326257105,0.0019219708714620608,0.080078125,,
0.24711999999918044,1200,,,,-0.0625,0.02734375,-0.95703125,-0.0002874947471085638,0.011913053908620198,23.01458457760137,0.2644722731787733,769,0,6.086719499503372,0.023156293942974228,0.380439643142149,0.514462890217141,0.001957220783640877,0.080078125,,
0.25608500000089407,1200,,,,-0.03125,0.0703125,-0.970703125,0.007027869602559807,0.011913053908620198,23.014850672990026,0.25938448473949627,779,0,5.969695183169967,0.5736597544427585,9.60953175733404,0.020766759069916447,0.0019955883077926685,0.080078125,,
0.264144999999553,1200,,,,-0.0625,0.07421875,-0.986328125,0.007027869602559807,0.011913053908620198,23.014912965587474,0.2520455774546503,784,0,5.800807028480013,0.5768134889053286,9.943676562129514,0.02065321657305325,0.002053689055700544,0.080078125,,
0.27243999999947843,1200,,,,0,0.00390625,-0.96484375,0.007027869602559807,0.011913053908620198,23.015165564768978,0.24611499220525304,785,0,5.6643772935757255,0.5779065643814846,10.202473006819645,0.020614152257243123,0.0021031533196299323,0.080078125,,
0.28145999999903143,1200,,,,-0.0625,0.0859375,-0.994140625,0.007027869602559807,0.011913053908620198,23.014173894236528,0.28410025404257816,786,0,6.538332649932668,0.5783581606169997,8.845652119320599,0.02059805622161742,0.0018220323967063497,0.080078125,,
0.28924499999918046,1200,,,,0.03125,-0.0703125,-0.90234375,0.007027869602559807,0.011913053908620198,23.013204370648438,0.32195600989265216,816,0,7.409239454018114,0.6005224898405223,8.105049021122568,0.019837814753255766,0.0016078646104708645,0.08203125,,
0.2963300000000745,1200,,,,0.125,-0.1640625,-0.96484375,0.007027869602559807,0.011913053908620198,23.011780009549604,0.36408392457828054,828,0,8.378219177408841,0.6094847762001963,7.274633944211203,0.01954610578280817,0.001421907646047592,0.08203125,,
0.30390000000037254,1200,,,,0,0.1640625,-0.900390625,0.007027869602559807,0.011913053908620198,23.010226771656345,0.4065302862291475,833,0,9.354354075679046,0.6128095614214647,6.551062280342215,0.019440058802259613,0.001273530359471176,0.0859375,,
0.3119550000000745,1200,,,,-0.15625,0.091796875,-1.01953125,0.007027869602559807,0.05496283721583748,23.00865882026227,0.44557582568016185,835,0,10.2521021516315,0.6143486771226779,5.992416657933044,0.08946521619165475,0.005361128518124529,0.087890625,,
0.32088000000081957,1200,,,,0,-0.07421875,-0.828125,0.007027869602559807,0.05496283721583748,23.007254236118,0.4813997301944922,836,0,11.075685981783295,0.614962169372605,5.5523619068296295,0.08937596482058649,0.004962477024559694,0.087890625,,
0.32923000000044705,1200,,,,-0.09375,0.12109375,-0.88671875,0.007027869602559807,0.05496283721583748,23.006117697504486,0.5061264364212489,995,0,11.644004366125772,0.7321871975902261,6.288104801130727,0.07506664606637636,0.004720269375347622,0.08984375,,
0.337695000000298,1200,,,,0.125,0.12109375,-1,0.007027869602559807,0.05496283721583748,23.00541641057596,0.5235671352846745,1049,0,12.044879966116294,0.7718761606881799,6.408334187302497,0.07120680753611355,0.004563170191023456,0.091796875,,
0.3462849999982864,1200,,,,-0.125,0.10546875,-0.99609375,0.007027869602559807,0.05496283721583748,23.00511912218171,0.5378492442777072,1071,0,12.373285934384064,0.7881761023148345,6.369982125157035,0.06973420921341605,0.004442056662014212,0.091796875,,
0.355394999999553,1200,,,,-0.03125,-0.02734375,-1.037109375,0.007027869602559807,0.05496283721583748,23.004690366062324,0.5468532734171603,1135,0,12.580190230629393,0.8349662526140086,6.637151245782352,0.06582641758725777,0.004368998894946572,0.091796875,,
0.3645250000003725,1200,,,,-0.03125,0.06640625,-0.9609375,0.007027869602559807,0.05496283721583748,23.004361421816274,0.5503057946375105,1268,0,12.659433392361095,0.9331850765296128,7.371460061496209,0.058898109922885536,0.004341650649941643,0.091796875,,
0.37323000000044704,1200,,,,-0.09375,0.087890625,-1.04296875,0.007027869602559807,0.05496283721583748,23.004194453270596,0.5515673276143009,1316,0,12.688362058510187,0.9687284488028843,7.6347793697544315,0.05673709416065808,0.004331751959976068,0.091796875,,
0.3839049999993294,1200,,,,-0.0625,0.048828125,-0.984375,0.007027869602559807,0.05496283721583748,23.004284860271834,0.5496076767869766,1333,0,12.643331558199822,0.9808290945305256,7.757679137144906,0.05603711953726809,0.004347179931399599,0.09375,,
0.39101999999955295,1200,,,,-0.0625,0.171875,-0.97265625,0.007027869602559807,0.05496283721583748,23.004268056381946,0.5440163264295458,1440,0,12.514697400233453,1.0594312483456463,8.465496323753568,0.05187956962914266,0.004391863059734244,0.09375,,
0.3996349999997765,1200,,,,0,0.078125,-0.9765625,0.034926353928390996,0.05496283721583748,23.004320852851563,0.5372972994903968,1472,0,12.360159470847767,5.3836970794569154,43.55685775862934,0.010209125142936516,0.004446774116909323,0.09375,,
0.40670499999821186,1200,,,,-0.03125,0.06640625,-1,0.034926353928390996,0.05496283721583748,23.004498495683077,0.5342092190115136,1485,0,12.289215175130396,5.429609440004164,44.18190553772733,0.010122797564569458,0.00447244485775344,0.09375,,
0.41431499999947846,1200,,,,-0.125,0.046875,-0.97265625,0.034926353928390996,0.05496283721583748,23.00473973847357,0.5266956628395411,1528,0,12.116496645006468,5.587650689079507,46.11605856699781,0.009836484110085253,0.004536198773140349,0.09375,,
0.42213000000081957,1200,,,,0,0.03515625,-1.01171875,0.034926353928390996,0.05496283721583748,23.005092166902806,0.5192571850844953,1547,0,11.945559401195322,5.659782654396946,47.379804195947536,0.009711121534523628,0.00460111036828779,0.09375,,
0.44250999999977647,1200,,,,-0.041015625,0.0546875,-0.9375,0.034926353928390996,0.05496283721583748,23.005746938966336,0.49959827006687796,1577,0,11.493631372303954,5.767724719407878,50.181918425766504,0.009529379415576555,0.004782025404806412,0.091796875,,
0.45025,1200,,,,-0.0625,0.0703125,-1.00390625,0.034926353928390996,0.05496283721583748,23.005859451668815,0.49027938764056533,1593,0,11.279298684109099,5.82476697326646,51.64121579183566,0.009436057694341544,0.004872894916177029,0.091796875,,
0.4584150000009686,1200,,,,-0.125,0.0390625,-0.953125,0.034926353928390996,0.13242839091449898,23.00606484650792,0.480402318398594,1599,0,11.052166889490797,5.846890691525861,52.9026637942421,0.02264937005003923,0.011982120089086017,0.091796875,,
0.46638999999873343,1200,,,,0,0.021484375,-0.923828125,0.034926353928390996,0.13242839091449898,23.006419189391508,0.4718079065906462,1607,0,10.85461047589368,5.878781793000296,54.1593068314714,0.0225265021865887,0.012200197437632688,0.091796875,,
0.4751200000010431,1200,,,,-0.0625,0.0078125,-1.046875,0.034926353928390996,0.13242839091449898,23.006616445898562,0.4625691232372352,1618,0,10.642150398034653,5.917049991991694,55.6001350355322,0.02238081325892656,0.012443762394013461,0.091796875,,
0.483464999999851,1200,,,,-0.0625,0.095703125,-0.97265625,0.034926353928390996,0.13242839091449898,23.0068795570624,0.45418880023596564,1621,0,10.449467023195536,5.929931952813323,56.74865464095124,0.022332194023182896,0.012673219659963219,0.091796875,,
0.49226999999955295,1200,,,,0,0.060546875,-0.99609375,0.034926353928390996,0.13242839091449898,23.007306364268345,0.44441413836645877,1631,0,10.22477223400946,5.963701767029059,58.32601089335465,0.022205736652802295,0.012951720379063112,0.091796875,,
0.5107199999988079,1200,,,,-0.0625,0.05859375,-1.00390625,0.034926353928390996,0.13242839091449898,23.00836877923948,0.42411250686312146,1640,0,9.758136961794433,6.000016489854403,61.487315799583264,0.02207133782689196,0.013571073190813937,0.091796875,,
0.5189949999991804,1200,,,,-0.125,0.109375,-1.046875,0.034926353928390996,0.13242839091449898,23.008487219404717,0.41568814889378974,1645,0,9.564355461080767,6.017905231144544,62.920133569194256,0.022005728875413424,0.013846034001284877,0.091796875,,
0.52575,1200,,,,-0.03125,0.005859375,-0.982421875,0.034926353928390996,0.13242839091449898,23.008801883933515,0.40828773393313433,1647,0,9.394211581707648,6.023949106764044,64.12405186289226,0.02198365035418387,0.014096807354473766,0.091796875,,
0.5361199999991805,1200,,,,-0.03125,0.01171875,-0.931640625,0.034926353928390996,0.13242839091449898,23.00902411030285,0.40202375756604075,1648,0,9.250174330751578,6.026676646720442,65.15203315342029,0.021973701042441528,0.014316312988204965,0.091796875,,
0.5527649999987334,1200,,,,-0.03125,0.056640625,-0.9453125,0.023470104010107285,0.13242839091449898,23.009685355910996,0.38682029814897484,1653,0,8.900613349687593,4.063741844834161,45.65687425324229,0.032587796166934746,0.014878569117840308,0.091796875,,
0.560894999999553,1200,,,,-0.0625,0.05859375,-0.953125,0.023470104010107285,0.13242839091449898,23.010006759569286,0.38128445615922085,1654,0,8.773357913542371,4.066100875490296,46.34600475165783,0.03256888969792974,0.015094379166964716,0.08984375,,
0.5691150000002235,1200,,,,-0.0625,-0.001953125,-0.9921875,0.023470104010107285,0.13242839091449898,23.010207957644017,0.37608265501165167,1655,0,8.653740101080997,4.068285384425581,47.011873905450244,0.03255140148758201,0.015303023821798909,0.08984375,,
0.5829900000002235,1200,,,,-0.0625,0.09375,-0.98046875,0.023470104010107285,0.13242839091449898,23.01063822182239,0.3678560018725341,1656,0,8.464601376814901,4.070231149672785,48.085325799528086,0.03253584036010957,0.015644964838773038,0.08984375,,
0.5897999999988824,1200,,,,0,0.046875,-1.001953125,0.023470104010107285,0.13242839091449898,23.01061127660762,0.3633588294901921,1656,0,8.36110877932196,4.0704959001669305,48.683685472837794,0.03253372418556376,0.015838615955100423,0.091796875,,
0.596969999998808,1200,,,,-0.03125,0.0546875,-0.984375,0.023470104010107285,0.13242839091449898,23.010931443984433,0.3596627669506538,1659,0,8.276175273255244,4.077392311544901,49.26662591017302,0.032478697362413635,0.016001158330037554,0.091796875,,
0.6279849999994039,1200,,,,-0.01953125,0.01953125,-0.96875,0.023470104010107285,0.36775556757486344,23.010811553371337,0.3384439526400014,1661,0,7.787870015577205,4.08353374702574,52.43453908267478,0.09005816784120367,0.047221585213836785,0.091796875,,
0.640945000000298,1200,,,,-0.0625,0.0546875,-1.001953125,0.023470104010107285,0.36775556757486344,23.01090610591685,0.33123031072281206,1663,0,7.621909579476291,4.0881043320117945,53.6362218599383,0.08995748095154103,0.048249794062780293,0.091796875,,
0.6490099999997765,1200,,,,-0.01953125,0,-0.9140625,0.023470104010107285,0.36775556757486344,23.01111824173833,0.3282002469659153,1665,0,7.5522546899003995,4.091077843843365,54.17028439618632,0.08989209729369883,0.04869480475369316,0.091796875,,
0.6571249999981373,1200,,,,-0.0625,0.068359375,-0.984375,0.023470104010107285,0.36775556757486344,23.011460997982184,0.32363945731797905,1666,0,7.447416749480794,4.094262536311118,54.975606630266185,0.089822175376718,0.049380285801852296,0.091796875,,
0.665,1200,,,,-0.0625,0.0859375,-0.9453125,0.023470104010107285,0.36775556757486344,23.01168214913936,0.3208897305815904,1666,0,7.384212485066524,4.0953307183858145,55.46062937202869,0.08979874712531526,0.04980295032389637,0.091796875,,
0.672769999999553,1200,,,,-0.03125,0.060546875,-0.998046875,0.023470104010107285,0.36775556757486344,23.01178221404841,0.3176346271449074,1666,0,7.309338863499079,4.094112409231078,56.012075588340856,0.08982546906764882,0.05031310963175319,0.091796875,,
0.6816200000010431,1200,,,,0.0625,-0.05078125,-0.95703125,0.023470104010107285,0.36775556757486344,23.011942108853177,0.3130408876529146,1665,0,7.203678784372882,4.091662005977435,56.79961764610574,0.08987926349674434,0.051051078009286675,0.091796875,,
0.6928849999997765,1200,,,,-0.0625,0.025390625,-0.998046875,0.023470104010107285,0.36775556757486344,23.012044013526385,0.3084034588642021,1664,0,7.096993969306793,4.090837013518863,57.641827387919285,0.08989738930188441,0.05181849796763803,0.091796875,,
0.7007050000000745,1200,,,,-0.0625,0.091796875,-0.96875,0.018917359532749433,0.36775556757486344,23.011969996782575,0.30382929495842637,1666,0,6.991710619726911,3.299465560425978,47.19110586637597,0.11145913204421636,0.052598797000729926,0.091796875,,
0.7085,1200,,,,0,0.033203125,-0.970703125,0.018917359532749433,0.36775556757486344,23.012062994081592,0.3011567109818812,1666,0,6.930237204205474,3.300641721167247,47.62667747020722,0.11141941435703887,0.053065365115020656,0.08984375,,
0.715570000000298,1200,,,,-0.09375,0.00390625,-0.970703125,0.018917359532749433,0.36775556757486344,23.01224362947367,0.29860489782017224,1666,0,6.871568657591895,3.3011324391590593,48.04044903941808,0.11140285170398878,0.05351843020131323,0.08984375,,
0.7238049999997019,1200,,,,-0.125,0.12109375,-0.96875,0.018917359532749433,0.36775556757486344,23.012503446731614,0.29655737070403876,1666,0,6.824527515480357,3.3010311180577294,48.370104898395745,0.11140627107788202,0.05388733018376266,0.091796875,,
0.731629999998957,1200,,,,0.03125,0.08203125,-0.998046875,0.018917359532749433,0.36775556757486344,23.012567199584918,0.2938291359617232,1666,0,6.761762736515129,3.3009961184214194,48.81857360352581,0.11140745229071311,0.05438752909635468,0.091796875,,
0.7397400000002236,1200,,,,0,0.0078125,-1.03515625,0.018917359532749433,0.36775556757486344,23.012800122406922,0.29104134762277273,1666,0,6.69767636019882,3.3009794608694962,49.285442940863554,0.11140801448004,0.05490793340810911,0.091796875,,
0.7476549999993295,1200,,,,-0.09375,0.068359375,-1.001953125,0.018917359532749433,0.36775556757486344,23.01305599208396,0.2876818129818845,1666,0,6.620437670056334,3.3010766894280823,49.86191025343485,0.11140473311408519,0.05554852804342378,0.091796875,,
0.7556949999984354,1200,,,,-0.0625,-0.02734375,-0.9609375,0.018917359532749433,0.36775556757486344,23.013134691752658,0.28604343578478597,1666,0,6.582756115406982,3.3013217686665066,50.15105695530391,0.11139646279417649,0.05586650350210138,0.091796875,,
0.7634799999985844,1200,,,,-0.03125,0.052734375,-0.978515625,0.018917359532749433,0.44576520816299864,23.01327259737711,0.2842477529973346,1667,0,6.541471024919578,3.3014178953624134,50.46904408482038,0.13502235169597174,0.06814449020180119,0.091796875,,
0.7718149999994784,1200,,,,-0.0625,0.087890625,-0.998046875,0.018917359532749433,0.44576520816299864,23.01341005641267,0.28229619381401627,1667,0,6.496598065606502,3.3014571525480356,50.818245475677614,0.13502074616323914,0.06861517422832643,0.091796875,,
0.7796349999997765,1200,,,,0,0.015625,-0.953125,0.018917359532749433,0.44576520816299864,23.013406360205952,0.2801822774466261,1665,0,6.4479486058071735,3.299303572756875,51.16826721890191,0.13510887929312923,0.06913287239317199,0.091796875,,
0.7874549999982119,1200,,,,-0.03125,0.013671875,-0.900390625,0.018917359532749433,0.44576520816299864,23.013338110646124,0.2780246128005878,1665,0,6.3982744174614,3.2984531366599534,51.55222988964356,0.1351437142485477,0.0696695982508143,0.091796875,,
0.7956499999985099,1200,,,,-0.0625,0.00390625,-0.99609375,0.018917359532749433,0.44576520816299864,23.01346909146403,0.2755687551584087,1665,0,6.341793029411257,3.298112262037372,52.00599021036726,0.1351576819545955,0.07029009084586625,0.091796875,,
0.8047399999983609,1200,,,,-0.03125,0.0078125,-1.01953125,0.018917359532749433,0.44576520816299864,23.013388660809436,0.27237702500809163,1664,0,6.268318338786225,3.2966589213200197,52.59239788319962,0.13521726657257863,0.07111400284263722,0.091796875,,
0.813679999999702,1200,,,,-0.03125,0.091796875,-0.998046875,0.018917359532749433,0.44576520816299864,23.01338563273304,0.2722092536192068,1664,0,6.264456526337238,3.2961320927291338,52.61640940233882,0.13523887866821308,0.07115784207119924,0.091796875,,
0.821574999999255,1200,,,,0,0.01171875,-0.916015625,0.018917359532749433,0.44576520816299864,23.013317562866092,0.2713753772382651,1664,0,6.245247735126777,3.295956725937346,52.775436071159135,0.1352460742749061,0.07137670546770547,0.091796875,,
0.829910000000149,1200,,,,-0.0625,0.02734375,-0.98046875,0.018917359532749433,0.44576520816299864,23.013384991351465,0.2700851366994371,1665,0,6.215573231305935,3.299333386959761,53.081723345194156,0.1351076583908843,0.07171747344521918,0.091796875,,
0.8387350000012666,1200,,,,-0.0625,0.060546875,-0.978515625,0.018917359532749433,0.44576520816299864,23.013311346540792,0.2699889539434051,1666,0,6.213339857226444,3.3006896711827816,53.12263206307482,0.13505214139179023,0.07174325216486428,0.091796875,,
0.8479749999996274,1200,,,,-0.03125,0.0703125,-0.966796875,0.018917359532749433,0.44576520816299864,23.01331248398581,0.27189582576873295,1666,0,6.257223601507213,3.3011724148433084,52.75778244600586,0.13503239217638896,0.07124009569605674,0.091796875,,
0.8563900000005961,1200,,,,-0.0625,0.041015625,-0.96484375,0.01320575307719863,0.44576520816299864,23.013394142779553,0.2718739823189948,1668,0,6.256743112274107,2.3065376404685876,36.86482885870381,0.19326162311074996,0.07124556660933112,0.091796875,,
0.8654299999997019,1200,,,,-0.0625,0.021484375,-1.009765625,0.01320575307719863,0.44576520816299864,23.013465235339932,0.2708842351668855,1668,0,6.233984928814766,2.307196843080155,37.009984294569186,0.19320640520983592,0.07150566022426197,0.091796875,,
0.875699999999255,1200,,,,0,0.03125,-0.96484375,0.01320575307719863,0.44576520816299864,23.013620790786444,0.2695933152261567,1669,0,6.204318324345723,2.3074394840962245,37.19086229089568,0.19318608840465235,0.07184757210374224,0.091796875,,
0.8845350000001491,1200,,,,-0.01953125,0.07421875,-0.98828125,0.01320575307719863,0.44576520816299864,23.013605331475045,0.26805872875063846,1672,0,6.168997789124116,2.3116383522619017,37.471862225940455,0.1928351845031574,0.07225893466016123,0.091796875,,
0.892429999999702,1200,,,,-0.0625,-0.05078125,-0.96484375,0.01320575307719863,0.44576520816299864,23.013526891806574,0.2666370525596348,1673,0,6.136258979433199,2.313092335055375,37.69548095685221,0.1927139705611134,0.07264445807405827,0.091796875,,
0.900929999999702,1200,,,,-0.09375,0.0546875,-1.0078125,0.01320575307719863,0.44576520816299864,23.013550303198336,0.2665571950861605,1673,0,6.134427417794807,2.3136710490106687,37.71616960205853,0.19266576739749106,0.0726661475967453,0.091796875,,
0.9084499999992549,1200,,,,-0.0625,0.1171875,-0.953125,0.01320575307719863,0.46724464516482855,23.013604601072718,0.2658481778172627,1672,0,6.1181248482021555,2.312806631047716,37.802540622023216,0.202024950504904,0.07637056398123862,0.091796875,,
0.9155499999988824,1200,,,,0,0.05078125,-0.974609375,0.01320575307719863,0.46724464516482855,23.01370783285728,0.2644112272589585,1672,0,6.085082731864899,2.3124861880583345,38.00254310346287,0.20205294525765266,0.0767852576133557,0.091796875,,
0.9236549999993294,1200,,,,-0.03125,0.0078125,-0.986328125,0.01320575307719863,0.46724464516482855,23.013821036889997,0.26572716285879894,1672,0,6.115397370672921,2.3123353028740037,37.81169338174276,0.2020661296759556,0.07640462538142705,0.091796875,,
0.9313799999989569,1200,,,,0,0.03515625,-0.98828125,0.01320575307719863,0.46724464516482855,23.014121509928582,0.26316040405929914,1671,0,6.056405515622613,2.310321849549867,38.14674964531929,0.2022422309929954,0.07714883753400628,0.091796875,,
0.9392599999997765,1200,,,,-0.09375,0.080078125,-0.951171875,0.01320575307719863,0.46724464516482855,23.014213504815597,0.26367654866245155,1670,0,6.06830838713056,2.30951914313778,38.05869767653407,0.2023125231731209,0.07699751155622601,0.091796875,,
0.947609999999404,1200,,,,0,0.046875,-0.98046875,0.01320575307719863,0.46724464516482855,23.014104140519162,0.26342115842805947,1670,0,6.062401972879558,2.309200487109544,38.0905208437161,0.20234044110638685,0.07707252789489538,0.08984375,,
0.9557099999990314,1200,,,,-0.03125,0.0703125,-0.990234375,0.01320575307719863,0.46724464516482855,23.01409903017567,0.26477607237868295,1671,0,6.093582750543971,2.310385067992829,37.91505199115549,0.202236697093421,0.07667814884816619,0.08984375,,
0.964480000000447,1200,,,,-0.09375,0.0625,-0.98828125,0.01320575307719863,0.46724464516482855,23.01412725619213,0.26295046314831655,1671,0,6.051575420970016,2.3115159378792267,38.19692851995738,0.20213775622655533,0.07721041425770303,0.08984375,,
0.9876699999999254,1200,,,,-0.0625,0.091796875,-1.013671875,0.01320575307719863,0.46724464516482855,23.01421828952114,0.25896724340727056,1672,0,5.959928669610479,2.312400729637425,38.79913431562186,0.20206041244334438,0.0783976908225927,0.08984375,,
0.9949950000010431,1200,,,,0,0.02734375,-1.03125,0.01320575307719863,0.46724464516482855,23.014097207123797,0.25977200707916337,1672,0,5.978418222609517,2.312527352466029,38.68125758951395,0.2020493485910854,0.07815522898645273,0.08984375,,
1.0050700000002981,1200,,,,-0.0625,0.03125,-0.9453125,0.010959483526515983,0.46724464516482855,23.013783706376696,0.25836716868551063,1672,0,5.946006136957283,1.9192082954184067,32.277267315443986,0.2434569745661528,0.07858125847880962,0.08984375,,
1.0135599999986589,1200,,,,-0.03125,0.021484375,-0.96484375,0.010959483526515983,0.46724464516482855,23.01403700335645,0.25818053405420627,1671,0,5.941776364269833,1.917423858997483,32.270212499542794,0.24368354601007491,0.0786371981238723,0.08984375,,
1.0226549999993295,1200,,,,-0.0625,0.078125,-1.076171875,0.010959483526515983,0.46724464516482855,23.014137644485942,0.2568629494839421,1670,0,5.911479275192083,1.9168754005163549,32.42632362022565,0.2437532690121462,0.07904022384475776,0.08984375,,
1.030969999998808,1200,,,,0,0.0546875,-0.9765625,0.010959483526515983,0.46724464516482855,23.014183165826235,0.25643495600048916,1670,0,5.901641047515849,1.9171022291584043,32.484222841125884,0.24372442849328174,0.07917198647001815,0.08984375,,
1.039160000000149,1200,,,,-0.03125,0.07421875,-0.953125,0.010959483526515983,0.46724464516482855,23.014468983553606,0.25637715652195453,1671,0,5.90038411686619,1.918029323371484,32.50685523826857,0.24360662241780157,0.07918885210019028,0.08984375,,
1.0473899999987335,1200,,,,-0.0625,0.03515625,-0.9921875,0.010959483526515983,0.46724464516482855,23.01426106552956,0.25530637770357817,1672,0,5.875687628164843,1.9184150788024714,32.650052218682205,0.243557637931253,0.07952169596714305,0.091796875,,
1.0547799999993295,1200,,,,-0.125,0.12109375,-1.1171875,0.010959483526515983,0.47641940891646767,23.014512469776157,0.25558942877059154,1671,0,5.882266095583744,1.9180284442677047,32.60696495365471,0.2483901687382757,0.08099249526881337,0.091796875,,
1.0626399999987335,1200,,,,-0.03125,0.0546875,-0.9609375,0.010959483526515983,0.47641940891646767,23.014390126878567,0.2563656763923018,1670,0,5.900099691633536,1.916769218405617,32.48706494101508,0.24855334921997382,0.08074768797416089,0.091796875,,
1.0708749999981373,1200,,,,0,0.015625,-0.875,0.010959483526515983,0.47641940891646767,23.014403749075317,0.2564704771548863,1670,0,5.902515110960551,1.9162694184408635,32.46530305161756,0.24861817671968972,0.08071464451345337,0.091796875,,
1.0800999999996275,1200,,,,-0.0625,0.05078125,-0.98046875,0.010959483526515983,0.47641940891646767,23.014271540831075,0.25514993586815216,1670,0,5.872089907695288,1.9160587926712773,32.6299294253024,0.24864550646291317,0.08113285327803428,0.08984375,,
1.0887649999987334,1200,,,,-0.0625,0.0546875,-1.009765625,0.010959483526515983,0.47641940891646767,23.01429324735823,0.25509610953433687,1668,0,5.870856671083444,1.9142602593430778,32.6061487546043,0.248879120062787,0.08114989610682258,0.091796875,,
1.0962699999995529,1200,,,,0,0.072265625,-0.994140625,0.010959483526515983,0.47641940891646767,23.014247075921716,0.25484268265496934,1667,0,5.865012464112174,1.9136595877676064,32.62839762877281,0.24895723981517434,0.08123075813251258,0.091796875,,
1.104660000000149,1200,,,,-0.0625,0.1171875,-0.984375,0.010959483526515983,0.47641940891646767,23.014399756779106,0.25491688514220445,1667,0,5.866759099415638,1.9134155874105596,32.61452456094791,0.24898898705074823,0.08120657433572169,0.08984375,,
1.1126749999988823,1200,,,,-0.03125,0.009765625,-0.99609375,0.010959483526515983,0.47641940891646767,23.014282116701356,0.25445495359869097,1667,0,5.856098088112427,1.9131402797652026,32.66919800487593,0.24902481744565955,0.08135441069260335,0.08984375,,
1.1207599999997764,1200,,,,-0.03125,0.0078125,-0.94921875,0.010959483526515983,0.47641940891646767,23.014367429209933,0.25390198717913737,1667,0,5.843393623947217,1.9130308531193456,32.73835336506206,0.24903906183197658,0.08153128807958789,0.08984375,,
1.128804999999702,1200,,,,-0.0625,0.11328125,-0.94140625,0.010959483526515983,0.47641940891646767,23.014251162624042,0.2539685630116302,1667,0,5.844896296560367,1.9129883894645456,32.72921010746265,0.24904458988892225,0.08151032708601405,0.08984375,,
1.1369199999999255,1200,,,,0.03125,0.01953125,-0.974609375,0.010959483526515983,0.47641940891646767,23.014336288087804,0.25466524295449017,1667,0,5.86095154224222,1.9127923536302491,32.63620829901067,0.24907011365466883,0.08128704110292033,0.08984375,,
1.144839999999851,1200,,,,-0.09375,0.025390625,-0.966796875,0.010959483526515983,0.47641940891646767,23.014417321515797,0.25421865838493596,1667,0,5.850694294986777,1.9127143768036603,32.692092260615766,0.24908026765220054,0.08142955090384608,0.08984375,,
1.1529249999988824,1200,,,,-0.125,0.02734375,-0.89453125,0.011830960414518338,0.47641940891646767,23.014297377650582,0.253947066308274,1667,0,5.844413302200569,2.0647761026280533,35.32905692776062,0.2307365957549003,0.08151706326742562,0.08984375,,
1.162934999998659,1200,,,,0,0.029296875,-0.96875,0.011830960414518338,0.47641940891646767,23.014446210902086,0.25417085929883093,1668,0,5.849601569711707,2.0667100377730083,35.33078301390815,0.23052068273197884,0.08144476221821507,0.08984375,,
1.1724299999997019,1200,,,,-0.03125,0.08984375,-1,0.011830960414518338,0.47641940891646767,23.014461848373593,0.25356285057438416,1669,0,5.835612550709018,2.067608471199456,35.4308729929002,0.23042051507947653,0.08164000004739577,0.08984375,,
1.1809549999982119,1200,,,,-0.0625,0.001953125,-0.9609375,0.011830960414518338,0.47641940891646767,23.0144380816731,0.2544072583406312,1669,0,5.855040094608669,2.067834103806949,35.317163851892566,0.23039537264588306,0.08136911126452498,0.08984375,,
1.1906549999993294,1200,,,,-0.0625,0.029296875,-0.953125,0.011830960414518338,0.47641940891646767,23.01441397304469,0.2551701148162862,1668,0,5.872590655931355,2.066063906996934,35.18147318696896,0.23059277464894729,0.08112593518420715,0.08984375,,
1.1989649999979883,1200,,,,0,0.0390625,-1.0625,0.011830960414518338,0.47641940891646767,23.0143913081604,0.2539211254504799,1667,0,5.84384014252583,2.0654295638149813,35.343704027507144,0.23066359524577074,0.08152505840287226,0.08984375,,
1.209570000000298,1200,,,,-0.03125,0.076171875,-1.0546875,0.011830960414518338,0.5335314738521896,23.014228598070808,0.2502451208844375,1667,0,5.759198417586308,2.0651802232632517,35.858813562613335,0.2583462052571571,0.09263988408925034,0.08984375,,
1.2169399999994785,1200,,,,-0.0625,0.07421875,-0.921875,0.011830960414518338,0.5335314738521896,23.014357809815742,0.24950610877957366,1668,0,5.7422228631879175,2.0668979685334077,35.994736146237365,0.2581315004294882,0.09291375248991784,0.08984375,,
1.2252499999981374,1200,,,,-0.0625,0.033203125,-0.978515625,0.011830960414518338,0.5335314738521896,23.014446992944688,0.24975956616570585,1669,0,5.7480782965014985,2.067788251552187,35.97355750722328,0.25802036231306263,0.09281910341703545,0.08984375,,
1.233019999999553,1200,,,,0,0.046875,-0.9921875,0.011830960414518338,0.5335314738521896,23.01433904437176,0.24957123298002262,1669,0,5.743716971524136,2.068015154956529,36.00482344811232,0.2579920522213991,0.09288958291247648,0.08984375,,
1.241910000000149,1200,,,,-0.0625,0.103515625,-1.03125,0.011830960414518338,0.5335314738521896,23.01428381690934,0.2537604732406774,1669,0,5.840115552674178,2.067986845743513,35.41003302231898,0.2579955839421051,0.09135632147002407,0.08984375,,
1.2489999999981374,1200,,,,-0.0625,0.02734375,-0.9296875,0.011830960414518338,0.5335314738521896,23.014270149108906,0.2549296594985953,1669,0,5.86702005272102,2.0679773603352656,35.24749091962238,0.2579967673174585,0.09093738713314047,0.08984375,,
1.256105000000447,1200,,,,0,0.03515625,-0.98828125,0.011830960414518338,0.5335314738521896,23.014401041580214,0.2562880055126371,1669,0,5.898314941014551,2.0679738115576756,35.06041695362523,0.25799721005669485,0.09045489757459754,0.08984375,,
1.2640599999986588,1200,,,,-0.03125,0.01171875,-1.0078125,0.011830960414518338,0.5335314738521896,23.01447197826994,0.2552318907537387,1671,0,5.874027197712773,2.070375344078068,35.24626758426025,0.2576979461131332,0.09082890764617772,0.08984375,,
1.2720649999994784,1200,,,,-0.125,0.1015625,-1.0703125,0.011830960414518338,0.5335314738521896,23.01454718171116,0.25539329690157625,1672,0,5.877761081434093,2.0714627330140565,35.24237723028797,0.25756267073937705,0.0907712080263758,0.08984375,,
1.280089999999851,1200,,,,-0.03125,0.06640625,-0.97265625,0.011830960414518338,0.5335314738521896,23.01452045773865,0.25427393090644623,1672,0,5.851992584716031,2.071888491613674,35.40483795254523,0.2575097434112647,0.09117090736677332,0.08984375,,
1.287929999999702,1200,,,,0,-0.033203125,-0.900390625,0.011830960414518338,0.5335314738521896,23.014396898139193,0.2538432502946923,1674,0,5.842049312195737,2.0745467527419796,35.5105998234421,0.25717977825614574,0.09132608188335568,0.08984375,,
1.2969699999988078,1200,,,,-0.0625,0,-0.953125,0.011830960414518338,0.5335314738521896,23.01448453070764,0.2529126631052374,1676,0,5.82065457265556,2.07696765662694,35.68271627703488,0.2568800106972591,0.09166176538951981,0.08984375,,
1.3050099999997764,1200,,,,-0.0625,0.068359375,-1.0390625,0.014176292880907503,0.5335314738521896,23.01455970494227,0.2522223836813609,1677,0,5.804787108157537,2.4896948315892797,42.890372811269536,0.21429593180768,0.09191232407169789,0.08984375,,
1.3209149999991059,1200,,,,-0.0625,0.07421875,-0.96484375,0.014176292880907503,0.5335314738521896,23.014568855901064,0.25184204185535874,1675,0,5.7960360130908715,2.4866507257492625,42.90260999298378,0.2145582684079724,0.0920510971027717,0.08984375,,
1.328859999999404,1200,,,,-0.015625,0.0234375,-0.958984375,0.014176292880907503,0.5335314738521896,23.014657378196745,0.2513821831423898,1674,0,5.785474816005207,2.4844053071401646,42.94211600864963,0.21475218730165468,0.09221913340218908,0.08984375,,
1.3377099999990314,1200,,,,-0.09375,0.078125,-1.013671875,0.014176292880907503,0.5335314738521896,23.01493534497351,0.2500642169298108,1673,0,5.755211784731025,2.4834972639051363,43.15214377503928,0.21483070732811935,0.09270405569916393,0.08984375,,
1.345625,1200,,,,-0.03125,0.107421875,-0.9765625,0.014176292880907503,0.5335314738521896,23.014921827251865,0.25127011375129077,1672,0,5.782962025510641,2.482678386209177,42.93091283078163,0.2149015663147748,0.09225920410658035,0.08984375,,
1.3532900000009687,1200,,,,-0.0625,0.046875,-0.94140625,0.014176292880907503,0.5335314738521896,23.014969087513325,0.2504466670165908,1672,0,5.76402229945758,2.48239091359847,43.0669901091825,0.21492645293274265,0.09256235422656107,0.08984375,,
1.3618849999997764,1200,,,,-0.0625,0.01171875,-1.04296875,0.014176292880907503,0.5854604204997353,23.014952280425835,0.2484897188051521,1672,0,5.71897902047701,2.4822504820356786,43.40373470767931,0.2358587196323567,0.10237149295415725,0.08984375,,
1.368804999999702,1200,,,,-0.0625,0.0078125,-0.982421875,0.014176292880907503,0.5854604204997353,23.014911680595922,0.24974967661349015,1672,0,5.747966749516869,2.4824239734240225,43.18786244949445,0.2358422359627015,0.10185522046538366,0.08984375,,
1.376789999999106,1200,,,,-0.03125,0.10546875,-0.96484375,0.014176292880907503,0.5854604204997353,23.014867020612055,0.25065728436132967,1672,0,5.7688440673237436,2.4825063923068056,43.032995229813494,0.23583440603176503,0.10148660869790845,0.08984375,,
1.38475,1200,,,,0,0.03515625,-0.953125,0.014176292880907503,0.5854604204997353,23.01485740634071,0.2500892165646396,1672,0,5.755767658098642,2.4825388216026774,43.131324422201544,0.23583132533725046,0.10171717402038707,0.08984375,,
1.3931850000005215,1200,,,,-0.0625,0.005859375,-0.98828125,0.014176292880907503,0.5854604204997353,23.014714849829446,0.25067209707528215,1671,0,5.769146834996384,2.4799516376770256,42.98645377915017,0.23607735393103751,0.10148128263060621,0.08984375,,
1.4011799999997019,1200,,,,-0.09375,0.048828125,-1.001953125,0.014176292880907503,0.5854604204997353,23.01490738720074,0.25084252550428704,1670,0,5.773117493252705,2.478958651105111,42.93968820143325,0.23617191849438032,0.10141148542082999,0.08984375,,
1.408964999999851,1200,,,,-0.0625,0.11328125,-0.96875,0.014176292880907503,0.5854604204997353,23.014960616938573,0.2495255259495671,1670,0,5.742820152650171,2.478564585716184,43.15936281884758,0.2362094673157633,0.10194650101127747,0.08984375,,
1.4165649999994785,1200,,,,0,0.048828125,-0.94140625,0.014176292880907503,0.5854604204997353,23.015011410531613,0.24980545689576686,1671,0,5.7492754408691376,2.479965579050119,43.135271645207766,0.2360760267987185,0.10183203544884072,0.08984375,,
1.4260950000006705,1200,,,,0,0.05078125,-0.984375,0.014176292880907503,0.5854604204997353,23.01492870836101,0.24862964823918335,1671,0,5.72219362900968,2.481305530571568,43.362837601163086,0.23594854131682638,0.1023139827935286,0.08984375,,
1.4335050000008196,1200,,,,-0.0625,0.017578125,-1.0078125,0.014176292880907503,0.5854604204997353,23.014768048700656,0.24702754116495787,1672,0,5.685281561552358,2.4818618223574678,43.654158470205985,0.23589565511895377,0.10297826310995865,0.08984375,,
1.440785000000149,1200,,,,-0.0625,0.02734375,-0.9609375,0.014176292880907503,0.5854604204997353,23.01482215599721,0.24638862198349812,1671,0,5.670590316211434,2.4808280756278576,43.7490267730242,0.23599395147588562,0.10324505701390294,0.08984375,,
1.4489749999996275,1200,,,,0,0.05078125,-0.9453125,0.014176292880907503,0.5854604204997353,23.014879042236895,0.2473921782768729,1670,0,5.693701059037736,2.4790816196351892,43.540775919383556,0.23616020378784022,0.10282598514202307,0.08984375,,
1.4569399999994785,1200,,,,-0.0625,0.0859375,-1.033203125,0.015138814295422845,0.5854604204997353,23.014835508647245,0.24810451660182128,1669,0,5.710084638543356,2.6466471547141706,46.3504014782753,0.2212083388059196,0.10253095313996718,0.08984375,,
1.4648549999985845,1200,,,,-0.0625,0.04296875,-0.953125,0.015138814295422845,0.5854604204997353,23.014697852424845,0.24755641591329833,1668,0,5.697436113673779,2.6451148883062596,46.42640716862126,0.22133648072829906,0.10275857575561706,0.08984375,,
1.476,1200,,,,-0.03125,-0.001953125,-0.900390625,0.015138814295422845,0.5854604204997353,23.01456333942155,0.24712847028219706,1667,0,5.687553832283981,2.6432389883575116,46.47409178536165,0.22149356266250292,0.10293712161043915,0.08984375,,
1.484214999999851,1200,,,,-0.08203125,0.095703125,-1.03125,0.015138814295422845,0.5854604204997353,23.01445988108574,0.24712789687640954,1667,0,5.687515068159222,2.64240744795913,46.45978808482264,0.22156326457220557,0.10293782319406163,0.08984375,,
1.4939050000011922,1200,,,,0,0.015625,-1.0234375,0.015138814295422845,0.5854604204997353,23.01454704145405,0.24642159548193396,1666,0,5.67128140124913,2.641103819124341,46.569789651817025,0.22167262652092373,0.10323247588645215,0.08984375,,
1.5018899999987334,1200,,,,-0.03125,0.0078125,-0.931640625,0.015138814295422845,0.5854604204997353,23.01462491641069,0.24637180857779076,1665,0,5.670154764395588,2.6396203986134776,46.552880975813174,0.22179720266113345,0.10325298776252056,0.08984375,,
1.5123650000002236,1200,,,,-0.03125,0.001953125,-0.93359375,0.015138814295422845,0.6065784995849615,23.01470049853771,0.24739644861167107,1665,0,5.693755169199485,2.63906965727264,46.3502482781268,0.22984558134468994,0.10653399760956767,0.08984375,,
1.5205849999990315,1200,,,,-0.0625,0.060546875,-1.015625,0.015138814295422845,0.6065784995849615,23.014476947383535,0.24816667012097346,1665,0,5.711426108608078,2.6403313720587613,46.22893340210317,0.22973574680968564,0.10620438539347395,0.08984375,,
1.5308849999997765,1200,,,,0,0.0625,-0.9765625,0.015138814295422845,0.6065784995849615,23.01457294513255,0.24779310714008515,1666,0,5.702852539576535,2.6415014023505092,46.31894975398845,0.22963398733962614,0.10636405121392162,0.08984375,,
1.539074999999255,1200,,,,-0.03125,-0.00390625,-0.9453125,0.015138814295422845,0.6065784995849615,23.014641006287693,0.2456144826981191,1666,0,5.652729145242271,2.6418257409244914,46.73540290088081,0.22960579503351078,0.10730719339268183,0.087890625,,
1.546804999999702,1200,,,,-0.125,0.04296875,-1.0078125,0.015138814295422845,0.6065784995849615,23.014642197185054,0.2462385905597457,1667,0,5.667093056871697,2.6419577190272285,46.61927539417574,0.2295943251538122,0.10703521073285499,0.087890625,,
1.5550349999982864,1200,,,,-0.03125,0.052734375,-0.970703125,0.015138814295422845,0.6065784995849615,23.014643557370277,0.24609285791935784,1667,0,5.663739407028588,2.6420113874846476,46.64782747959703,0.2295896612930425,0.10709858911096962,0.087890625,,
1.564214999999851,1200,,,,-0.0625,0.16015625,-0.93359375,0.015138814295422845,0.6065784995849615,23.01486340591305,0.24511144782167574,1667,0,5.641206490841451,2.6420330673568007,46.83453923635245,0.22958777733687027,0.107526377658706,0.087890625,,
1.5732050000000746,1200,,,,0,0.0234375,-0.970703125,0.015138814295422845,0.6065784995849615,23.014926223827974,0.2450126164291754,1667,0,5.638947291024533,2.642040918959812,46.85344236441307,0.22958709504914682,0.10756945725498225,0.087890625,,
1.5819949999991805,1200,,,,-0.09375,-0.00390625,-0.974609375,0.015138814295422845,0.6065784995849615,23.014985189692375,0.24432439961241773,1667,0,5.623122438560276,2.642043712587108,46.985349180189075,0.22958685228981146,0.10787218422017283,0.087890625,,
1.589574999999255,1200,,,,0,0.0234375,-0.931640625,0.015138814295422845,0.6065784995849615,23.015034024806816,0.24500668928450406,1667,0,5.638837290188133,2.6420447739780335,46.85442473354085,0.22958676005768733,0.10757155568940414,0.087890625,,
1.5971899999994785,1200,,,,-0.0625,0.1171875,-0.97265625,0.015138814295422845,0.6065784995849615,23.015076892756454,0.2444504522878738,1665,0,5.626045955874508,2.639928588141289,46.923338501790475,0.22977079846392323,0.10781612954149349,0.08984375,,
1.6052849999982863,1200,,,,-0.0625,0.0859375,-1.037109375,0.012605733188534418,0.6065784995849615,23.015023979392552,0.24450160548482872,1665,0,5.62721031323331,2.1974110588363245,39.04974110650798,0.2760423440783925,0.10779382070694823,0.08984375,,
1.6133000000007451,1200,,,,-0.0625,0.0078125,-0.974609375,0.012605733188534418,0.6065784995849615,23.015265662303154,0.24549886354631525,1664,0,5.650221564311957,2.1970991686173926,38.88518606942345,0.2760815297957961,0.10735481656440604,0.08984375,,
1.621280000001192,1200,,,,-0.0625,0.00390625,-0.9453125,0.012605733188534418,0.6065784995849615,23.015169903834508,0.24603651287251524,1665,0,5.662572146307904,2.1980839046322753,38.81776422160845,0.2759578459705968,0.1071206659998957,0.08984375,,
1.6310099999997765,1200,,,,-0.03125,0.025390625,-0.998046875,0.012605733188534418,0.6065784995849615,23.015016102354707,0.2463259007460644,1666,0,5.669194572097699,2.19901260712053,38.78880111018764,0.275841301509971,0.10699553382245568,0.08984375,,
1.638,1200,,,,-0.03125,0.060546875,-1.01171875,0.012605733188534418,0.6065784995849615,23.015069873067606,0.24841468090874955,1666,0,5.717281238610664,2.199405351052081,38.46942732498061,0.27579204501562476,0.10609562032536358,0.08984375,,
1.6463849999997764,1200,,,,-0.125,0.16015625,-0.93359375,0.012605733188534418,0.6065784995849615,23.01532153548022,0.24876396315695407,1665,0,5.725382598497653,2.198486259295787,38.398940533208595,0.27590734170849857,0.10594549606940301,0.08984375,,
1.654824999999255,1200,,,,-0.03125,0.021484375,-0.95703125,0.012605733188534418,0.6065784995849615,23.01516364960884,0.24840202078759585,1664,0,5.7170131593200555,2.197131337864713,38.43145496845464,0.2760774875545065,0.10610059530755113,0.08984375,,
1.662214999999851,1200,,,,-0.03125,0.044921875,-1.041015625,0.012605733188534418,0.5619052946100679,23.015208666977315,0.24789541998033252,1664,0,5.7053648184353305,2.1965470584615066,38.49967755548188,0.25581300088495923,0.09848718048571131,0.08984375,,
1.6703599999994039,1200,,,,-0.0625,0.08984375,-0.97265625,0.012605733188534418,0.5619052946100679,23.015125493457276,0.24836624267503601,1665,0,5.716180243504418,2.1974309833747574,38.442296949467405,0.2557100991390903,0.09830083564082659,0.08984375,,
1.6781850000005216,1200,,,,0,0.0234375,-0.90625,0.012605733188534418,0.5619052946100679,23.014972727629782,0.24790712236979404,1666,0,5.705575660325989,2.1989651176778455,38.54063548694063,0.2555316999313986,0.09848354102414328,0.08984375,,
1.6863449999988078,1200,,,,-0.0625,0.05078125,-0.974609375,0.012605733188534418,0.5619052946100679,23.015023206069344,0.24746913135485013,1666,0,5.6955078009176985,2.1995733026050717,38.61944148773989,0.25546104507841294,0.09865762882802653,0.08984375,,
1.6939550000000745,1200,,,,-0.125,0.06640625,-1.03125,0.012605733188534418,0.5619052946100679,23.0151361882896,0.2472662427838492,1666,0,5.69086625243697,2.1998125231189194,38.655143620303946,0.25543326474630307,0.09873809534171465,0.08984375,,
1.702285000000149,1200,,,,-0.0625,0.0859375,-0.958984375,0.012605733188534418,0.5619052946100679,23.015178562952165,0.24813657774334555,1665,0,5.71090764476296,2.197838953230264,38.48493251761364,0.25566263341734397,0.09839159194341876,0.08984375,,
1.7103399999979882,1200,,,,0.0625,0.01953125,-1,0.012605733188534418,0.5619052946100679,23.015219032522758,0.24768623351861593,1664,0,5.700552915771525,2.1970585049950446,38.541147454600726,0.2557534509584374,0.0985703146541213,0.08984375,,
1.718464999999851,1200,,,,-0.0625,0.015625,-0.994140625,0.012605733188534418,0.5619052946100679,23.015322313773236,0.2476850662097783,1664,0,5.700551631126312,2.1967525774395016,38.5357895092947,0.2557890680911436,0.09857033686738961,0.08984375,,
1.7382200000006705,1200,,,,-0.03125,0.109375,-0.958984375,0.012605733188534418,0.5619052946100679,23.01501300426479,0.24989420358901313,1666,0,5.75131834529153,2.19869565251077,38.22942011740301,0.25556301708624746,0.09770025946661198,0.08984375,,
1.7464099999982863,1200,,,,-0.03125,0.052734375,-1.029296875,0.012605733188534418,0.5619052946100679,23.01476620978082,0.2490355769170793,1666,0,5.731495580664469,2.198845491132457,38.36425345158407,0.25554560194253284,0.09803816241360942,0.08984375,,
1.7543349999990314,1200,,,,-0.125,0.01953125,-1.01171875,0.010567414094309675,0.5619052946100679,23.01469295160427,0.24852122203759033,1665,0,5.719639617152611,1.842461119207912,32.21288826803983,0.30497538794828694,0.09824138096480271,0.08984375,,
1.7620349999982863,1200,,,,-0.03125,-0.0078125,-0.94921875,0.010567414094309675,0.5619052946100679,23.0147538445333,0.2491380231552122,1665,0,5.733850276230846,1.8421582289395462,32.12777000083252,0.30502553243405883,0.09799790150422923,0.08984375,,
1.7703300000000746,1200,,,,0,0.05078125,-0.984375,0.010567414094309675,0.5619052946100679,23.014619989875797,0.24959388222079884,1665,0,5.7443083511095026,1.842030737735505,32.067058819704904,0.3050466439560311,0.09781948674491628,0.08984375,,
1.782414999999106,1200,,,,-0.03125,0.080078125,-1.046875,0.010567414094309675,0.5619052946100679,23.014549167611513,0.24996564528298035,1664,0,5.75284663357889,1.841731621791186,32.01426596428195,0.30509618663309035,0.09767430463559958,0.08984375,,
1.7925049999989568,1200,,,,-0.03125,0.037109375,-0.97265625,0.010567414094309675,0.5619052946100679,23.014510057454054,0.2498786283158191,1664,0,5.7508342045172425,1.8414753345201909,32.02101241370728,0.3051386483851418,0.09770848447842488,0.08984375,,
1.8006199999991805,1200,,,,-0.041015625,0.01171875,-0.9375,0.010567414094309675,0.5619052946100679,23.01459274521733,0.2497556931168596,1665,0,5.748025562884003,1.8422408225981672,32.04997616040255,0.30501185714557993,0.09775622750155946,0.08984375,,
1.8089849999994039,1200,,,,-0.0625,0.0546875,-1.05078125,0.010567414094309675,0.5110392875711023,23.01444852362069,0.24867252816561006,1666,0,5.723061098706049,1.843345457095803,32.209082260410824,0.27723467980670663,0.0892947460733287,0.08984375,,
1.817114999998361,1200,,,,-0.0625,0.140625,-1.017578125,0.010567414094309675,0.5110392875711023,23.01432586277581,0.24818685607538785,1666,0,5.711853180576816,1.8437168978225693,32.27878657827091,0.27717882727800564,0.08946996209722158,0.08984375,,
1.8243849999997765,1200,,,,-0.03125,-0.005859375,-0.892578125,0.010567414094309675,0.5110392875711023,23.014312046520132,0.2484863899108127,1666,0,5.718743316720715,1.8433155084856212,32.23287716194664,0.27723918407812204,0.0893621656486842,0.08984375,,
1.8325399999991059,1200,,,,0,0.03125,-0.95703125,0.010567414094309675,0.5110392875711023,23.01439456273539,0.24770335832153015,1665,0,5.700742822926319,1.8419693137095383,32.31104034901919,0.2774418030569257,0.08964433293076961,0.08984375,,
1.8406649999991058,1200,,,,-0.03125,0.0078125,-0.94921875,0.010567414094309675,0.5110392875711023,23.014473334658053,0.24716919824744807,1664,0,5.688468922214703,1.8414360707231914,32.37138315957014,0.2775221446435556,0.08983775679522185,0.08984375,,
1.848434999998659,1200,,,,-0.125,0.109375,-0.984375,0.010567414094309675,0.5110392875711023,23.014482863328475,0.24772045071732754,1664,0,5.70115806792994,1.8412267370099724,32.29566195273922,0.2775536968363796,0.0896378036676078,0.08984375,,
1.8557049999982118,1200,,,,-0.03125,0.11328125,-1.029296875,0.010567414094309675,0.5110392875711023,23.01445932353736,0.24808785514362766,1664,0,5.7096078508666475,1.8411434026851892,32.24640729758221,0.27756625954598885,0.08950514657386371,0.08984375,,
1.8640449999999256,1200,,,,-0.0625,-0.02734375,-0.94921875,0.010567414094309675,0.5110392875711023,23.01446950784032,0.24656685293893635,1664,0,5.674605318607299,1.8411101396572256,32.4447258670156,0.2775712742890257,0.09005723902865637,0.08984375,,
1.8721749999988824,1200,,,,-0.09375,0.015625,-0.98046875,0.010567414094309675,0.5110392875711023,23.014544649956246,0.24651414956533715,1664,0,5.673410902017444,1.8410971350139549,32.451327196471304,0.27757323492181135,0.09007619867430694,0.08984375,,
1.8805050000008197,1200,,,,0,0.052734375,-0.96875,0.010567414094309675,0.5110392875711023,23.014550636027558,0.24538887999072742,1662,0,5.647514804064686,1.8391817799993087,32.56621441125917,0.2778623043836887,0.09048923381365764,0.08984375,,
1.889285000000149,1200,,,,-0.03125,0.0546875,-0.951171875,0.010567414094309675,0.5110392875711023,23.014630986927855,0.2464768351899951,1661,0,5.672573408723571,1.8383879246083834,32.40835846709744,0.2779822912946759,0.09008949743782955,0.08984375,,
1.8974799999985843,1200,,,,-0.125,0.0859375,-1.05859375,0.010567414094309675,0.5110392875711023,23.01450200665952,0.2478121343513753,1661,0,5.7032728633043055,1.8381222090729443,32.229252450811046,0.2780224758988384,0.08960456562743194,0.08984375,,
1.9056249999981374,1200,,,,-0.03125,-0.0078125,-0.962890625,0.00981145791261728,0.5110392875711023,23.01436557913755,0.24857343833498116,1663,0,5.720759983104461,1.708901755475794,29.871935905768087,0.29904544596176524,0.08933066394681685,0.08984375,,
1.9134649999979882,1200,,,,0,0.00390625,-0.94921875,0.00981145791261728,0.5110392875711023,23.014494802798563,0.24928955772799136,1665,0,5.737273230722809,1.7106817082712822,29.81698168235509,0.2987342911894052,0.08907354888285826,0.08984375,,
1.9219749999996274,1200,,,,-0.03125,0.01953125,-1.017578125,0.00981145791261728,0.5110392875711023,23.01457806880332,0.2489596060925943,1666,0,5.729700290396535,1.7115569440228646,29.871666182812035,0.298581527979986,0.08919127732172094,0.08984375,,
1.9312449999991805,1200,,,,-0.03125,0.076171875,-1,0.00981145791261728,0.5110392875711023,23.014721752523325,0.2488140797068625,1665,0,5.726386812563601,1.7110393112956561,29.879911492211164,0.2986718564543828,0.08924288636071358,0.08984375,,
1.943179999999702,1200,,,,-0.0625,0.056640625,-0.93359375,0.00981145791261728,0.5110392875711023,23.014617725909297,0.24661253932730678,1665,0,5.675693319033738,1.7102178588900998,30.13231622566346,0.2988153146188974,0.09003997553167734,0.08984375,,
1.951429999999702,1200,,,,-0.0625,0.033203125,-1.017578125,0.00981145791261728,0.5110392875711023,23.01458111789221,0.24712483128443755,1664,0,5.687474475841114,1.7100163450009631,30.06635638128417,0.29885052798768097,0.08985346479212557,0.08984375,,
1.959824999999255,1200,,,,-0.03125,0.048828125,-1.0234375,0.00981145791261728,0.4892111428465795,23.014585213374925,0.24799194045896664,1665,0,5.707431645923088,1.711074423284101,29.97976199165433,0.28590874610095934,0.0857147615943909,0.08984375,,
1.966804999999702,1200,,,,-0.03125,0.013671875,-0.908203125,0.00981145791261728,0.4892111428465795,23.014653493655565,0.25007092277222653,1666,0,5.7552956364414944,1.711495648433724,29.73775382791532,0.2858383796034079,0.08500191367216356,0.08984375,,
1.974429999999702,1200,,,,0.0625,-0.04296875,-0.9609375,0.00981145791261728,0.4892111428465795,23.014625454779544,0.25029345243459555,1666,0,5.760410061565896,1.7116531039186498,29.714084338179187,0.2858120852447158,0.08492644405832345,0.08984375,,
1.9826199999991805,1200,,,,-0.0625,0.033203125,-0.96484375,0.00981145791261728,0.4892111428465795,23.014493691879565,0.2505426971019456,1665,0,5.76611332199922,1.7104245143629504,29.663387083240917,0.2860173826664235,0.0848424433456956,0.08984375,,
1.9906199999991805,1200,,,,-0.0625,0.0859375,-0.97265625,0.00981145791261728,0.4892111428465795,23.014239193295264,0.25114975280606305,1664,0,5.780020484415713,1.7099536992158828,29.583869189154566,0.2860961341063869,0.08463830606926172,0.08984375,,
1.998535000000149,1200,,,,0,0.048828125,-0.98828125,0.00981145791261728,0.4892111428465795,23.01445516648089,0.25119135070026627,1664,0,5.781032078899056,1.7097696556728055,29.57550887692731,0.2861269301530982,0.08462349562670914,0.087890625,,
2.006179999999702,1200,,,,-0.0625,0.00390625,-0.951171875,0.00981145791261728,0.4892111428465795,23.01443270492381,0.25091014739665296,1664,0,5.774554702242783,1.7096963387032762,29.60741436979108,0.2861392001445257,0.08471841866119556,0.087890625,,
2.0145250000003725,1200,,,,-0.0625,0.0234375,-0.9765625,0.00981145791261728,0.4892111428465795,23.014379129929523,0.25128074562441505,1664,0,5.783070347851667,1.70966774412214,29.56332261732314,0.28614398588760526,0.08459366969802035,0.087890625,,
2.023254999998957,1200,,,,0,0.04296875,-0.94140625,0.00981145791261728,0.4892111428465795,23.014248699640337,0.2515585384425921,1664,0,5.789430766235848,1.7096557027482704,29.53063559752781,0.28614600124467926,0.0845007329044636,0.087890625,,
2.031574999999255,1200,,,,-0.03125,0.103515625,-1.0234375,0.00981145791261728,0.4892111428465795,23.014236455144218,0.2506195997933071,1664,0,5.767818729936783,1.709651614011873,29.64121610026068,0.28614668558034195,0.08481735743660263,0.087890625,,
2.040495000001043,1200,,,,-0.1875,0.11328125,-1.0234375,0.00981145791261728,0.4892111428465795,23.01411378376042,0.2512913036362929,1664,0,5.783246654755132,1.70964991282546,29.56211302901533,0.28614697031047875,0.08459109079228667,0.087890625,,
2.0486149999983607,1200,,,,-0.0625,0.013671875,-0.96484375,0.00981145791261728,0.4892111428465795,23.014010925712785,0.2510091509156544,1664,0,5.77672734162676,1.709649338958533,29.595465353521185,0.28614706635958004,0.08468655588456679,0.087890625,,
2.0562799999993295,1200,,,,0,0.0078125,-0.90234375,0.012099245497123453,0.4892111428465795,23.01404325940122,0.24977847173397524,1664,0,5.748412553752831,2.108296695554848,36.67615495304793,0.2320409380131538,0.0851036939802102,0.087890625,,
2.0643149999994783,1200,,,,-0.03125,0.052734375,-1.025390625,0.012099245497123453,0.4892111428465795,23.014233838537226,0.2492586459999853,1665,0,5.736496765320833,2.110066538426893,36.78319059086718,0.23184631097524466,0.08528047044391887,0.087890625,,
2.071844999998808,1200,,,,0,0.046875,-0.9921875,0.012099245497123453,0.4892111428465795,23.01438717412576,0.24993104892417342,1666,0,5.752009926776294,2.110784871712256,36.696474772866786,0.2317674100296798,0.08505046915326818,0.087890625,,
2.081910000000149,1200,,,,-0.125,0.01953125,-0.8828125,0.012099245497123453,0.4892111428465795,23.01420643148475,0.25003171679497266,1666,0,5.754281544738034,2.111063664461073,36.686833065919785,0.23173680220177953,0.08501689377606758,0.087890625,,
2.0928199999984356,1200,,,,-0.0625,0.009765625,-0.921875,0.012099245497123453,0.4892111428465795,23.01442307680055,0.2488158249396781,1666,0,5.726352663364894,2.111426944752068,36.872108109236855,0.2316969308658816,0.08543154283465165,0.087890625,,
2.101574999999255,1200,,,,-0.041015625,0.060546875,-1.005859375,0.012099245497123453,0.4892111428465795,23.014437619939198,0.24939760625882454,1667,0,5.739745651805875,2.111526553399861,36.787807012589816,0.23168600085037022,0.08523219886802141,0.087890625,,
2.1102499999981372,1200,,,,0,0.0703125,-0.96484375,0.012099245497123453,0.5231976988645856,23.01444884175111,0.2502735595380593,1666,0,5.759908032431617,2.1106617359480317,36.64401799583924,0.24788325384104448,0.09083438414618422,0.087890625,,
2.1184399999994783,1200,,,,-0.03125,-0.01953125,-0.92578125,0.012099245497123453,0.5231976988645856,23.01438830691451,0.24930667908957302,1665,0,5.737640720074757,2.109361679110576,36.7635720328458,0.24803603101635696,0.09118690493011014,0.087890625,,
2.1266349999997765,1200,,,,-0.125,0.0546875,-0.978515625,0.012099245497123453,0.5231976988645856,23.014467626328905,0.2500798214038246,1664,0,5.755453953696436,2.108914365369889,36.64201611786748,0.24808864098795227,0.09090467981740386,0.087890625,,
2.1345,1200,,,,0,0.0078125,-0.96484375,0.012099245497123453,0.5231976988645856,23.014673461129657,0.25049315972752684,1665,0,5.765018275375624,2.1096323679198266,36.59368049067237,0.24800420529216538,0.09075386648804618,0.087890625,,
2.142339999999851,1200,,,,0,0.06640625,-0.99609375,0.012099245497123453,0.5231976988645856,23.014542238232153,0.25024760038266874,1666,0,5.759333969023171,2.1108099153701962,36.650243356667275,0.2478658523701442,0.09084343809173548,0.087890625,,
2.1501799999997018,1200,,,,-0.0625,0.048828125,-0.96484375,0.012099245497123453,0.5231976988645856,23.014613854812946,0.25012073410491503,1666,0,5.756432112506962,2.111273936602223,36.67677991051214,0.24781137577371576,0.09088923288573793,0.087890625,,
2.158184999998659,1200,,,,-0.125,0.05078125,-1.0078125,0.012099245497123453,0.5231976988645856,23.01468166496811,0.24925726655830824,1666,0,5.736576642519565,2.111456442390965,36.80690721955719,0.24778995595671793,0.0912038191883708,0.08984375,,
2.166769999999553,1200,,,,-0.03125,0.05859375,-1.001953125,0.012099245497123453,0.5231976988645856,23.01468087487687,0.25003283958079175,1667,0,5.754426011191204,2.111528975346508,36.69399817184212,0.2477814441446286,0.09092091858459403,0.08984375,,
2.1743349999990316,1200,,,,0,0.046875,-0.98828125,0.012099245497123453,0.5231976988645856,23.014745959837306,0.2494882245504251,1667,0,5.741908107998879,2.1115574216435666,36.774489976633724,0.24777810610395135,0.09111913479349046,0.087890625,,
2.182469999998808,1200,,,,0,0.00390625,-1,0.012099245497123453,0.5231976988645856,23.014677485602725,0.24824176409877471,1667,0,5.713204139190373,2.1115686047855946,36.95944610662605,0.24777679383886764,0.09157693058360221,0.087890625,,
2.1902799999993294,1200,,,,-0.0625,0.07421875,-1.01171875,0.012099245497123453,0.5231976988645856,23.01464421631291,0.2468280407594209,1665,0,5.680659540687653,2.109784544712074,37.13978156234797,0.2479863169800532,0.0921015764309036,0.087890625,,
2.198640000000596,1200,,,,-0.125,0.03515625,-0.87890625,0.012099245497123453,0.5231976988645856,23.014711149452218,0.24676208935118296,1665,0,5.679158209052795,2.1090796404140977,37.13718763904383,0.24806919987234846,0.09212592423126874,0.087890625,,
2.2065649999994785,1200,,,,0,0.025390625,-0.9609375,0.01435229551604522,0.5231976988645856,23.014971183958984,0.24653976048214124,1664,0,5.67410548319663,2.501492497272165,44.08611198152938,0.2091542147078689,0.09220796131019947,0.08984375,,
2.2246899999994785,1200,,,,-0.0625,0.037109375,-0.9453125,0.01435229551604522,0.5231976988645856,23.015410072216294,0.24807086211944465,1666,0,5.709452618647246,2.503693187954365,43.85172021179801,0.20897037280037603,0.09163710320597215,0.08984375,,
2.233714999999851,1200,,,,-0.0625,0.03125,-0.9296875,0.01435229551604522,0.5231976988645856,23.015320953718554,0.24917134891184564,1666,0,5.734758567677118,2.504085885416921,43.6650620225013,0.20893760150621796,0.09123273328601669,0.08984375,,
2.2507599999997763,1200,,,,-0.0625,0.064453125,-1.01953125,0.01435229551604522,0.5231976988645856,23.01534748213711,0.24892009971770981,1666,0,5.72898259029131,2.5043555025260593,43.713791463952006,0.20891510743456898,0.09132471440063876,0.08984375,,
2.259,1200,,,,-0.0625,0.0625,-1,0.01435229551604522,0.5821068074295477,23.01547018564482,0.25147053516436957,1666,0,5.787712604643695,2.5043766715959057,43.27057756092712,0.23243580489775206,0.10057631523764705,0.087890625,,
2.2671850000005214,1200,,,,-0.01953125,0.00390625,-0.95703125,0.01435229551604522,0.5821068074295477,23.015498954489857,0.2500873210507249,1666,0,5.755884476174128,2.5046343768821986,43.514326725108305,0.2324118892571305,0.10113246883934467,0.087890625,,
2.274864999998361,1200,,,,-0.0625,0.10546875,-1.0703125,0.01435229551604522,0.5821068074295477,23.01564836999386,0.24946163791896367,1667,0,5.741521340145594,2.504721399593792,43.62469894660841,0.2324038144617409,0.10138546439936884,0.08984375,,
2.2820649999994784,1200,,,,-0.0625,0.08203125,-0.94921875,0.01435229551604522,0.5821068074295477,23.01575342471144,0.2519002646068966,1667,0,5.797674377811898,2.5047558052456464,43.20276790348076,0.23240062213268697,0.1004035013862301,0.087890625,,
2.297584999999031,1200,,,,-0.03125,-0.04296875,-0.974609375,0.01435229551604522,0.5821068074295477,23.015935563666254,0.2516952170226912,1667,0,5.793000896677254,2.5047769782605758,43.23798706292734,0.23239865763769016,0.10048450152380126,0.087890625,,
2.3056349999997763,1200,,,,-0.125,0.08984375,-1.03515625,0.01435229551604522,0.5821068074295477,23.01574471828858,0.251499721088208,1667,0,5.788453377286975,2.504779405877795,43.27199758930727,0.23239843239830113,0.10056344406498076,0.087890625,,
2.312844999998808,1200,,,,-0.03125,0.1015625,-0.9453125,0.01435229551604522,0.5821068074295477,23.01566724382412,0.25267919114182613,1667,0,5.815580182758901,2.50478043882128,43.07017288226979,0.23239833655978256,0.10009436533181754,0.087890625,,
2.3431549999993293,1200,,,,-0.0625,0.017578125,-1.02734375,0.01435229551604522,0.5821068074295477,23.01536783973076,0.2497462803402591,1667,0,5.748002508635582,2.505149015619132,43.58294923941823,0.23236414432842972,0.10127114707326804,0.087890625,,
2.361710000000894,1200,,,,-0.09375,0.068359375,-1.001953125,0.015088992073079226,0.5821068074295477,23.015257134934988,0.25040116458885575,1667,0,5.763047189899693,2.6334584943453034,45.69559136979996,0.22104271196203668,0.10100677441089621,0.087890625,,
2.369785000000149,1200,,,,0,-0.00390625,-0.9765625,0.015088992073079226,0.5821068074295477,23.015290176322026,0.2509062448661856,1667,0,5.774680032646571,2.6336314398379232,45.606534473753584,0.221028196513849,0.10080330063980437,0.087890625,,
2.377894999999553,1200,,,,-0.0625,0.0390625,-0.93359375,0.015088992073079226,0.5821068074295477,23.0153254913479,0.25042146016274064,1667,0,5.7635314156640876,2.6337098638115832,45.696113612805235,0.22102161495765724,0.10099828827990798,0.087890625,,
2.3878450000006706,1200,,,,0,0.02734375,-1.00390625,0.015088992073079226,0.5821068074295477,23.015358224688,0.25018251284891624,1667,0,5.758040154770415,2.6337400645589515,45.740217048972006,0.22101908053216626,0.10109460715505506,0.087890625,,
2.3963699999991803,1200,,,,-0.0625,0.08203125,-1.0234375,0.015088992073079226,0.5821068074295477,23.01522827951662,0.24988151590109628,1667,0,5.751080131295393,2.633542526231814,45.79213758300783,0.22103565886306425,0.10121695301408223,0.087890625,,
2.404594999998808,1200,,,,-0.0625,0.02734375,-0.96875,0.015088992073079226,0.6062903860883635,23.01512985909007,0.2508938929207276,1667,0,5.774355526423185,2.6334226734679174,45.605482056265785,0.23022904458020335,0.1049970656143368,0.087890625,,
2.4123300000000745,1200,,,,-0.03125,-0.0078125,-0.95703125,0.015088992073079226,0.6062903860883635,23.01517160733838,0.2493865756387421,1667,0,5.7396748348921225,2.633379468941696,45.88029016788702,0.23023282183179616,0.10563148671814242,0.087890625,,
2.419109999999404,1200,,,,-0.03125,0.076171875,-1.00390625,0.015088992073079226,0.6062903860883635,23.01503415423809,0.24865274590775285,1667,0,5.722751439612018,2.63359475975538,46.01972997684359,0.2302140007844937,0.10594386152991257,0.087890625,,
2.4276699999999254,1200,,,,0,0.01171875,-0.95703125,0.015088992073079226,0.6062903860883635,23.014884767654642,0.248978058919636,1667,0,5.730201335709751,2.633695070798961,45.961649800787455,0.23020523249278002,0.10580612278142013,0.087890625,,
2.4359000000003723,1200,,,,-0.0625,0.0703125,-1,0.015088992073079226,0.6062903860883635,23.01480877329991,0.2519981581787322,1667,0,5.799689421707305,2.6337344040676314,45.41164556519159,0.23020179451351944,0.10453842300919011,0.087890625,,
2.4448149999994784,1200,,,,-0.03125,0.052734375,-0.962890625,0.015088992073079226,0.6062903860883635,23.01458128646449,0.25485808817487987,1668,0,5.865452186813707,2.6356808899378152,44.93568110337965,0.23003178738480284,0.10336635041563931,0.087890625,,
2.45377499999851,1200,,,,-0.0625,0.052734375,-1.01171875,0.015088992073079226,0.6062903860883635,23.01436455569394,0.2565035809422737,1669,0,5.903266921646436,2.637351279456879,44.67613127548221,0.22988609473866498,0.10270421346952537,0.0859375,,
2.4614350000005216,1200,,,,-0.0625,0.099609375,-0.9921875,0.015088992073079226,0.6062903860883635,23.01434665207085,0.2575606416862942,1669,0,5.927589891698185,2.6379109691513234,44.50225162921305,0.22983731944653954,0.10228278223793724,0.087890625,,
2.4686349999997765,1200,,,,0,0.09375,-0.9765625,0.015088992073079226,0.6062903860883635,23.014418162996122,0.2559118964414205,1672,0,5.88966339758821,2.6416159326944006,44.85173013072581,0.22951496414921993,0.1029414323298402,0.0859375,,
2.4765849999990315,1200,,,,-0.03125,-0.009765625,-0.890625,0.015088992073079226,0.6062903860883635,23.01449530491672,0.2563557609432321,1675,0,5.899898456616368,2.6470768347437277,44.86648124893058,0.22904147629211544,0.10276285101287576,0.087890625,,
2.4846349999997766,1200,,,,-0.09375,0.029296875,-0.984375,0.015088992073079226,0.6062903860883635,23.014471025537798,0.25486602030532995,1677,0,5.865606639711144,2.649249964514425,45.16583070161161,0.22885359788972914,0.10336362857742208,0.087890625,,
2.4929949999991803,1200,,,,0,0.09765625,-1.05859375,0.015088992073079226,0.6062903860883635,23.01467694429898,0.2529150962822313,1676,0,5.820759235271826,2.648853325886599,45.50700722743258,0.2288878663696608,0.10416001789155777,0.087890625,,
2.500890000000596,1200,,,,-0.0625,0.07421875,-0.951171875,0.013393367598103693,0.6062903860883635,23.014839893562176,0.25191308765768267,1675,0,5.797739379534461,2.349937129224825,40.53195522240803,0.2580028114574967,0.10457358401250637,0.087890625,,
2.5088499999996277,1200,,,,-0.0625,0.03125,-0.921875,0.013393367598103693,0.6062903860883635,23.014896201142506,0.2507595356170331,1675,0,5.771204683672715,2.349445356348738,40.70979085173571,0.2580568151755598,0.10505438973662057,0.087890625,,
2.516434999998659,1200,,,,-0.03125,0.02734375,-0.994140625,0.013393367598103693,0.6062903860883635,23.01495073396735,0.25146376335960485,1674,0,5.78742612509933,2.3485064229851678,40.57946265266341,0.2581599863447308,0.104759935242881,0.087890625,,
2.5239399999994783,1200,,,,-0.0625,0.060546875,-0.998046875,0.013393367598103693,0.6062903860883635,23.014909685717676,0.25036197613446337,1673,0,5.762058269472479,2.3467817059014155,40.72818420345939,0.2583497155119858,0.10522114802283489,0.087890625,,
2.5326699999999254,1200,,,,-0.125,0.109375,-0.953125,0.013393367598103693,0.6062903860883635,23.014823233010038,0.2505710981003264,1673,0,5.766849530080229,2.3459318043663617,40.67960837420575,0.2584433123588275,0.10513372733689631,0.087890625,,
2.543504999998957,1200,,,,0,0.056640625,-0.984375,0.013393367598103693,0.6062903860883635,23.01468313977695,0.2502112576822696,1672,0,5.758532813562516,2.3456400049977293,40.733292332263346,0.258475462899922,0.10528556591019614,0.087890625,,
2.5600999999996277,1200,,,,-0.0625,0.033203125,-0.96484375,0.013393367598103693,0.5844788800827644,23.014626316705233,0.2497923722967116,1667,0,5.74887810517213,2.3387425079443136,40.681720244515226,0.24991159911678534,0.10166833761128499,0.0859375,,
2.567614999998361,1200,,,,-0.03125,0.060546875,-0.919921875,0.013393367598103693,0.5844788800827644,23.01456295123456,0.249156148539995,1667,0,5.734219865260863,2.3381668137908944,40.775674263137546,0.24997313135889682,0.1019282297882687,0.0859375,,
2.5755050000008195,1200,,,,0.0625,-0.05078125,-0.95703125,0.013393367598103693,0.5844788800827644,23.01463337904424,0.25003967887686585,1668,0,5.75457153956502,2.340143841548789,40.66582238937075,0.2497619461271816,0.10156774940831555,0.0859375,,
2.5828149999994783,1200,,,,-0.1875,0.109375,-1.04296875,0.013393367598103693,0.5844788800827644,23.01469216532293,0.24900448032256814,1669,0,5.730761462410117,2.340869845739769,40.8474486522302,0.24968448422985928,0.10198974148837758,0.087890625,,
2.5907949999999254,1200,,,,-0.0625,-0.013671875,-0.916015625,0.013393367598103693,0.5844788800827644,23.014756849756544,0.2475427199124435,1669,0,5.697135508712275,2.3412129770462276,41.09456363581235,0.24964789013777272,0.10259171107812991,0.087890625,,
2.5989249999988826,1200,,,,0,0.037109375,-0.966796875,0.013393367598103693,0.5844788800827644,23.0148826242105,0.24765440073317627,1667,0,5.699736964243242,2.3387082355459996,41.03186252659839,0.24991526142478002,0.10254488650080469,0.087890625,,
2.606949999999255,1200,,,,-0.0625,0.078125,-1.015625,0.013393367598103693,0.5844788800827644,23.014806550006274,0.24658790098876546,1667,0,5.675172838828538,2.337711846037086,41.19190573444514,0.2500217813729178,0.10298873649871283,0.087890625,,
2.6142099999990314,1200,,,,-0.0625,0.037109375,-0.978515625,0.013393367598103693,0.5844788800827644,23.014863725497683,0.2446652175695452,1666,0,5.630936640732324,2.3373246294023526,41.50862953233966,0.25006320163246387,0.10379780796232699,0.087890625,,
2.622019999999553,1200,,,,-0.03125,0.017578125,-0.94921875,0.013393367598103693,0.5844788800827644,23.014919250673234,0.24470560299898889,1667,0,5.631879693209031,2.337460251365076,41.504087066767525,0.25004869269602725,0.10378042712587311,0.087890625,,
2.629375,1200,,,,-0.0625,0.03125,-0.95703125,0.013393367598103693,0.5844788800827644,23.01490820220304,0.24483635992413236,1667,0,5.634886348215449,2.338065793013888,41.49268766981159,0.2499839319445929,0.10372505210648429,0.0859375,,
2.637039999999106,1200,,,,0,0.04296875,-1.046875,0.013393367598103693,0.5844788800827644,23.01486414661981,0.2432892231959212,1667,0,5.599268420190792,2.338338583316756,41.761501822001925,0.24995476884862647,0.10438486534689985,0.0859375,,
2.644980000000447,1200,,,,-0.03125,0.001953125,-1.009765625,0.013393367598103693,0.5844788800827644,23.01482644718431,0.24338532453697773,1667,0,5.601471004010171,2.3384410504545063,41.74690985243669,0.24994381618863704,0.10434381962601036,0.0859375,,
2.6536649999991058,1200,,,,-0.03125,0.0234375,-0.912109375,0.012319110510072341,0.5844788800827644,23.015112679605622,0.24296186129714728,1667,0,5.591794614600556,2.1502794343930276,38.45419194722391,0.2718153142025231,0.10452438266538802,0.0859375,,
2.6620649999994783,1200,,,,-0.03125,0.001953125,-0.96484375,0.012319110510072341,0.5844788800827644,23.01515620649967,0.24531954708879236,1667,0,5.646067696756308,2.1500781814835763,38.08098480148947,0.271840756822837,0.10351963728995851,0.0859375,,
2.6699550000000745,1200,,,,-0.0625,0.03515625,-1.015625,0.012319110510072341,0.5844788800827644,23.01506669053099,0.24756850423259893,1667,0,5.697805635388268,2.1499987238965326,37.73380247552134,0.2718508032523335,0.10257964512735367,0.0859375,,
2.6776399999987333,1200,,,,-0.03125,0.048828125,-1.0234375,0.012319110510072341,0.5844788800827644,23.015112276247446,0.24794377446147023,1667,0,5.7064538074273115,2.15016952823881,37.67960980320611,0.27182920807249433,0.10242418493286114,0.0859375,,
2.684414999999106,1200,,,,0,0.08984375,-0.99609375,0.012319110510072341,0.5844788800827644,23.015150260027866,0.24765361453723148,1667,0,5.699785151013404,2.150232329476935,37.72479615472226,0.271821268832352,0.1025440195721844,0.0859375,,
2.6953149999994785,1200,,,,-0.03125,0.017578125,-0.939453125,0.012319110510072341,0.5844788800827644,23.01519197038495,0.24595012871052033,1667,0,5.6605894274135125,2.1502621369560337,37.98654123442673,0.2718175007769833,0.10325406701503695,0.0859375,,
2.7037449999991803,1200,,,,-0.09375,0.017578125,-0.978515625,0.012319110510072341,0.5203733299482365,23.01531336691008,0.2450452248069845,1668,0,5.639792637997676,2.151331909692759,38.145585268478186,0.24188426137487695,0.09226816717378233,0.0859375,,
2.711989999998361,1200,,,,0,0.07421875,-0.99609375,0.012319110510072341,0.5203733299482365,23.015345557551278,0.24582787798750752,1669,0,5.6578135595620385,2.152492116107459,38.044592552358324,0.24175388427869063,0.0919742802533277,0.0859375,,
2.719319999998435,1200,,,,0,0.05078125,-0.978515625,0.012319110510072341,0.5203733299482365,23.01551311905913,0.24460674414060393,1669,0,5.6297497287784095,2.1529864891341832,38.24302309796205,0.24169837227241633,0.09243276433553849,0.0859375,,
2.727304999999702,1200,,,,-0.0625,0.015625,-0.947265625,0.012319110510072341,0.5203733299482365,23.01553439094171,0.24294019646577755,1668,0,5.591398446700239,2.152117105207646,38.48978257805464,0.24179601039787676,0.09306675868455315,0.0859375,,
2.7361199999991803,1200,,,,-0.09375,0.025390625,-0.974609375,0.012319110510072341,0.5203733299482365,23.015560148861447,0.24236197994797584,1667,0,5.57809672728979,2.1505065726774713,38.55269418611051,0.24197709347167898,0.09328868884657517,0.0859375,,
2.745089999999851,1200,,,,-0.03125,0.111328125,-0.939453125,0.012319110510072341,0.5203733299482365,23.015436878824275,0.24361631220675348,1667,0,5.606935856246483,2.149931151974475,38.34413674590757,0.24204185769871325,0.09280886089832961,0.0859375,,0.2394950000010431,5725,
2.752664999999106,1200,,,,0,0.046875,-1.0546875,0.012319110510072341,0.5203733299482365,23.01540029516115,0.24515495888244823,1665,0,5.642339513023319,2.1481477407786715,38.07193338544131,0.2422428029831919,0.09222651858278665,0.0859375,,
2.7611899999994787,1500,,,,-0.0625,0.017578125,-0.978515625,0.012319110510072341,0.5203733299482365,23.015323282658095,0.2469627292865532,1665,0,5.683927053297595,2.1473739150858893,37.77975851818974,0.24233009737729952,0.0915517256060378,0.0859375,,
2.769804999999702,1500,,,,-0.0625,0.046875,-0.94921875,0.012319110510072341,0.5203733299482365,23.015207563803077,0.24672729886425146,1664,0,5.678479995017223,2.1471099765766395,37.811350545580765,0.24235988637057226,0.09163954621744831,0.0859375,,
2.777434999998659,1500,,,,-0.03125,0.033203125,-0.951171875,0.012319110510072341,0.5203733299482365,23.01524392552684,0.2481638932540193,1665,0,5.711552536749658,2.147693910683388,37.60262900261445,0.24229399141084104,0.09110891068584508,0.0859375,,
2.786199999999255,1500,,,,-0.03125,0.076171875,-1.0390625,0.012319110510072341,0.5203733299482365,23.015283635983902,0.24802371025510186,1666,0,5.708336039970258,2.1486874770405318,37.641222625914764,0.24218195317309069,0.09116024815367173,0.0859375,,
2.795074999999255,1500,,,,-0.40625,0.095703125,-0.876953125,0.012319110510072341,0.5203733299482365,23.007571247877838,0.2490745437422108,1767,0,5.73060031118158,2.2790306471712434,39.769492259377884,0.22833099264993617,0.09080607644767705,0.087890625,,
2.802769999999553,1500,,,,1.0625,-0.15234375,-1.51953125,0.011713577365929234,0.5203733299482365,22.98662754782251,0.8925138659107134,1991,0,20.51588381695677,2.4424692500514307,11.905259709224339,0.21305215201267283,0.02536441201320013,0.099609375,,
2.810820000000298,1500,,,,-0.125,-0.37890625,-0.87890625,0.011713577365929234,0.5203733299482365,22.970590629234756,1.4010354053004483,2080,0,32.1826107522206,2.5517345709919557,7.92892345073616,0.20392925497182401,0.01616939452037249,0.10546875,,
2.818844999998808,1500,,,,0.6875,-0.50390625,-0.89453125,0.011713577365929234,0.5203733299482365,22.95618706830456,1.7900752775579163,2102,0,41.09330293796673,2.5789820385536806,6.275918103849762,0.2017747010910038,0.01266321499475905,0.11328125,,
2.8276949999984353,1500,,,,0.28125,-0.29296875,-1.046875,0.011713577365929234,0.5203733299482365,22.947217313996568,2.0500034115112236,2105,0,47.04187377838238,2.581866235267689,5.488442589321686,0.2015492990458059,0.011061917567309334,0.1171875,,
2.8354599999990313,1500,,,,-0.25,0.28125,-1.232421875,0.011713577365929234,0.5203733299482365,22.937150111703474,2.3387300933621513,2444,0,53.643803222205946,2.998416880370948,5.5894934741124915,0.17354935978210564,0.009700530139384805,0.123046875,,
2.8461899999994786,1500,,,,-0.15625,0.080078125,-0.93359375,0.011713577365929234,0.5203733299482365,22.93155507846646,2.4942742607304407,2540,0,57.197587590741314,3.115916898954605,5.447636920021055,0.1670048806894762,0.009097819538677018,0.126953125,,
2.8551399999987335,1500,,,,0.03125,-0.03125,-0.970703125,0.011713577365929234,0.49395598785656414,22.924419346208214,2.695195210601844,2840,0,61.78578522772863,3.4833491773585847,5.63778410279927,0.1418049017500823,0.007994654207856264,0.12890625,,
2.865195000000298,1500,,,,0.0625,0.17578125,-0.951171875,0.011713577365929234,0.49395598785656414,22.920786706378472,2.8042193242200844,3491,0,64.27491300835334,4.282152041711983,6.662244787722176,0.11535227685635445,0.0076850510523813285,0.130859375,,
2.8745,1500,,,,-0.375,-0.0078125,-1.2109375,0.011713577365929234,0.49395598785656414,22.91735138768486,2.888205194028361,4996,0,66.19001331128449,6.127893373837303,9.25803314922824,0.08060779744724043,0.007462696608528274,0.134765625,,
2.8830699999984355,1500,,,,0,0.01171875,-1.4609375,0.011713577365929234,0.49395598785656414,22.915516283651122,2.93981915647888,7012,0,67.36747375128128,8.60074660169361,12.76691275888912,0.05743175688483801,0.007332262297384566,0.138671875,,
2.891679999999702,1500,,,,-0.15625,-0.15625,-1.2109375,0.011713577365929234,0.49395598785656414,22.914474606960212,2.971229903730593,6198,0,68.0841721804755,7.602613921472667,11.166492413713842,0.06497186269862329,0.007255078119290343,0.14453125,,
2.89827499999851,1500,,,,-0.03125,0.05078125,-0.962890625,0.011713577365929234,0.49395598785656414,22.91402853193043,2.98510219192205,4966,0,68.40071679642992,6.0915626625458765,8.905700039189965,0.08108855070861615,0.007221503092235804,0.146484375,,
2.90625,1500,,,,0,0.19140625,-1.06640625,0.011713577365929234,0.49395598785656414,22.914113720297383,2.98431349943157,4215,0,68.38289890299363,5.169780162334921,7.56004826538379,0.09554680708772535,0.007223384731865176,0.1484375,,
2.913335000000894,1500,,,,-0.09375,-0.2890625,-0.83984375,0.011713577365929234,0.49395598785656414,22.914304836467558,2.973699181013258,3911,0,68.14024952569171,4.797464424265527,7.040573607610115,0.10296188656619103,0.007249107411476709,0.150390625,,
2.921094999998808,1500,,,,-0.0625,0.25390625,-0.89453125,0.011713577365929234,0.49395598785656414,22.91473482979838,2.9617512702544997,3798,0,67.86774498970038,4.658852895226648,6.864605411500965,0.1060252381788358,0.007278214237581151,0.15234375,,
2.9382050000000746,1500,,,,-0.0625,0.32421875,-1.162109375,0.011713577365929234,0.49395598785656414,22.916121769308315,2.9213710199926215,3804,0,66.94649402747935,4.665614567175218,6.96916938661513,0.10587158041981772,0.007378369771743556,0.158203125,,
2.947175000000745,1500,,,,0.375,-0.640625,-0.96484375,0.011713577365929234,0.49395598785656414,22.916716787585507,2.9054964823384326,3824,0,66.58444001307579,4.690615223897526,7.044611658484155,0.10530729217352564,0.007418489781690159,0.1640625,,
2.956070000000298,1500,,,,-0.25,0.21875,-1.015625,0.013044737984020628,0.49395598785656414,22.91777731198301,2.8770048582590717,3851,0,65.93455666707465,5.261160242696674,7.979366979385347,0.09388727297220295,0.007491610057389345,0.16796875,,
2.963980000000447,1500,,,,-0.0625,-0.00390625,-0.759765625,0.013044737984020628,0.49395598785656414,22.919125454530132,2.842223236986206,3881,0,65.14127093826758,5.301625250283186,8.13865798735701,0.09317067211232623,0.007582842347744049,0.173828125,,
2.972125,1500,,,,0,0.162109375,-1.080078125,0.013044737984020628,0.49395598785656414,22.920448325031153,2.805073410984069,3906,0,64.29354016437922,5.335416856871582,8.298527104325764,0.09258058013225136,0.007682824535616912,0.1796875,,
2.9802849999982866,1500,,,,0,-0.203125,-0.87890625,0.013044737984020628,0.49395598785656414,22.921604785086853,2.771798623264938,3927,0,63.53407258632675,5.363825610061895,8.442439452899562,0.09209024002010091,0.007774662755726901,0.181640625,,
2.9874799999985844,1500,,,,-0.03125,0.208984375,-0.95703125,0.013044737984020628,0.49395598785656414,22.92306193196778,2.7339990909118743,3940,0,62.671630482916505,5.3823750289366314,8.588216051605357,0.09177286703378461,0.007881652097613932,0.189453125,,
2.9975649999994785,1500,,,,-0.0625,-0.1015625,-1.10546875,0.013044737984020628,0.49395598785656414,22.92430698235384,2.7041501246975512,3954,0,61.99076758493708,5.4017481422774685,8.713794574129487,0.09144372800178424,0.007968218609001201,0.193359375,,
3.0059399999994785,1500,,,,0,0.046875,-0.93359375,0.013044737984020628,1.1870828913156335,22.925985795426474,2.654955959577911,3971,0,60.867482616766054,5.423918039098866,8.911027376060462,0.21886077237126844,0.019502743341461102,0.19921875,,
3.013780000001192,1500,,,,-0.8125,0.453125,-0.6328125,0.013044737984020628,1.1870828913156335,22.92729273322268,2.6183164240388863,3977,0,60.03090712214435,5.433120923829627,9.050539437584883,0.21849005533985028,0.019774528625734183,0.20703125,,
3.022375,1500,,,,0.375,-0.224609375,-1.083984375,0.013044737984020628,1.1870828913156335,22.92849936103713,2.58423510830686,3991,0,59.252633029583556,5.4522134688199735,9.20163913407494,0.2177249475106401,0.020034263974783178,0.2109375,,
3.0307050000000744,1500,,,,-0.5,0.46484375,-1.0625,0.013044737984020628,1.1870828913156335,22.92992219880149,2.544861267475151,4003,0,58.35347086994856,5.468418606077046,9.371196819233637,0.21707974038352332,0.020342969726021374,0.21484375,,
3.038120000001043,1500,,,,0.21875,-0.1484375,-1,0.013044737984020628,1.1870828913156335,22.93105515034026,2.515980651364644,4002,0,57.69409107363166,5.466672365118257,9.475272533787656,0.21714908303087121,0.020575467421795893,0.21875,,
3.046859999999404,1500,,,,-0.125,-0.009765625,-1.029296875,0.013044737984020628,1.1870828913156335,22.93236132235037,2.483218411428194,4007,0,56.94606185318425,5.473262014083434,9.6113090808533,0.2168876418233059,0.020845741613811974,0.22265625,,
3.055644999999553,1500,,,,0.125,0.03515625,-0.8359375,0.013044737984020628,1.1870828913156335,22.933991677287644,2.4450983228250243,4017,0,56.07586458581908,5.487748430085584,9.786293034656786,0.2163151074505652,0.021169230293345002,0.22265625,,
3.063265000000596,1500,,,,-0.15625,0.169921875,-1.08984375,0.013044737984020628,1.1870828913156335,22.935034676908288,2.4191175641903593,4022,0,55.4825452222238,5.494825449562118,9.903701114564475,0.2160365060204473,0.021395609854613192,0.224609375,,
3.071109999999404,1500,,,,-0.125,0.08984375,-0.8359375,0.013044737984020628,1.1870828913156335,22.936060435321416,2.389537723329949,4027,0,54.80658163477606,5.5006067613506655,10.036398179339107,0.21580944481552927,0.021659495190307614,0.2265625,,
3.07925,1500,,,,0.125,-0.203125,-1.16015625,0.013044737984020628,1.1870828913156335,22.937101871866872,2.3610691493831073,4029,0,54.1560836059224,5.504145543028114,10.163485201552115,0.2156706943949302,0.021919659108913418,0.228515625,,
3.0874249999988823,1500,,,,-0.125,0.171875,-0.96484375,0.013044737984020628,1.1870828913156335,22.938126785069723,2.332667508954941,4030,0,53.5070230678212,5.504917966964283,10.28821573569266,0.21564043250770853,0.02218555290977378,0.23046875,,
3.095484999999404,1500,,,,0.125,-0.125,-1.1953125,0.013044737984020628,1.1870828913156335,22.939011938188724,2.3066853492806345,4034,0,52.9130827647935,5.510917365581779,10.415037411595586,0.215405677960173,0.022434581946253127,0.232421875,,
3.1045649999994787,1500,,,,-0.09375,0.09765625,-0.849609375,0.04798694668119065,1.1870828913156335,22.93993920878326,2.2787410498548413,4041,0,52.274181156229005,20.30621463535455,38.845591047455095,0.05845909307236607,0.02270878022494247,0.234375,,
3.112280000001192,1500,,,,0.1875,-0.208984375,-0.9921875,0.04798694668119065,1.1870828913156335,22.941064722269797,2.2558730137162843,4042,0,51.7521288128871,20.313049622270757,39.250655167662366,0.05843942260713741,0.02293785624950043,0.236328125,,
3.120089999999851,1500,,,,-0.15625,0.08984375,-1.09375,0.04798694668119065,1.1870828913156335,22.94179234771835,2.234041398125693,4044,0,51.252913852006024,20.32032921488465,39.64716869280851,0.058418487159454816,0.023161276151895734,0.23828125,,
3.1281349999997765,1500,,,,0.1875,-0.16796875,-0.765625,0.04798694668119065,1.1870828913156335,22.942421502146004,2.2144955450538957,4045,0,50.80589020925103,20.325541893367046,40.006270551807106,0.05840350518295512,0.02336506429523171,0.240234375,,
3.1364699999988077,1500,,,,-0.125,-0.01953125,-1.0390625,0.04798694668119065,1.1870828913156335,22.94289476791269,2.194425977201766,4046,0,50.34648427091409,20.329945549575026,40.38006991745387,0.0583908544378983,0.02357826784742205,0.2421875,,
3.1475449999999254,1500,,,,-0.15625,0.078125,-0.822265625,0.04798694668119065,1.1870828913156335,22.943396946658844,2.179810354195336,4047,0,50.0122542247406,20.336712296553955,40.6634586098972,0.05837142572532651,0.023735840539825033,0.244140625,,
3.155684999998659,1500,,,,0.15625,-0.1328125,-1.046875,0.04798694668119065,2.7392583770852483,22.944231480423326,2.1578070506098577,4056,0,49.50922445928211,20.380382902641504,41.16481953661575,0.13440661984472396,0.05532824250434579,0.248046875,,
3.16525,1500,,,,-0.15625,-0.009765625,-0.9921875,0.04798694668119065,2.7392583770852483,22.945040917236522,2.134789087601277,4058,0,48.98282296468132,20.394473907419936,41.63597088335479,0.13431375526135286,0.055922836032957286,0.25,,
3.1749550000000744,1500,,,,-0.09375,0.1171875,-0.796875,0.04798694668119065,2.7392583770852483,22.945928734252664,2.1089883791298014,4061,0,48.39269704887946,20.405128896715993,42.165719501241306,0.13424362036380497,0.05660478841091326,0.251953125,,
3.181519999999553,1500,,,,0.125,-0.2421875,-1.2109375,0.04798694668119065,2.7392583770852483,22.9467343626788,2.0909247587069992,4054,0,47.979895010397776,20.372393521149814,42.46027115468862,0.1344593296924811,0.05709179598020422,0.25390625,,
3.1898149999994785,1500,,,,-0.0625,0.080078125,-0.8203125,0.04798694668119065,2.7392583770852483,22.94750830166746,2.0758981092010744,4051,0,47.63668909430744,20.35842576921785,42.7368613484321,0.13455158115550542,0.057503122680551445,0.255859375,,
3.198174999998882,1500,,,,0.0625,-0.203125,-1.2265625,0.04798694668119065,2.7392583770852483,22.94838238468549,2.056187369491992,4057,0,47.18617400966283,20.385971437206205,43.20327270660162,0.1343697741126949,0.05805213994515216,0.2578125,,
3.206304999999702,1500,,,,-0.09375,0.03125,-0.83203125,0.04798694668119065,2.7392583770852483,22.94905479204298,2.0413622511476643,4060,0,46.84733415199595,20.400491972221946,43.54675104037435,0.13427413323243,0.058472022510346854,0.2578125,,
3.2145899999979886,1500,,,,0.15625,-0.126953125,-1.0234375,0.04798694668119065,2.7392583770852483,22.949587048701915,2.027262446232153,4060,0,46.524835980369176,20.401483100977277,43.850736216642524,0.134267610032431,0.058877335499711574,0.259765625,,
3.223464999999851,1500,,,,-0.375,0.2265625,-0.93359375,0.04798694668119065,2.7392583770852483,22.950383468872385,2.0105969256115355,4057,0,46.143970444120626,20.38701754669822,44.18132499323279,0.13436287925934928,0.05936330035583809,0.26171875,,
3.2323300000000743,1500,,,,-0.0625,-0.015625,-0.9765625,0.04798694668119065,2.7392583770852483,22.95101690245945,1.9970662344261045,4054,0,45.834700901644574,20.37368242011347,44.4503444319028,0.13445082340053438,0.0597638540930669,0.263671875,,
3.240719999998808,1500,,,,0.0625,-0.1953125,-1.23046875,0.04798694668119065,2.7392583770852483,22.9515896707989,1.9849896863835257,4058,0,45.55866878264248,20.390937380947598,44.75753555976683,0.13433705012721445,0.060125952980629796,0.265625,,
3.2496199999991804,1500,,,,-0.09375,0.08203125,-0.87109375,0.04798694668119065,2.7392583770852483,22.952282518699764,1.9703839852042089,4059,0,45.22480989872854,20.398174155779607,45.10394670858105,0.1342893906173023,0.06056981517930627,0.265625,,
3.2584249999988826,1500,,,,0.125,-0.1015625,-1.005859375,0.06294951152619735,2.7392583770852483,22.952556904943307,1.9568494879406144,4052,0,44.914699226366125,26.710156520869614,59.46863049500294,0.1025549354210997,0.06098801559996267,0.267578125,,
3.266125,1500,,,,-0.375,0.19921875,-0.83984375,0.06294951152619735,2.7392583770852483,22.95323753360433,1.9448613140556301,4053,0,44.64086371143673,26.71797159616891,59.85092889079545,0.1025249378391446,0.06136212764143867,0.267578125,,
3.274489999998361,1500,,,,0.15625,-0.150390625,-1.0234375,0.06294951152619735,2.7392583770852483,22.953575288053752,1.9328244437930977,4057,0,44.365231389195486,26.743802713425435,60.280994544612035,0.1024259117687155,0.061743358285568525,0.267578125,,
3.2824049999993297,1500,,,,-0.125,0.001953125,-1.015625,0.06294951152619735,2.7392583770852483,22.954086175536247,1.9235094164495934,4058,0,44.15240090463941,26.749662813479926,60.58484310118036,0.10240347312732694,0.06204098352435042,0.26953125,,
3.291339999999851,1500,,,,0.25,-0.109375,-0.8125,0.06294951152619735,2.7392583770852483,22.954631613458705,1.9138148482930764,4053,0,43.93091481893492,26.719656512112877,60.821989758784355,0.10251847271477665,0.06235377497544359,0.271484375,,
3.3019000000003724,1500,,,,-0.1875,0.046875,-1.037109375,0.06294951152619735,2.7392583770852483,22.954896225508076,1.9066703421572837,4056,0,43.767419840474425,26.73816946907303,61.09149126571679,0.1024474910391169,0.06258670004010809,0.2734375,,
3.311539999999106,1500,,,,-0.09375,0.052734375,-0.8515625,0.06294951152619735,3.4036775974702804,22.955278216288033,1.894414475728861,4053,0,43.48681134731944,26.71985624482269,61.44358580677983,0.12738382895041905,0.0782691922451124,0.275390625,,
3.3191150000002234,1500,,,,0.15625,-0.158203125,-1.03515625,0.06294951152619735,3.4036775974702804,22.955557473158695,1.8890283649035782,4055,0,43.363699198971084,26.729690611969474,61.64070664110618,0.12733696199035405,0.07849140318617101,0.27734375,,
3.327179999999702,1500,,,,-0.125,0.013671875,-1.013671875,0.06294951152619735,3.4036775974702804,22.95557926530617,1.8815328264393525,4058,0,43.19167593760411,26.75025392808532,61.933817911417655,0.1272390761830014,0.07880401775535006,0.27734375,,
3.3363149999994786,1500,,,,0.25,-0.1015625,-0.83203125,0.06294951152619735,3.4036775974702804,22.955896271283557,1.8746129671936858,4059,0,43.033420823701334,26.758837056071176,62.18152436845858,0.12719826315090318,0.07909381899743492,0.279296875,,
3.344210000000894,1500,,,,-0.1875,0.025390625,-1.05078125,0.06294951152619735,3.4036775974702804,22.95609696575898,1.8675401546195693,4053,0,42.871432876895355,26.718938620193047,62.32340938292419,0.1273882037701125,0.07939267174120088,0.28125,,
3.3520999999996275,1500,,,,-0.09375,0.09375,-0.859375,0.06294951152619735,3.4036775974702804,22.956223061382225,1.860149705982884,4057,0,42.702011578107644,26.7459924848621,62.63403408043233,0.12725934920518353,0.07970766415171104,0.283203125,,
3.36377499999851,1500,,,,0.0625,-0.140625,-1.25,0.06294951152619735,3.4036775974702804,22.956707200136268,1.853375658608825,4059,0,42.54740232654251,26.756716389042854,62.88683897477593,0.12720834455098237,0.07999730680025444,0.283203125,,
3.372629999998957,1500,,,,-0.0625,-0.021484375,-0.9609375,0.06294951152619735,3.4036775974702804,22.957158606592078,1.84685496615558,4056,0,42.398542381405896,26.73623138938341,63.05931734367529,0.1273058101532527,0.08027817482147644,0.28515625,,
3.380629999998957,1500,,,,0.1875,-0.0859375,-0.8515625,0.06294951152619735,3.4036775974702804,22.957502640616518,1.8418411748848025,4054,0,42.284073636014085,26.72199454900023,63.19635799290785,0.12737363564792825,0.08049549877264685,0.28515625,,
3.3884749999996275,1500,,,,-0.1875,0.013671875,-0.990234375,0.06294951152619735,3.4036775974702804,22.957624047791303,1.8367161834527201,4057,0,42.16663962220163,26.74096677389436,63.417353181292334,0.12728326639233895,0.08071967858871476,0.287109375,,
3.396375,1500,,,,-0.125,0.095703125,-0.865234375,0.06294951152619735,3.4036775974702804,22.957674891788205,1.8344684300593834,4058,0,42.11512981655243,26.748521953528176,63.51285647234371,0.1272473149501006,0.08081840450916856,0.287109375,,
3.405624999998137,1500,,,,0.0625,-0.15234375,-1.171875,0.0676448254657639,3.4036775974702804,22.957581462225413,1.8337172799515327,4055,0,42.097713833177714,28.72368611617308,68.23098810067827,0.11849724243970954,0.0808518393886701,0.2890625,,
3.4134199999999253,1500,,,,-0.09375,0.078125,-0.80859375,0.0676448254657639,3.4036775974702804,22.95763395308922,1.8345699926709753,4056,0,42.117386353061825,28.732358835845076,68.21971001473672,0.11846147463618684,0.08081407447598755,0.2890625,,
3.4219399999994784,1500,,,,0.15625,-0.16015625,-1.025390625,0.0676448254657639,3.4036775974702804,22.957751734917032,1.827740314765328,4058,0,41.96080838228151,28.749150002615934,68.51429014593444,0.11839228628187524,0.08111563453356935,0.291015625,,
3.430214999999851,1500,,,,-0.1875,-0.029296875,-1.029296875,0.0676448254657639,3.4036775974702804,22.958238600158836,1.8231040794641102,4060,0,41.85525844925998,28.762984231004804,68.72012095176382,0.11833534274935617,0.08132019066604185,0.29296875,,
3.4378749999981375,1500,,,,0.1875,-0.07421875,-0.8515625,0.0676448254657639,3.4036775974702804,22.958323295574026,1.818414808118559,4061,0,41.74775505024508,28.767654651854915,68.90826732415168,0.11831613103888584,0.08152959586386907,0.294921875,,
3.452039999999106,1500,,,,-0.1875,0.01171875,-0.98828125,0.0676448254657639,3.4036775974702804,22.95815095439131,1.807010694745339,4061,0,41.48562430616301,28.764639838105236,69.33640343899086,0.11832853171904985,0.08204474813615466,0.296875,,
3.462300000000745,1500,,,,-0.041015625,-0.01171875,-0.9609375,0.0676448254657639,3.6646618778374886,22.958168613185595,1.8017407908137848,4054,0,41.36466887275723,28.717717588409936,69.42571612684522,0.1276097888544072,0.08859400976012731,0.296875,,
3.470379999998957,1500,,,,-0.09375,0.0546875,-0.84765625,0.0676448254657639,3.6646618778374886,22.958395155668008,1.795935980862291,4059,0,41.23180792291869,28.750286933345528,69.72841692290841,0.12746522795871973,0.0888794855827917,0.298828125,,
3.4791199999991806,1500,,,,0.0625,-0.20703125,-1.203125,0.0676448254657639,3.6646618778374886,22.958408285670732,1.7929436752176846,4059,0,41.16313292885862,28.756060442513416,69.85877506508533,0.12743963607822978,0.08902776871165387,0.298828125,,
3.4880750000011176,1500,,,,-0.125,0.115234375,-0.81640625,0.0676448254657639,3.6646618778374886,22.958505248394673,1.7885751653187463,4060,0,41.06301232011881,28.75862826050485,70.03535940400205,0.1274282571700503,0.08924483789130075,0.30078125,,
3.496429999999702,1500,,,,0.15625,-0.16015625,-1.05078125,0.0676448254657639,3.6646618778374886,22.958777057736054,1.7908235892003768,4058,0,41.11511953418614,28.74616155756259,69.91627869076463,0.12748352055627346,0.08913173351692237,0.30078125,,
3.5045449999980627,1500,,,,-0.15625,-0.01171875,-1.025390625,0.0676448254657639,3.6646618778374886,22.958576766949864,1.7933529724460329,4054,0,41.17283188813997,28.715063075450114,69.74274481158929,0.12762158551448852,0.08900679670987392,0.302734375,,
3.5141749999988825,1500,,,,0.1875,-0.1328125,-0.8203125,0.0676448254657639,3.6646618778374886,22.958504476632726,1.7901636917111785,4058,0,41.09948113005646,28.744600432459496,69.93908351664878,0.12749044421223588,0.08916564825334217,0.302734375,,
3.5223149999994785,1500,,,,-0.15625,-0.017578125,-0.998046875,0.0676448254657639,3.6646618778374886,22.958721917852824,1.7854246828898512,4060,0,40.991068799738656,28.758703293110415,70.15846167273826,0.12742792470463765,0.08940147171426896,0.3046875,,
3.53036999999918,1500,,,,-0.0625,0.046875,-0.80859375,0.0676448254657639,3.6646618778374886,22.958784876422204,1.782690036508768,4061,0,40.92839704954605,28.766030536438343,70.2837946514629,0.1273954664407176,0.08953836802846729,0.3046875,,
3.53852499999851,1500,,,,0.1875,-0.1640625,-1.033203125,0.0676448254657639,3.6646618778374886,22.95884440928261,1.7807415968768654,4061,0,40.88376925583341,28.768903006507266,70.36754078735645,0.12738274646789888,0.08963610607685359,0.306640625,,
3.546550000000745,1500,,,,-0.375,0.26953125,-0.8515625,0.0676448254657639,3.6646618778374886,22.958901373103817,1.7793047793711283,4061,0,40.850882942273984,28.770042644300634,70.42697873863662,0.12737770058757492,0.08970826611057561,0.30859375,,
3.554245000001043,1500,,,,0.15625,-0.19140625,-1.017578125,0.0696292226681675,3.6646618778374886,22.959150697536256,1.7810257350788756,4061,0,40.89083824786619,29.60770220447081,72.40668930531359,0.12377393735350793,0.08962061026050797,0.30859375,,
3.562625,1500,,,,-0.375,0.30859375,-0.875,0.0696292226681675,3.6646618778374886,22.95880179166316,1.792191565774305,4060,0,41.14657093130272,29.605202459314405,71.95059464066279,0.12378438833085943,0.08906360347636054,0.310546875,,
3.571839999999851,1500,,,,0.15625,-0.181640625,-0.9921875,0.0696292226681675,3.6646618778374886,22.958501192591193,1.7975898681518008,4061,0,41.269969131752966,29.613760255421404,71.75619676593527,0.12374861706954615,0.08879730115954729,0.310546875,,
3.580729999998584,1500,,,,-0.125,0.037109375,-1.0234375,0.0696292226681675,3.6646618778374886,22.958729698497045,1.7929207951243418,4064,0,41.16318390607416,29.636032908886136,71.99645434743195,0.12365561507858457,0.0890276584580893,0.310546875,,
3.5890849999990313,1500,,,,-0.0625,0.138671875,-0.865234375,0.0696292226681675,3.6646618778374886,22.95898647223578,1.788580578932134,4071,0,41.0639973162065,29.684381655689403,72.28809564521872,0.12345420970340838,0.08924269718844874,0.3125,,
3.597535000000149,1500,,,,0.15625,-0.1015625,-1.03515625,0.0696292226681675,3.6646618778374886,22.95919479959425,1.784277371636275,4068,0,40.965571751905266,29.661044538295684,72.40481035618936,0.12355134267459818,0.08945711535606846,0.3125,,
3.6073699999991806,1500,,,,-0.375,0.37890625,-0.97265625,0.0696292226681675,3.788287926050965,22.95923361512989,1.780403882550594,4065,0,40.876708668763364,29.640042131223602,72.51083342204983,0.1278098023369637,0.0926759528696069,0.314453125,,
3.614964999999851,1500,,,,0.15625,-0.14453125,-1.0546875,0.0696292226681675,3.788287926050965,22.959280106216752,1.7771433543055233,4069,0,40.80193206040211,29.66591581951839,72.7071349846908,0.1276983306060115,0.09284579760690947,0.314453125,,
3.623339999999851,1500,,,,-0.1875,0.150390625,-1.12890625,0.0696292226681675,3.788287926050965,22.959315568123454,1.7741790180111427,4070,0,40.73393594886121,29.67359592742296,72.84735745810622,0.12766527977655737,0.09300078270872014,0.31640625,,
3.630894999999553,1500,,,,0.25,-0.1171875,-0.86328125,0.0696292226681675,3.788287926050965,22.95934930604362,1.7726378849460114,4066,0,40.698612393601834,29.644720559750844,72.83963461223864,0.12778963183057931,0.09308150089771897,0.31640625,,
3.639035000000149,1500,,,,-0.1875,0.15625,-1.123046875,0.0696292226681675,3.788287926050965,22.959380935727378,1.7684554437226456,4063,0,40.60264220028901,29.626694650169558,72.9674056777484,0.12786738347908427,0.09330151243270567,0.318359375,,
3.6465149999987334,1500,,,,-0.09375,0.146484375,-0.912109375,0.0696292226681675,3.788287926050965,22.959581631864264,1.7645191357018508,4062,0,40.51262113713322,29.61995602042091,73.11290948111903,0.12789647369628782,0.09350883304311013,0.3203125,,
3.653910000000149,1500,,,,0.0625,-0.1484375,-1.2265625,0.0696292226681675,3.788287926050965,22.959666799156828,1.7617789675267093,4062,0,40.449858068175786,29.616840330240173,73.21865080545594,0.12790992839917995,0.09365392382010428,0.3203125,,
3.6615,1500,,,,0.1875,-0.08203125,-0.7734375,0.0696292226681675,3.788287926050965,22.959681217067082,1.7609645325734207,4062,0,40.43118430244728,29.615681530164018,73.24960186331073,0.1279149332488782,0.09369717932852296,0.3203125,,
3.67,1500,,,,-0.1875,0.12890625,-1.056640625,0.0696292226681675,3.788287926050965,22.95962597686018,1.7611624882716888,4054,0,40.43563201519438,29.55784518605322,73.09851166650829,0.12816522659907756,0.09368687311793349,0.322265625,,
3.677589999999851,1500,,,,-0.09375,0.154296875,-0.93359375,0.0696292226681675,3.788287926050965,22.95981865486277,1.761504586354194,4055,0,40.44382586240135,29.56903741036536,73.11137554336632,0.12811671457126936,0.09366789232402348,0.322265625,,
3.685160000000149,1500,,,,0.125,-0.140625,-0.98046875,0.0696292226681675,3.788287926050965,22.959632693842906,1.7596462447609222,4059,0,40.40083145081076,29.593253720222904,73.2491205193477,0.12801187601288308,0.09376757333975468,0.32421875,,
3.692925000000745,1500,,,,-0.4375,0.33203125,-0.94140625,0.0696292226681675,3.788287926050965,22.959735187761357,1.7577933227790281,4060,0,40.358469205821606,29.605419216171086,73.35615001943775,0.12795927321244363,0.09386599642150238,0.32421875,,
3.7010649999994785,1500,,,,0.0625,-0.14453125,-1.15234375,0.0696292226681675,3.788287926050965,22.95987776913472,1.7564362644766436,4061,0,40.32756194165932,29.61106394696951,73.4263677774693,0.12793488044993637,0.09393793583483594,0.32421875,,
3.710414999999106,1500,,,,-0.09375,0.130859375,-0.92578125,0.0704014216192793,3.788287926050965,22.959884479943657,1.7514436710314358,4053,0,40.212944360010205,29.876849239646972,74.29659706628702,0.12679676814862584,0.09420568392445869,0.32421875,,
3.7187949999999255,1500,,,,0.15625,-0.16015625,-0.998046875,0.0704014216192793,3.788287926050965,22.959709429642604,1.7495402121369483,4052,0,40.16893490613961,29.873298286133117,74.36915705117971,0.1268118401177499,0.09430889653666036,0.326171875,,
3.7265800000000744,1500,,,,-0.15625,0.068359375,-1.0625,0.0704014216192793,3.788287926050965,22.959895855044294,1.7467077031135207,4057,0,40.10422695269006,29.906446399163496,74.57180619500127,0.1266712826889699,0.09446106343154083,0.328125,,
3.734050000000745,1500,,,,0.1875,-0.1328125,-0.84375,0.0704014216192793,3.788287926050965,22.959900973578556,1.7474726136857632,4059,0,40.12179816426562,29.921782271988725,74.57737100785899,0.12660635959500885,0.09441969451471381,0.326171875,,
3.741464999999851,1500,,,,-0.1875,0.125,-1.04296875,0.0704014216192793,3.788287926050965,22.96008428382657,1.7476558476266417,4053,0,40.126325560630065,29.882004118231063,74.46982423815497,0.12677489471797923,0.09440904127458516,0.328125,,
3.749605000000447,1500,,,,0.25,-0.16796875,-0.8359375,0.0704014216192793,3.788287926050965,22.960080233770352,1.7464743104637315,4053,0,40.09919029446603,29.87796488594456,74.51014513394783,0.12679203354419508,0.09447292821206356,0.328125,,
3.7593749999981374,1500,,,,-0.1875,0.126953125,-1.08984375,0.0704014216192793,3.8447759480989925,22.960076347517592,1.7462983276305246,4056,0,40.095142927939136,29.90374160341135,74.581955368399,0.128571735239325,0.09589131419256951,0.330078125,,
3.766929999999702,1500,,,,-0.0625,0.107421875,-0.888671875,0.0704014216192793,3.8447759480989925,22.96019260086416,1.7453057684183444,4059,0,40.07255659028441,29.922602318498228,74.6710588606492,0.12849069433115923,0.09594536199447676,0.33203125,,
3.7750799999982116,1500,,,,0.0625,-0.15625,-1.1640625,0.0704014216192793,3.8447759480989925,22.960184230771745,1.7440617233479214,4052,0,40.04397847790554,29.87647128657843,74.60914829694786,0.12868909153358424,0.09601383514428682,0.33203125,,
3.782585000000894,1500,,,,-0.09375,0.115234375,-0.9453125,0.0704014216192793,3.8447759480989925,22.96037197115993,1.744644517235619,4049,0,40.057687073174556,29.850659816497146,74.51917970692634,0.12880036728615807,0.09598097716115328,0.33203125,,
3.7905250000003727,1500,,,,0.15625,-0.111328125,-1.048828125,0.0704014216192793,3.8447759480989925,22.960353954530564,1.7458239318816342,4047,0,40.08473541829258,29.83829540878795,74.43805003929577,0.12885373964648905,0.09591621119555743,0.333984375,,
3.7983499999996275,1500,,,,-0.4375,0.4140625,-1.03125,0.0704014216192793,3.8447759480989925,22.960402088514968,1.746745368892815,4054,0,40.10597601603044,29.888124536764106,74.5228704191559,0.12863891621468915,0.0958654128392793,0.3359375,,
3.8063899999987334,1500,,,,0.15625,-0.099609375,-1.046875,0.0704014216192793,3.8447759480989925,22.960253020194852,1.7480343343436335,4057,0,40.135310604517706,29.907653823666738,74.51706084541993,0.12855491677038594,0.09579534554956745,0.3359375,,
3.8146200000010433,1500,,,,-0.1875,0.15234375,-1.12890625,0.0704014216192793,3.8447759480989925,22.96024020144707,1.7477725873062548,4054,0,40.12927842205623,29.8876939752519,74.47852328893296,0.1286407693843027,0.09580974538495042,0.3359375,,
3.8235149999987335,1500,,,,0.25,-0.109375,-0.83984375,0.0704014216192793,3.8447759480989925,22.960155816640086,1.7491384856662697,4050,0,40.16049217577943,29.858364815680694,74.34760680967976,0.12876713014370547,0.09573527961935076,0.3359375,,
3.830984999999404,1500,,,,-0.1875,0.150390625,-1.146484375,0.0704014216192793,3.8447759480989925,22.960149123153943,1.7497126494048896,4048,0,40.17366335300504,29.84242927258746,74.28356485780928,0.1288358904357264,0.09570389223195894,0.337890625,,
3.838984999999404,1500,,,,-0.125,0.181640625,-0.919921875,0.0704014216192793,3.8447759480989925,22.959945701098366,1.7484193007310749,4055,0,40.143612207537856,29.89658811324966,74.47408558723549,0.1286024991726415,0.09577553530115683,0.337890625,,
3.8469199999999253,1500,,,,0.0625,-0.1875,-1.2265625,0.0704014216192793,3.8447759480989925,22.959883425321273,1.7500557642333672,4050,0,40.18107633460964,29.85645625583284,74.30476975579727,0.12877536152160945,0.09568623588082746,0.33984375,,
3.855344999998808,1500,,,,-0.0625,0.138671875,-0.912109375,0.07103065999913674,3.8447759480989925,22.959669236169827,1.7485835019390126,4051,0,40.14689883634325,30.13555364539225,75.06321663408741,0.1275827215036702,0.09576769462996437,0.33984375,,
3.8630050000008196,1500,,,,0.125,-0.1875,-1.21875,0.07103065999913674,3.8447759480989925,22.959512865443372,1.7481553647046693,4055,0,40.136795586730706,30.16490017150531,75.15522784155165,0.1274586001027408,0.09579180131086702,0.341796875,,
3.8715499999988823,1500,,,,-0.0625,0.11328125,-0.9140625,0.07103065999913674,3.8447759480989925,22.959539608552056,1.7482234370998786,4050,0,40.13840524869368,30.128535043760316,75.06161457359062,0.1276124425736144,0.0957879597925511,0.341796875,,
3.8795499999988823,1500,,,,0.1875,-0.123046875,-1.021484375,0.07103065999913674,3.8447759480989925,22.95969319439226,1.7488139327091057,4056,0,40.152231349079614,30.171471976845,75.14270306558343,0.12743083768168995,0.0957549759731379,0.341796875,,
3.8878650000002235,1500,,,,-0.125,0.046875,-1.09765625,0.07103065999913674,3.8447759480989925,22.95970844584428,1.7478751202532423,4056,0,40.13070316075946,30.169952741593352,75.17922778660426,0.12743725457675145,0.09580634390325075,0.34375,,
3.896789999999106,1500,,,,0.25,-0.0859375,-0.875,0.07103065999913674,3.8447759480989925,22.95979722856729,1.7473654888188508,4053,0,40.11915730747718,30.147432039524013,75.14472900931372,0.12753245261680657,0.09583391591783073,0.34375,,
3.9044599999990313,1500,,,,-0.125,0.005859375,-1.05078125,0.07103065999913674,3.8692047920879737,22.959874441843866,1.7453962402315923,4056,0,40.07407852698371,30.172284900564804,75.29127558166665,0.12823704949224923,0.09655131033100764,0.34375,,
3.9161899999994785,1500,,,,-0.03125,0.052734375,-0.828125,0.07103065999913674,3.8692047920879737,22.960073970955733,1.7455897743426072,4051,0,40.078870341850184,30.133729959896865,75.18607611160975,0.12840112383157548,0.09653976669217063,0.345703125,,
3.9257799999993295,1500,,,,0.1875,-0.197265625,-1.01953125,0.07103065999913674,3.8692047920879737,22.95960168951237,1.7489232939736858,4058,0,40.15458221514577,30.182292528669706,75.16525104645554,0.12819452957102825,0.09635773997988605,0.345703125,,
3.9338650000002233,1500,,,,-0.375,0.22265625,-0.83203125,0.07103065999913674,3.8692047920879737,22.959553229753826,1.7488351150816306,4051,0,40.15247291477936,30.128889177796957,75.03619824797164,0.12842175392710223,0.09636280187026272,0.34765625,,
3.9415499999988826,1500,,,,0.1875,-0.19921875,-0.978515625,0.07103065999913674,3.8692047920879737,22.95945005610069,1.7485585714698155,4056,0,40.145943191827996,30.17035722458948,75.15169610146532,0.12824524294775302,0.09637847524468122,0.34765625,,
3.949144999999553,1500,,,,-0.125,0.0234375,-1.033203125,0.07103065999913674,3.8692047920879737,22.959672009873564,1.7463780981241728,4056,0,40.0962683381578,30.169523666494054,75.24272187140939,0.12824878625395966,0.09649787754452517,0.34765625,,
3.9567949999999255,1500,,,,-0.09375,0.0859375,-0.86328125,0.07103065999913674,3.8692047920879737,22.959512211971905,1.7462261699841983,4051,0,40.09250107461713,30.134723684637382,75.16299277152332,0.12839688966720098,0.09650694489941902,0.349609375,,
3.9692249999996276,1500,,,,0.125,-0.23828125,-1.203125,0.07103065999913674,3.8692047920879737,22.959755270890437,1.748310227754875,4058,0,40.14077496684665,30.182396169966072,75.1913638809777,0.12819408937247154,0.09639088421396085,0.349609375,,
3.9850649999994783,1500,,,,0.125,-0.146484375,-0.984375,0.07103065999913674,3.8692047920879737,22.959678210080128,1.7483356245932131,4054,0,40.14122334387962,30.15665403529205,75.1263950700946,0.12830351761040462,0.096389807528821,0.349609375,,
3.992379999998957,1500,,,,-0.15625,0.03515625,-1.029296875,0.07103065999913674,3.8692047920879737,22.959515492948235,1.747518334506677,4053,0,40.12217427531714,30.148474808471754,75.14167752124756,0.12833832612324134,0.09643557115169302,0.349609375,,
4.000175000000745,1500,,,,0.25,-0.10546875,-0.87109375,0.07103065999913674,3.8692047920879737,22.959473682767367,1.7483621771170805,4049,0,40.14147539346547,30.117028737674957,75.02720924547191,0.12847232792416152,0.09638920229418951,0.349609375,,
4.007300000000745,1500,,,,-0.1875,0.025390625,-1.017578125,0.07135377047727284,3.8692047920879737,22.959496622288736,1.7486902555037553,4048,0,40.1490480146677,30.24896394141375,75.34167168886012,0.127911977401337,0.09637102206444428,0.3515625,,
4.015419999998063,1500,,,,-0.125,0.1328125,-0.814453125,0.07135377047727284,3.8692047920879737,22.959521553740206,1.7477598181434302,4052,0,40.12772921542515,30.27912384647929,75.45685848288659,0.1277845690550873,0.09642222143486372,0.3515625,,
4.02527499999851,1500,,,,0.0625,-0.2109375,-1.2421875,0.07135377047727284,3.8692047920879737,22.959475078293483,1.7470237627012002,4056,0,40.11074854092471,30.30855876382622,75.56218686096724,0.1276604678644745,0.09646304127533924,0.353515625,,
4.040740000000223,1500,,,,0.125,-0.12890625,-1.033203125,0.07135377047727284,3.8692047920879737,22.959595447723974,1.744715925185774,4058,0,40.05797181346682,30.320228270636388,75.69087224841282,0.12761133450420303,0.09659013217407106,0.353515625,,
4.056259999999776,1500,,,,0.125,-0.126953125,-1.04296875,0.07135377047727284,3.879675541973592,22.95957169907434,1.7453445086886141,4050,0,40.07236238682191,30.258573943595326,75.50983306526017,0.12821739547956398,0.0968167412872432,0.35546875,,
4.073139999998733,1500,,,,-0.21875,0.06640625,-0.958984375,0.07135377047727284,3.879675541973592,22.95975579969843,1.7446652028088854,4052,0,40.05708700872334,30.278075001704956,75.58731116696332,0.12813481510152572,0.09685366140400335,0.357421875,,
4.090594999998808,1500,,,,-0.08203125,0.0859375,-0.904296875,0.07135377047727284,3.879675541973592,22.96002949633331,1.748153126111363,4049,0,40.13764733962418,30.25104089777933,75.36824627963503,0.12824932388552593,0.09665926627800997,0.359375,,
4.101044999998063,1500,,,,-0.08203125,0.09765625,-0.93359375,0.07135377047727284,3.879675541973592,22.960120598711367,1.7499076388327721,4052,0,40.1780904242067,30.27940087645728,75.3629666237557,0.1281292043327747,0.09656196949659274,0.361328125,,
4.108954999998212,1500,,,,-0.15625,0.314453125,-0.822265625,0.07135377047727284,3.879675541973592,22.960115402638696,1.7491789536664872,4051,0,40.16135063604935,30.272943543075773,75.37830043968289,0.12815653477677683,0.09660221781712554,0.36328125,,
4.1169299999997016,1500,,,,0.15625,-0.107421875,-1.01171875,0.07135377047727284,3.879675541973592,22.95991081023238,1.7495138360189355,4055,0,40.16868163626228,30.297864394450087,75.42658399597235,0.12805112239806132,0.09658458739335908,0.36328125,,
4.124759999999776,1500,,,,-0.21875,0.130859375,-1.00390625,0.07135377047727284,3.879675541973592,22.959850867557044,1.7476228743992492,4051,0,40.125160568938135,30.27303244443295,75.44650791470737,0.12815615842565,0.09668934620979296,0.365234375,,
4.133175000000745,1500,,,,0.25,-0.03125,-0.8515625,0.07135377047727284,3.879675541973592,22.95985826593476,1.7499562898755785,4048,0,40.17874838712432,30.244522384556827,75.27492417919366,0.12827696508623312,0.0965603882080327,0.365234375,,
4.141685000000521,1500,,,,-0.25,0.1640625,-1,0.07135377047727284,3.879675541973592,22.959866508296944,1.7492971200191416,4051,0,40.163628358987786,30.267539239058962,75.36056993786447,0.12817941727377152,0.09659673940054775,0.3671875,,
4.150974999999628,1500,,,,-0.125,0.3046875,-0.875,0.07135377047727284,3.879675541973592,22.959873448583245,1.7486307762542708,4057,0,40.14834133109594,30.317724042721657,75.51426294973682,0.1279672424126105,0.09663351992498584,0.369140625,,
4.160019999999553,1500,,,,0.1875,-0.173828125,-1.017578125,0.07153850038246269,3.879675541973592,22.95995413070727,1.7478341502103227,4051,0,40.13019191691273,30.34938313942359,75.6273062492705,0.1278337528031641,0.09667722372238435,0.369140625,,
4.167955000000075,1500,,,,-0.5,0.48046875,-0.83203125,0.07153850038246269,3.879675541973592,22.9598907957689,1.7482313703417156,4049,0,40.1392013487832,30.333619445741288,75.571058781569,0.12790018510363696,0.09665552406640503,0.37109375,,
4.1770649999994784,1500,,,,0.15625,-0.154296875,-1.017578125,0.07153850038246269,3.879675541973592,22.9597504409565,1.7503199310192614,4055,0,40.18690880803444,30.37860574438159,75.59328807670845,0.1277107835237344,0.09654078049411806,0.37109375,,
4.184889999998734,1500,,,,-0.21875,0.095703125,-1.0078125,0.07153850038246269,3.879675541973592,22.95966476006109,1.7493180952874094,4053,0,40.163757026507525,30.36141706080029,75.5940661645826,0.12778308516379008,0.09659642994586039,0.373046875,,
4.192604999998585,1500,,,,0.25,-0.0078125,-0.9140625,0.07153850038246269,3.879675541973592,22.959681340166952,1.749215107557727,4052,0,40.16142146493127,30.354599902598157,75.58148789405679,0.1278117832032936,0.09660204744897545,0.373046875,,
4.200299999998882,1500,,,,-0.21875,0.087890625,-0.998046875,0.07153850038246269,3.893098265892086,22.95978117175125,1.7481018452337629,4056,0,40.13603583250177,30.382293282325545,75.6982912042406,0.1281370773995141,0.09699757799048736,0.375,,
4.209080000000075,1500,,,,-0.09375,0.232421875,-0.900390625,0.07153850038246269,3.893098265892086,22.959683332057537,1.7456695053626432,4049,0,40.0800190455558,30.329813221607917,75.67315072164614,0.12835879461066116,0.09713314411021381,0.375,,
4.217710000000894,1500,,,,0.15625,-0.140625,-1.0078125,0.07153850038246269,3.893098265892086,22.959632711295118,1.7459639255847368,4052,0,40.08669045859656,30.353981061000518,75.72084578134869,0.12825659533977987,0.09711697876164316,0.375,,
4.227995000001043,1500,,,,-0.5,0.484375,-0.83984375,0.07153850038246269,3.893098265892086,22.959652757224337,1.746269001421151,4053,0,40.09372989333452,30.363776157611646,75.73198163002426,0.1282152208501299,0.09709992750111542,0.376953125,,
4.246134999997913,1500,,,,-0.25,0.125,-1,0.07153850038246269,3.893098265892086,22.959691952364732,1.7471184305657388,4049,0,40.1133009700883,30.330231721123024,75.61140815546365,0.12835702350341086,0.0970525529373684,0.37890625,,
4.261259999999776,1500,,,,0.15625,-0.19921875,-1.064453125,0.07153850038246269,3.893098265892086,22.95964662989334,1.7502971066259767,4050,0,40.18620306545717,30.341312891668217,75.50181549186637,0.12831014530558227,0.09687648916596636,0.37890625,,
4.270054999999702,1500,,,,-0.4375,0.46875,-0.828125,0.07153850038246269,3.893098265892086,22.95973050266458,1.7497131749875825,4054,0,40.172942954676486,30.37239131535845,75.60409838438991,0.12817885248052424,0.09690846573735755,0.380859375,,
