Time (s),ESC signal (µs),Servo 1 (µs),Servo 2 (µs),Servo 3 (µs),AccX (g),AccY (g),AccZ (g),Torque (N·m),Thrust (N),Voltage (V),Current (A),Motor Electrical Speed (RPM),Motor Optical Speed (RPM),Electrical Power (W),Mechanical Power (W),Motor Efficiency (%),Propeller Mech. Efficiency (N/W),Overall Efficiency (N/W),Vibration (g),App message,90% settling time (s),Max acceleration (RPM/s),
0,1000,,,,-0.0625,0.052734375,-0.955078125,-0.0002827653136658721,0.010281965072972767,23.008484627682638,0.07846503859066148,0,0,1.8053616342237595,0,0,0,0,0.060546875,,
0,1200,,,,-0.0625,0.046875,-0.953125,-0.0002827653136658721,0.010281965072972767,23.008497835351456,0.07864051088402038,0,0,1.8094000244459156,0,0,0,0,0.060546875,,
0.008379999998956918,1200,,,,-0.0625,0.046875,-0.955078125,-0.0002827653136658721,0.010281965072972767,23.00847388560026,0.07883785886629173,0,0,1.813938816921712,0,0,0,0,0.060546875,,
0.02553999999910593,1200,,,,-0.0625,0.05078125,-0.955078125,-0.0002827653136658721,0.010281965072972767,23.008507913222005,0.08005117624341902,0,0,1.8418581220594359,0,0,0,0,0.060546875,,
0.03369500000029802,1200,,,,-0.0625,0.05078125,-0.95703125,-0.0002827653136658721,0.007694398869360697,23.008483250336454,0.07923131368482747,0,0,1.8229923538195063,0,0,0,0,0.060546875,,
0.040814999999478456,1200,,,,0,0.029296875,-0.951171875,-0.0002827653136658721,0.007694398869360697,23.00794216164283,0.07994805469330375,0,0,1.8394402183193903,0,0,0,0,0.060546875,,
0.048814999999478456,1200,,,,-0.125,0.06640625,-0.98046875,-0.0002827653136658721,0.007694398869360697,23.00638534234869,0.1247236741180594,0,0,2.8694409080735963,0,0,0,0,0.060546875,,
0.05720499999821186,1200,,,,0.09375,0.11328125,-0.853515625,-0.0002827653136658721,0.007694398869360697,23.004700112509454,0.17180618181062798,0,0,3.952349690028773,0,0,0,0,0.06640625,,
0.06883999999985099,1200,,,,-0.25,0.146484375,-0.98046875,-0.0002827653136658721,0.007694398869360697,23.003295325854275,0.21333941926576902,0,0,4.90750966601673,0,0,0,0,0.0703125,,
0.07823999999836087,1200,,,,0,0.048828125,-1,-0.0002827653136658721,0.007694398869360697,23.001885103840195,0.26529446183644045,0,0,6.102272729846921,0,0,0,0,0.076171875,,
0.08672999999858438,1200,,,,0.0625,-0.0703125,-0.94140625,-0.0002827653136658721,0.007694398869360697,23.00128250277355,0.2848539469918986,1,0,6.552006106790741,0.00001888944610236847,0.00028830019072770323,0,0.0011743577072350312,0.078125,,
0.09608499999903143,1200,,,,-0.1875,0.1640625,-0.90625,-0.0002827653136658721,0.007694398869360697,23.0010539800586,0.2959742124302425,1,0,6.807718836813339,0.000040226256248577307,0.0005908918569176255,0,0.001130246276880966,0.080078125,,
0.10413499999977648,1200,,,,-0.0625,0.064453125,-0.966796875,-0.0002827653136658721,0.007694398869360697,23.00046223105974,0.33959644988921284,2,0,7.810875319478811,0.000051625853404164056,0.0006609483738066996,0,0.000985087913280648,0.080078125,,
0.11233499999903142,1200,,,,0.0625,0,-1.07421875,-0.00025128132905666897,0.007694398869360697,22.999153434872696,0.37036310295792707,2,0,8.518037831544918,0.00004860231923549932,0.000570581161960915,0,0.0009033064916506907,0.083984375,,
0.12978499999828635,1200,,,,0.0625,0.18359375,-1.12109375,-0.00025128132905666897,0.007694398869360697,22.99820082444594,0.3976997469128791,2,0,9.14637864733372,0.00005008997066132441,0.0005476481194655793,0,0.0008412508563270238,0.08984375,,
0.13792999999783934,1200,,,,-0.03125,-0.005859375,-0.9609375,-0.00025128132905666897,0.007694398869360697,22.998008162586487,0.3973285609270055,2,0,9.137765487428016,0.00005026174981906751,0.0005500442081624767,0,0.0008420438103764929,0.091796875,,
0.14501999999955298,1200,,,,-0.09375,0.033203125,-0.994140625,-0.00025128132905666897,0.007694398869360697,22.998007858254297,0.3949959794890483,2,0,9.084120640267987,0.00005031635437666354,0.0005538935068037491,0,0.0008470163677982273,0.09375,,
0.15404999999888241,1200,,,,0.1875,-0.046875,-1.0390625,-0.00025128132905666897,0.007694398869360697,22.99811793488186,0.39333094225411297,2,0,9.045871397398297,0.00005034358797429053,0.0005565366316037829,0,0.0008505978618680893,0.09375,,
0.16202999999932946,1200,,,,-0.09375,0.056640625,-0.974609375,-0.00025128132905666897,0.007694398869360697,22.998210555281812,0.38894345479695736,2,0,8.94500346751916,0.000050352752005956395,0.000562914840545293,0,0.0008601895904568822,0.095703125,,
0.17126999999955297,1200,,,,-0.125,0.11328125,-0.97265625,-0.00025128132905666897,0.007694398869360697,22.998307954270974,0.38232369977037783,347,0,8.792798185535387,0.009136117035614429,0.10390454600270274,0.8421957423888481,0.0008750796625832247,0.095703125,,
0.17910999999940394,1200,,,,0,0.03515625,-0.95703125,-0.00025128132905666897,0.007694398869360697,22.99832573336288,0.37489847260210624,466,0,8.622037189843459,0.012271962437240515,0.1423325157040215,0.626990092962741,0.0008924107725288525,0.095703125,,
0.18727999999932946,1200,,,,-0.03125,0.0546875,-1.017578125,-0.00025128132905666897,0.00658059392120678,22.99840773755868,0.36793470193686345,513,0,8.461912295941106,0.01349003079912158,0.1594205934466172,0.48781163061801786,0.0007776721964328641,0.095703125,,
0.19608499999903142,1200,,,,-0.0625,0.06640625,-0.97265625,-0.00025128132905666897,0.00658059392120678,22.998495445627885,0.35867476974639384,532,0,8.24898005847407,0.014001929664313604,0.1697413445669517,0.4699776444370085,0.0007977463728314657,0.095703125,,
0.20473499999940395,1200,,,,-0.03125,0.03125,-0.9765625,-0.00025128132905666897,0.00658059392120678,22.998770837369353,0.3504167698228253,539,0,8.059154986726364,0.014176167870011707,0.17590141762207354,0.46420118480166855,0.0008165364646845963,0.09375,,
0.21317499999888243,1200,,,,-0.0625,0.087890625,-0.984375,-0.00025128132905666897,0.00658059392120678,22.999052395688093,0.34079554542178553,541,0,7.837974605372747,0.014246473084047301,0.18176217455822938,0.4619103887947886,0.0008395783671837797,0.09375,,
0.22442999999970198,1200,,,,-0.0625,0.046875,-0.94921875,-0.00025128132905666897,0.00658059392120678,22.99935937995791,0.33211441916086376,542,0,7.638418881546684,0.01427087503848805,0.18683022311023584,0.46112056222615283,0.0008615125752142952,0.09375,,
0.2415099999997765,1200,,,,-0.03125,0.02734375,-0.958984375,-0.00025128132905666897,0.00658059392120678,22.999813509133553,0.311648298781715,714,0,7.167852752418178,0.01879441812584423,0.2622042998791188,0.3501355496692817,0.0009180704666382443,0.09375,,
0.2490949999988079,1200,,,,-0.0625,0.078125,-0.984375,-0.00025128132905666897,0.00658059392120678,23.00008478626635,0.3037015979418328,727,0,6.9851625023867285,0.019134795965290115,0.27393487207709244,0.3439071904996405,0.0009420817223591128,0.09375,,
0.25652499999850986,1200,,,,-0.03125,0.02734375,-0.974609375,-0.00025128132905666897,0.00658059392120678,23.00046783445164,0.2952201190936935,732,0,6.79020085329748,0.019267673597753405,0.28375704951933156,0.34153546808962304,0.0009691309673131526,0.091796875,,
0.26602499999850987,1200,,,,-0.0625,0.1171875,-0.9921875,0.007604690785015541,0.00658059392120678,23.000740329350545,0.2886024769416001,734,0,6.6380706305411215,0.5847282042178293,8.808707179576418,0.011254107248015193,0.0009913413531531443,0.091796875,,
0.2735299999993294,1200,,,,-0.0625,0.078125,-0.982421875,0.007604690785015541,0.00658059392120678,23.001066150382034,0.28145776384628884,735,0,6.473828644767094,0.5854021156974891,9.042595159985886,0.011241151585805596,0.0010164918292247334,0.091796875,,
0.2820049999989569,1200,,,,-0.0625,0.04296875,-0.9609375,0.007604690785015541,0.00658059392120678,23.000750313231322,0.2966106064137823,776,0,6.822266498379535,0.6176354602690768,9.053229750197843,0.010654494996676362,0.0009645759107724452,0.091796875,,
0.29071999999880793,1200,,,,0.09375,-0.009765625,-1.08984375,0.007604690785015541,0.00658059392120678,22.999722201010506,0.33357305009722793,791,0,7.672087485980003,0.6303166421790337,8.2157123902833,0.010440139892955013,0.0008577318667484147,0.09375,,
0.2991849999986589,1200,,,,0,0.044921875,-1.083984375,0.007604690785015541,0.00658059392120678,22.998779243792544,0.35763349367443614,798,0,8.225133771204634,0.6355606421749272,7.727055387232255,0.010353998477136007,0.0008000591971214836,0.09375,,
0.30669499999843536,1200,,,,-0.0625,0.05859375,-1.001953125,0.007604690785015541,0.00658059392120678,22.99716496322915,0.41716246395374834,800,0,9.593554000011485,0.6373036323787914,6.6430400285236155,0.010325680863678965,0.0006859391129917966,0.095703125,,
0.3151049999985844,1200,,,,-0.125,0.296875,-0.98046875,0.007604690785015541,0.00658059392120678,22.99545869054363,0.4633059202345259,801,0,10.653932149837342,0.638010082176072,5.988493949492749,0.010314247540982792,0.0006176680899274592,0.09765625,,
0.32324499999918044,1200,,,,-0.03125,0.388671875,-0.900390625,0.007604690785015541,0.00658059392120678,22.99411133151252,0.49399037224992326,865,0,11.358869616210049,0.6889123646446096,6.064972905943692,0.009552149531532248,0.0005793352810226581,0.099609375,,
0.3314949999991804,1200,,,,-0.09375,-0.0625,-1.005859375,0.007604690785015541,0.00658059392120678,22.99313716442137,0.518853630763733,953,0,11.930072700408553,0.7591267274797339,6.363135804308527,0.00866863684678058,0.0005515971349429767,0.103515625,,
0.3403249999992549,1200,,,,-0.375,0.1953125,-0.84765625,0.007604690785015541,0.05593161064117524,22.992407754676492,0.541139393339002,991,0,12.442097583768602,0.7891025465453723,6.342198662505266,0.07088002805977417,0.004495352191590354,0.107421875,,
0.3490849999990314,1200,,,,0.125,0.0234375,-1.03125,0.007604690785015541,0.05593161064117524,22.992093675762906,0.5535821360736742,1004,0,12.728012329834845,0.7996821807027612,6.282852027321518,0.06994229956708864,0.0043943711863061174,0.107421875,,
0.3571949999984354,1200,,,,-0.09375,0.125,-1.0234375,0.007604690785015541,0.05593161064117524,22.992089076723605,0.5615141252146926,1186,0,12.910382784774743,0.9443955220742055,7.315007911213402,0.05922477323730939,0.004332296847707379,0.107421875,,
0.36515499999932943,1200,,,,-0.03125,-0.015625,-0.955078125,0.007604690785015541,0.05593161064117524,22.991821966692743,0.5654045885307084,1257,0,12.999681638649214,1.0010547202592026,7.700609507874236,0.055872680593017816,0.004302536954050133,0.107421875,,
0.3767749999985099,1200,,,,-0.0625,0.0546875,-0.89453125,0.007604690785015541,0.05593161064117524,22.991764927043874,0.5663248936986653,1285,0,13.020808828252825,1.023371585663488,7.859508569413559,0.054654254060525626,0.004295555781436069,0.107421875,,
0.3949699999988079,1200,,,,-0.09375,0.01953125,-0.9765625,0.007604690785015541,0.05593161064117524,22.99176022585438,0.5699840425517904,1430,0,13.104936438913946,1.1387411946607489,8.689406468842977,0.049117052147953824,0.004267980306649278,0.107421875,,
0.40333999999798836,1200,,,,0.03125,0.03125,-0.986328125,0.007604690785015541,0.05593161064117524,22.991772887268464,0.5631791085524256,1457,0,12.948486158691681,1.1603703053103587,8.961436040393489,0.04820151841632614,0.004319548243377555,0.107421875,,
0.41229499999992547,1200,,,,-0.0625,0.087890625,-0.974609375,0.032704053171962684,0.05593161064117524,22.992006376117235,0.5531838338703137,1495,0,12.718806235511229,5.118955715894314,40.247139716635196,0.010926371265042997,0.004397551909000135,0.107421875,,
0.420285000000149,1200,,,,-0.0625,0.07421875,-0.93359375,0.032704053171962684,0.05593161064117524,22.992403893542058,0.5433923146668433,1533,0,12.49389557146676,5.251185516953016,42.03000967084709,0.010651234937445018,0.004476715074272784,0.10546875,,
0.42795999999903145,1200,,,,0,0.015625,-1.11328125,0.032704053171962684,0.05593161064117524,22.99296115474415,0.5337631916375841,1548,0,12.272796331155229,5.301846212336555,43.199985311232616,0.010549459264026038,0.004557364852473718,0.107421875,,
0.43587999999895694,1200,,,,-0.03125,0.076171875,-0.98828125,0.032704053171962684,0.05593161064117524,22.99330551926097,0.5250746880672886,1563,0,12.07320272316182,5.353728420276108,44.34389567571208,0.010447225979813646,0.004632706989494454,0.10546875,,
0.44318999999947845,1200,,,,-0.0625,0.05078125,-0.953125,0.032704053171962684,0.05593161064117524,22.993534238783525,0.5160236533145954,1586,0,11.86520754051131,5.4308480863081545,45.77120179116666,0.010298872248366843,0.004713917599014451,0.10546875,,
0.45118500000052153,1200,,,,-0.0625,0.013671875,-0.923828125,0.032704053171962684,0.05593161064117524,22.99385548557044,0.5061375898292004,1597,0,11.638054596347562,5.467789318979713,46.98198718448786,0.010229291470142463,0.004805924407566242,0.10546875,,
0.46014999999850986,1200,,,,-0.0625,0.060546875,-1.017578125,0.032704053171962684,0.05593161064117524,22.994267050805533,0.4952644654736519,1601,0,11.388243379875608,5.48297693843446,48.14594099844703,0.010200956755646183,0.004911346620850508,0.10546875,,
0.46833499999903144,1200,,,,-0.0625,0.1640625,-1.03515625,0.032704053171962684,0.05593161064117524,22.994742427213133,0.4848093432531389,1616,0,11.148065974412289,5.53544884440548,49.65389384231108,0.010104259331689734,0.0050171582021090325,0.10546875,,
0.477394999999553,1200,,,,0,0.04296875,-1.01953125,0.032704053171962684,0.05593161064117524,22.994812013674537,0.4740911823506069,1623,0,10.9016376154929,5.557558860340399,50.97911943470085,0.010064060866779455,0.005130569609256487,0.10546875,,
0.4853449999988079,1200,,,,-0.0625,-0.03125,-0.947265625,0.032704053171962684,0.20236482950576526,22.995456492570884,0.46483538608835845,1628,0,10.689101897002237,5.574225653177834,52.14868102942426,0.036303666571230075,0.018931883282216493,0.10546875,,
0.4936699999999255,1200,,,,-0.0625,0.08203125,-0.970703125,0.032704053171962684,0.20236482950576526,22.995678598431297,0.45554334256833673,1635,0,10.475528293356557,5.599379322774548,53.45199942160054,0.03614058234681116,0.01931786386698057,0.10546875,,
0.500785000000149,1200,,,,0.0625,-0.04296875,-0.87890625,0.032704053171962684,0.20236482950576526,22.99601543450974,0.4480375365949403,1638,0,10.303078106776969,5.609248564904023,54.442454058602884,0.03607699447871193,0.019641201144797442,0.10546875,,
0.5091849999986588,1200,,,,-0.03125,0.0625,-1.017578125,0.032704053171962684,0.20236482950576526,22.996215224874998,0.43968608739803644,1639,0,10.111115897188444,5.613280779944035,55.5159374793132,0.0360510791173683,0.020014094543415926,0.10546875,,
0.5174349999986589,1200,,,,-0.0625,0.01953125,-0.94921875,0.032704053171962684,0.20236482950576526,22.996596720395434,0.4321889949580254,1644,0,9.938876024042726,5.630500581409289,56.65128096767459,0.03594082383614891,0.020360937093513675,0.103515625,,
0.5292200000006706,1200,,,,-0.03125,-0.01953125,-0.9140625,0.032704053171962684,0.20236482950576526,22.9969795270988,0.4222046149691289,1646,0,9.70943088669169,5.638173035471418,58.069037220290895,0.035891915383339267,0.020842089703026596,0.103515625,,
0.5392449999991804,1200,,,,-0.0625,0.044921875,-1,0.032704053171962684,0.20236482950576526,22.997183940065984,0.4126747659693956,1647,0,9.490357500421874,5.640678417022142,59.435889709859694,0.03587597351678113,0.0213232040517725,0.103515625,,
0.5479550000000745,1200,,,,-0.01953125,0.05859375,-0.9921875,0.032704053171962684,0.20236482950576526,22.997501150886627,0.40325142627419913,1655,0,9.273775139837568,5.667208159020541,61.11004497699955,0.03570802833202086,0.02182119217409769,0.103515625,,
0.5549799999985844,1200,,,,-0.0625,-0.0078125,-0.953125,0.032704053171962684,0.20236482950576526,22.997781987940314,0.39531627184062573,1657,0,9.09139743607606,5.67501600566807,62.42182288884145,0.03565890022224574,0.022258935540838923,0.103515625,,
0.5631449999995529,1200,,,,0,-0.01953125,-0.9765625,0.021986405118707877,0.20236482950576526,22.998084787660236,0.3881762581410475,1658,0,8.927310497284498,3.817665544209858,42.76389339623744,0.05300747987541394,0.022668062185954036,0.1015625,,
0.5703199999984354,1200,,,,0.05859375,0.015625,-0.984375,0.021986405118707877,0.20236482950576526,22.998342981448527,0.38195193475836076,1658,0,8.784261598000631,3.8179073677274644,43.46304268302359,0.05300412241961203,0.023037204350998056,0.1015625,,
0.5783699999991805,1200,,,,-0.03125,0.099609375,-0.93359375,0.021986405118707877,0.20236482950576526,22.998621679697525,0.37363283651118445,1658,0,8.593040254033008,3.8180190771108933,44.43152789048051,0.05300257160026957,0.023549852383245674,0.1015625,,
0.5861850000005215,1200,,,,0,0.03515625,-1.01953125,0.021986405118707877,0.20236482950576526,22.998688916651663,0.36865609790247805,1658,0,8.478606912885772,3.818062773224592,45.03172292870315,0.05300196500825353,0.023867698029284925,0.1015625,,
0.594980000000447,1200,,,,-0.0625,0.02734375,-0.974609375,0.021986405118707877,0.20236482950576526,22.998822546008178,0.3634190744241277,1659,0,8.358210802515051,3.8191717696152923,45.69365214462016,0.05298657450176681,0.024211501036187327,0.1015625,,
0.6044049999993294,1200,,,,-0.09375,0.072265625,-0.974609375,0.021986405118707877,0.20236482950576526,22.999052594374625,0.3576631039929525,1659,0,8.225912539801195,3.8196347324008335,46.43417631684602,0.052980152209101086,0.02460089728970739,0.1015625,,
0.6162299999985844,1200,,,,0,0.01171875,-0.98828125,0.021986405118707877,0.20236482950576526,22.999419480077783,0.35015777531003983,1659,0,8.05342555856643,3.8198025202549526,47.43077951706933,0.052977825013911566,0.0251277953752872,0.1015625,,
0.6313849999979139,1200,,,,0,-0.029296875,-0.9296875,0.021986405118707877,0.37736066637717347,22.99957116053406,0.3412384276448467,1661,0,7.848337499326404,3.8248157126053237,48.734088116541805,0.0986611368316434,0.04808160536031498,0.1015625,,
0.6387749999985098,1200,,,,-0.0625,0.06640625,-0.98046875,0.021986405118707877,0.37736066637717347,22.999590752261103,0.336883587128196,1661,0,7.748184635102204,3.8253814986182824,49.371326043107686,0.09864654453770824,0.04870310713397137,0.1015625,,
0.6465099999979138,1200,,,,0,0.04296875,-0.99609375,0.021986405118707877,0.37736066637717347,22.999671869291028,0.33182967680632386,1663,0,7.63197368303834,3.8287672939270507,50.16745933540474,0.09855931097607296,0.04944470225517649,0.1015625,,
0.6537649999987334,1200,,,,-0.0625,0.08984375,-0.98046875,0.021986405118707877,0.37736066637717347,22.99977683545965,0.3294075324832067,1664,0,7.576299735033179,3.8301364297776326,50.5541829617286,0.09852407957151595,0.04980804344794325,0.1015625,,
0.6630150000005961,1200,,,,-0.03125,0.01171875,-0.9375,0.021986405118707877,0.37736066637717347,22.99971921755009,0.32674001336809133,1664,0,7.514928564604664,3.8307600896006426,50.975336048349604,0.09850803954066291,0.050214804190494025,0.099609375,,
0.6799599999990315,1200,,,,-0.0625,0.041015625,-0.9765625,0.021986405118707877,0.37736066637717347,22.999864812208326,0.3242340408937318,1664,0,7.457339108071857,3.831524554799543,51.37924532159579,0.09848838523153251,0.0506025890613874,0.099609375,,
0.6940999999977648,1200,,,,0.0625,0.0078125,-0.96875,0.021986405118707877,0.37736066637717347,23.000190922421204,0.3154668173939073,1664,0,7.255797029748455,3.8316991793761255,52.808797760829364,0.0984838967548113,0.05200816186423229,0.099609375,,
0.720910000000149,1200,,,,-0.0625,0.05078125,-0.96875,0.0183792874981783,0.37736066637717347,23.00045892857741,0.3062840611195164,1671,0,7.04467396825733,3.2170359475901305,45.666214818255696,0.11730073040055798,0.05356680352810178,0.099609375,,
0.736894999999553,1200,,,,-0.041015625,0.078125,-0.99609375,0.0183792874981783,0.37736066637717347,23.00065842930534,0.300309405926564,1670,0,6.907314068824504,3.214677233014422,46.540192048361575,0.11738679781027973,0.05463204114032609,0.099609375,,
0.7442649999987334,1200,,,,-0.0625,-0.001953125,-0.99609375,0.0183792874981783,0.37736066637717347,23.000630280247066,0.29833559334184506,1670,0,6.861906681893917,3.2142932219363685,46.842566810442385,0.11740082199154259,0.05499355847739688,0.099609375,,
0.7610250000003725,1200,,,,-0.03125,0.0703125,-0.970703125,0.0183792874981783,0.37736066637717347,23.000628236188412,0.2922771389543542,1670,0,6.722557815025883,3.213674761103683,47.80434545197451,0.11742341538244998,0.05613349513093337,0.099609375,,
0.7694699999988079,1200,,,,-0.09375,0.0546875,-1.00390625,0.0183792874981783,0.37736066637717347,23.000693262266225,0.28821573258250643,1670,0,6.62916165848958,3.21361564747627,48.47695399554452,0.11742557535575977,0.05692434214421513,0.09765625,,
0.7783349999990314,1200,,,,0,0.01953125,-0.9765625,0.0183792874981783,0.37736066637717347,23.00082027229923,0.28487974641375713,1668,0,6.552467846481009,3.210379244339552,48.994963722922805,0.11754395280324745,0.0575906170344406,0.09765625,,
0.7863799999989569,1200,,,,-0.03125,0.025390625,-0.970703125,0.0183792874981783,0.45304071864805184,23.000877803697048,0.2834385026249943,1667,0,6.519334363740359,3.2092914677739155,49.22728746087259,0.14116533920251806,0.06949186732433943,0.09765625,,
0.7948999999985099,1200,,,,-0.0625,0.07421875,-1.013671875,0.0183792874981783,0.45304071864805184,23.00116393195288,0.28131789547523206,1667,0,6.470639030817798,3.2088282251811555,49.59059236496468,0.14118571854137668,0.07001483415940045,0.099609375,,
0.801914999999106,1200,,,,-0.0625,0.0703125,-1.0390625,0.0183792874981783,0.45304071864805184,23.001171091966164,0.27909364717791096,1667,0,6.41948072941997,3.2086881130568283,49.98360846153281,0.1411918836251282,0.07057279829064714,0.09765625,,
0.808644999999553,1200,,,,-0.0625,0.0390625,-0.947265625,0.0183792874981783,0.45304071864805184,23.00120651399463,0.27627142852269154,1667,0,6.354576181366735,3.208624839269056,50.493136720550716,0.14119466791613358,0.07129361671302088,0.09765625,,
0.8163549999985844,1200,,,,0,0.00390625,-0.89453125,0.0183792874981783,0.45304071864805184,23.001330542749916,0.2740374633256459,1667,0,6.303226275049888,3.208596361493876,50.904032656966315,0.1411959210840477,0.07187441777892802,0.09765625,,
0.8245699999984354,1200,,,,-0.03125,0.017578125,-1,0.0183792874981783,0.45304071864805184,23.001460582757414,0.2726486039690065,1667,0,6.271316117136939,3.207981773141214,51.15324619620295,0.14122297153965446,0.07224013431727307,0.09765625,,
0.836035000000149,1200,,,,-0.0625,0.078125,-1.05078125,0.0183792874981783,0.45304071864805184,23.001454337340746,0.27174249583112053,1667,0,6.250472609374527,3.207736566305703,51.319904378025825,0.1412337669516956,0.07248103414909401,0.09765625,,
0.8438649999983608,1200,,,,-0.0625,0.068359375,-0.978515625,0.0183792874981783,0.45304071864805184,23.00127656250366,0.27385155397671856,1667,0,6.298935330089902,3.2076214665244325,50.92323223579835,0.14123883487378483,0.07192337988991321,0.09765625,,
0.8509299999978394,1200,,,,-0.03125,0.013671875,-0.927734375,0.0183792874981783,0.45304071864805184,23.00127907049335,0.2760765878649319,1668,0,6.350114642310876,3.2104026452218095,50.55660922766442,0.14111647936819804,0.07134370703001755,0.09765625,,
0.8581849999986589,1200,,,,0,0.001953125,-1.01171875,0.015648058980141304,0.45304071864805184,23.000874871062173,0.2778627574596695,1669,0,6.391086515658155,2.7343730136293427,42.78416521087818,0.16568358317972476,0.07088633795491621,0.095703125,,
0.8672649999987334,1200,,,,-0.125,0.1484375,-1.10546875,0.015648058980141304,0.45304071864805184,23.001127012651185,0.2753080477730381,1669,0,6.332395374432689,2.734858664214153,43.18837505403183,0.16565416142930028,0.07154334053069754,0.09765625,,
0.874894999999553,1200,,,,-0.03125,0.03125,-0.912109375,0.015648058980141304,0.45304071864805184,23.001210270403284,0.2729942028843648,1672,0,6.27919706314441,2.7395960036861164,43.629718515542486,0.1653677104355851,0.07214946657864316,0.09765625,,
0.8835149999987334,1200,,,,0,-0.03515625,-0.91796875,0.015648058980141304,0.45304071864805184,23.00127505661961,0.2716775439615035,1674,0,6.248929915365408,2.743190355757182,43.89856172033533,0.16515103215394705,0.07249892778187131,0.09765625,,
0.8906499999985099,1200,,,,-0.03125,0.013671875,-0.9609375,0.015648058980141304,0.45304071864805184,23.001349674721908,0.2688844018684778,1675,0,6.184704149455306,2.7448859403420722,44.38184711848856,0.16504901423758003,0.07325180116949519,0.095703125,,
0.8976099999994039,1200,,,,-0.03125,0.03515625,-1.033203125,0.015648058980141304,0.45304071864805184,23.00129205519914,0.2685801731705645,1675,0,6.177691003332114,2.745436612585542,44.44114493756182,0.16501590915311512,0.07333495935677123,0.095703125,,
0.9048499999996275,1200,,,,0,0.03125,-0.98046875,0.015648058980141304,0.45304071864805184,23.001322629476984,0.2675868756512812,1675,0,6.154852058268858,2.7454378653375704,44.60607402657481,0.165015833855831,0.07360708500530168,0.095703125,,
0.912289999999106,1200,,,,-0.03125,0.01953125,-0.923828125,0.015648058980141304,0.45304071864805184,23.001263509219076,0.2670349837708343,1675,0,6.142142027892999,2.745438425452899,44.698387191067525,0.16501580018984266,0.07375940129529421,0.095703125,,
0.9194699999988079,1200,,,,0,0.01171875,-0.98828125,0.015648058980141304,0.45304071864805184,23.001209763053737,0.2676426737586604,1675,0,6.156105280667506,2.7454386563093984,44.59700624242265,0.16501578631411107,0.07359210052348694,0.095703125,,
0.927644999999553,1200,,,,-0.0625,0.0078125,-0.95703125,0.015648058980141304,0.45304071864805184,23.00108451563034,0.270720172540037,1675,0,6.226857568679419,2.745178245383498,44.08609342843361,0.16503143991102212,0.07275591478546248,0.095703125,,
0.9374499999992549,1200,,,,-0.03125,0.033203125,-0.99609375,0.015648058980141304,0.48346397957362586,23.001019117949213,0.27312899477667,1675,0,6.282245230524437,2.7450651700213555,43.69560673441268,0.1761211299656921,0.07695719632601267,0.095703125,,
0.9443349999990315,1200,,,,0,0.078125,-0.96484375,0.015648058980141304,0.48346397957362586,23.001032752108017,0.27062592058259066,1675,0,6.224675662889551,2.745033810459779,44.09922635528145,0.1761231419924289,0.07766894305127497,0.09375,,
0.9525249999985099,1200,,,,0,-0.04296875,-0.916015625,0.015648058980141304,0.48346397957362586,23.00098201187492,0.2677882325577363,1679,0,6.159392320052271,2.7507652142270733,44.65968510029459,0.17575617761673362,0.07849215546794769,0.09375,,
0.9612099999990315,1200,,,,-0.0625,0.021484375,-0.951171875,0.015648058980141304,0.48346397957362586,23.00107425329394,0.26585541500411286,1680,0,6.114960141149876,2.7531454779836126,45.023114042177596,0.1756042255811749,0.07906249074629516,0.09375,,
0.9681849999986589,1200,,,,-0.0625,0.11328125,-1.03125,0.015648058980141304,0.48346397957362586,23.001027506420147,0.264590180288248,1681,0,6.0858460147386575,2.7539047768530023,45.25097694196691,0.17555580847864302,0.07944071841495436,0.09375,,
0.9782050000000745,1200,,,,-0.03125,0.087890625,-0.98828125,0.015648058980141304,0.48346397957362586,23.001172832538362,0.26270261320983707,1680,0,6.042468209998938,2.752343470287539,45.54998677085341,0.17565539504526959,0.08001100920541059,0.09375,,
0.988410000000149,1200,,,,0,-0.017578125,-0.94921875,0.015648058980141304,0.48346397957362586,23.00134337871788,0.2612724946102901,1679,0,6.0096183639455,2.750597950990499,45.769927213558475,0.17576686530996977,0.08044836631792651,0.09375,,
0.9983949999976903,1200,,,,-0.09375,0.04296875,-0.9609375,0.015648058980141304,0.48346397957362586,23.001516356374093,0.26066944331767317,1678,0,5.995792464078389,2.750003375362679,45.86555308307158,0.1758048676976133,0.0806338749164726,0.09375,,
1.0077999999988825,1200,,,,-0.0625,0.0859375,-0.990234375,0.015648058980141304,0.48346397957362586,23.001757478928962,0.25916292175177125,1675,0,5.961202673664886,2.745422011589896,46.05483426554996,0.17609823827909354,0.08110175178398979,0.09375,,
1.015910000000149,1200,,,,0,0.025390625,-0.970703125,0.014355780551984887,0.48346397957362586,23.001769652452822,0.25864620817401207,1674,0,5.949320501898986,2.516308771381747,42.29573395110513,0.19213221567723096,0.08126373077720508,0.09375,,
1.0236599999982863,1200,,,,-0.0625,-0.015625,-0.94921875,0.014355780551984887,0.48346397957362586,23.001877873634108,0.25769355539467215,1673,0,5.927435690010815,2.5153868576209417,42.43634160147847,0.19220263400393495,0.08156376633294923,0.09375,,
1.0327599999997765,1200,,,,-0.0625,0.0546875,-1.00390625,0.014355780551984887,0.48346397957362586,23.002068810353972,0.25582103185281824,1673,0,5.88441297781428,2.514489948598641,42.731364336237135,0.19227119195408468,0.08216010354752579,0.09375,,
1.041379999998957,1200,,,,-0.0625,0.044921875,-0.958984375,0.014355780551984887,0.48346397957362586,23.001955509067116,0.2572779516433558,1672,0,5.917895997164392,2.5141709089484325,42.48420232719734,0.19229559050774223,0.08169524773758809,0.09375,,
1.050179999999702,1200,,,,0,0.11328125,-0.99609375,0.014355780551984887,0.48346397957362586,23.00179284518185,0.2628132132823941,1672,0,6.045175088898224,2.514062219757674,41.587914043625815,0.1923039039265409,0.07997518226750659,0.09375,,
1.0585399999991059,1200,,,,-0.03125,0.021484375,-0.96484375,0.014355780551984887,0.48346397957362586,23.001695468715265,0.2649381305272251,1673,0,6.094026196437967,2.5145185603032005,41.2620241405094,0.19226900417681936,0.07933408291815622,0.09375,,
1.0677249999996274,1200,,,,-0.0625,0.017578125,-1,0.014355780551984887,0.48346397957362586,23.00194612027186,0.26152988331738575,1673,0,6.015696284907493,2.51468914850372,41.80212945279018,0.19225596128304548,0.08036708581624485,0.09375,,
1.0752099999990314,1200,,,,-0.03125,0.0546875,-0.96875,0.014355780551984887,0.48346397957362586,23.002039450869955,0.26080236218517605,1673,0,5.998986223863494,2.5147402769216685,41.91942076676606,0.19225205243280288,0.08059094679205034,0.09375,,
1.0817899999991059,1200,,,,-0.0625,0.1171875,-0.984375,0.014355780551984887,0.49722280671316516,23.00203788259822,0.2595928636649757,1679,0,5.971164884073926,2.5236179493289512,42.26341088084594,0.19702776596805407,0.08327065428043023,0.09375,,
1.0898699999991803,1200,,,,0.0625,0.03515625,-0.92578125,0.014355780551984887,0.49722280671316516,23.002122544044045,0.258142909632383,1681,0,5.937834841240162,2.5275410496978346,42.56671189544131,0.1967219510728056,0.08373806614825217,0.09375,,
1.0972799999993295,1200,,,,-0.0625,0.0078125,-0.96875,0.014355780551984887,0.49722280671316516,23.00221806208293,0.25766531231629347,1683,0,5.9268737009340855,2.5294172150056804,42.67708985610812,0.19657603489191422,0.0838929310463967,0.09375,,
1.104625,1200,,,,-0.09375,0.072265625,-1.005859375,0.014355780551984887,0.49722280671316516,23.002376811731324,0.2572910277866562,1679,0,5.9183051714263,2.523913300810719,42.645879651428324,0.1970047095331879,0.08401439133516926,0.09375,,
1.1131150000002235,1200,,,,-0.0625,0.0546875,-0.94921875,0.014355780551984887,0.49722280671316516,23.002589701951837,0.25670568901252955,1677,0,5.9048956385120634,2.5212232146483076,42.6971680617816,0.19721490894749047,0.08420518111619955,0.09375,,
1.121859999999404,1200,,,,-0.03125,0.0703125,-0.958984375,0.014355780551984887,0.49722280671316516,23.00252148941312,0.25420944719858946,1676,0,5.847458271997383,2.5201221729243604,43.0977367550078,0.1973010721683329,0.08503229669791608,0.09375,,
1.130754999998957,1200,,,,-0.0625,0.048828125,-0.98046875,0.014355780551984887,0.49722280671316516,23.002602905926757,0.2530146070644264,1676,0,5.819994535702092,2.519384473176226,43.288433652666676,0.197358843799775,0.08543355215593566,0.09375,,
1.140320000000298,1200,,,,-0.125,0.05078125,-1.03125,0.014355780551984887,0.49722280671316516,23.002672265202698,0.2511375663175822,1675,0,5.776835131483952,2.518494507015258,43.59644077930103,0.1974285849455509,0.08607183611719911,0.09375,,
1.148714999999851,1200,,,,-0.03125,0.046875,-1.00390625,0.014355780551984887,0.49722280671316516,23.002753468201977,0.25119030665886616,1675,0,5.778068697675952,2.51810931730901,43.58046691832932,0.19745878516685078,0.08605346054697437,0.09375,,
1.1567349999994039,1200,,,,0,0.0546875,-0.93359375,0.014355780551984887,0.49722280671316516,23.002813972770756,0.2513876035522547,1673,0,5.78262227957316,2.515753266007172,43.50540540913335,0.19764370911552964,0.08598569691635942,0.09375,,
1.1659249999988823,1200,,,,-0.0625,0.029296875,-0.97265625,0.011877634014536,0.49722280671316516,23.00310386519487,0.2505123965036938,1671,0,5.762562676293348,2.0786456675645852,36.0715498352138,0.2392051779059242,0.08628501495674727,0.09375,,
1.1746899999994784,1200,,,,-0.09375,0.041015625,-0.982421875,0.011877634014536,0.49722280671316516,23.003224836863605,0.2495341510494797,1670,0,5.740090181067066,2.077660618581673,36.195609355312286,0.23931858854435872,0.08662282142416322,0.09375,,
1.1827899999991058,1200,,,,0,0.05859375,-0.9609375,0.011877634014536,0.49722280671316516,23.00326314218982,0.24954881735512316,1670,0,5.740437112442164,2.077124349061462,36.184079859691856,0.23938037553593397,0.08661758625235262,0.09375,,
1.1908349999990315,1200,,,,0,0.05078125,-0.986328125,0.011877634014536,0.49722280671316516,23.00303662486242,0.2503114341274205,1670,0,5.757923086854891,2.0769132151183314,36.07052723333247,0.23940471036236152,0.08635454124913634,0.091796875,,
1.1988650000002234,1200,,,,-0.125,0.044921875,-1.00390625,0.011877634014536,0.49722280671316516,23.003083950869453,0.25055416771373673,1670,0,5.763518554159311,2.0768304407456832,36.03407226384158,0.23941425210169684,0.08627070461226127,0.091796875,,
1.2070150000005961,1200,,,,0,0.05078125,-0.9375,0.011877634014536,0.49722280671316516,23.003128862331327,0.2506252040160333,1670,0,5.765163864128892,2.0767978137938172,36.02322263059592,0.23941801335242016,0.08624608396769218,0.091796875,,
1.2154199999999256,1200,,,,-0.03125,0.025390625,-0.92578125,0.011877634014536,0.49722280671316516,23.003172055512408,0.2502103168133973,1670,0,5.755630967722847,2.0767847900802496,36.082660645317695,0.23941951476539455,0.08638893103146361,0.09375,,
1.2226849999986589,1200,,,,-0.0625,0.0703125,-1.025390625,0.011877634014536,0.49722280671316516,23.003019233706535,0.2519705557942455,1670,0,5.796083541262755,2.076779751363986,35.83074219995682,0.2394200956488523,0.08578599724683031,0.09375,,
1.2308300000000745,1200,,,,0,0.0703125,-1.05078125,0.011877634014536,0.5674754878086472,23.00306764723845,0.25133005913971357,1670,0,5.781362352175272,2.0767122372885884,35.92081088823663,0.27325667832995415,0.09815601466237991,0.09375,,
1.2399349999986589,1200,,,,-0.03125,0.015625,-0.923828125,0.011877634014536,0.5674754878086472,23.002899306190788,0.25154548453468456,1669,0,5.786275451678321,2.0765459347334723,35.887436608832125,0.2732785624034286,0.0980726708480582,0.09375,,
1.247894999999553,1200,,,,-0.0625,0.06640625,-0.951171875,0.011877634014536,0.5674754878086472,23.00288780175917,0.2514600933526192,1669,0,5.784308314010186,2.0764890875510456,35.89865848819947,0.2732860438375394,0.09810602357314938,0.091796875,,
1.2555899999979883,1200,,,,0,-0.015625,-1.00390625,0.011877634014536,0.5674754878086472,23.002877112796977,0.25116937173053955,1669,0,5.777618192416024,2.0764672019434705,35.93984809638581,0.2732889242254914,0.09821962423088854,0.091796875,,
1.2635599999986589,1200,,,,-0.0625,0.080078125,-1.0390625,0.011877634014536,0.5674754878086472,23.003029081049952,0.25136829471639016,1670,0,5.782232193415058,2.076653728937998,35.914395331666896,0.2732643771568285,0.09814124871272062,0.091796875,,
1.2706449999976903,1200,,,,-0.125,0.11328125,-0.9765625,0.011877634014536,0.5674754878086472,23.00312807287871,0.2525135523987126,1670,0,5.808601585965155,2.0767226722388927,35.752541149606586,0.27325530529161024,0.09769571546786604,0.09375,,
1.2786049999985845,1200,,,,0,-0.03515625,-0.896484375,0.011877634014536,0.5674754878086472,23.003171279061625,0.2520052660382695,1670,0,5.796920297903805,2.0767553584036786,35.82514941864293,0.27325100451159723,0.09789258065422242,0.09375,,
1.2869399999994784,1200,,,,-0.0625,0.06640625,-0.98046875,0.011877634014536,0.5674754878086472,23.003211895973948,0.25168740311338234,1670,0,5.789618665364547,2.076637785609136,35.86829989395129,0.2732664751364865,0.0980160388115848,0.09375,,
1.2973249999992549,1200,,,,-0.0625,0.068359375,-1.037109375,0.011877634014536,0.5674754878086472,23.00285907940469,0.2524991040958384,1669,0,5.808201309192507,2.0765259356080126,35.751617842886105,0.2732811943629728,0.09770244824512485,0.09375,,
1.3061299999989568,1200,,,,0,0.0546875,-0.97265625,0.011877634014536,0.5674754878086472,23.00272893111772,0.25098197466227135,1669,0,5.773270329752884,2.07647385451987,35.967029706172625,0.2732880486664548,0.09829359364728331,0.091796875,,
1.3149699999988078,1200,,,,-0.03125,0.009765625,-0.953125,0.011757637578834473,0.5674754878086472,23.002691907582644,0.25086805281918917,1668,0,5.770640528454978,2.053703852827002,35.58883702251433,0.27631807138477904,0.09833838808888383,0.091796875,,
1.3240800000000745,1200,,,,-0.09375,0.064453125,-1.03125,0.011757637578834473,0.5674754878086472,23.00276699330457,0.25056030393504275,1667,0,5.763580289189362,2.052979798750979,35.61986986806992,0.27641552447515366,0.09845885011319269,0.091796875,,
1.3331749999988824,1200,,,,-0.0625,0.1171875,-0.990234375,0.011757637578834473,0.5674754878086472,23.002617307404773,0.2500512691135109,1667,0,5.751833650648974,2.052735795503664,35.68837209455902,0.27644838125376486,0.09865992695122876,0.091796875,,
1.3413699999991804,1200,,,,-0.03125,0.029296875,-0.962890625,0.011757637578834473,0.5674754878086472,23.002404620792333,0.2501563825731345,1667,0,5.754198330420964,2.052444528452039,35.66864418977868,0.27648761266967803,0.09861938279196089,0.091796875,,
1.3480099999997766,1200,,,,0,-0.03125,-0.95703125,0.011757637578834473,0.5674754878086472,23.002473039325473,0.2513503176255573,1667,0,5.781678904607777,2.0523506629019015,35.49748605489413,0.27650025800477523,0.0981506405269914,0.091796875,,
1.3557399999983608,1200,,,,-0.09375,0.037109375,-0.953125,0.011757637578834473,0.5674754878086472,23.002540225528726,0.2512358325248458,1667,0,5.779062343746964,2.0523088414332884,35.512834424669585,0.27650589246223517,0.0981950797645685,0.091796875,,
1.36402499999851,1200,,,,0,0.1015625,-1.0546875,0.011757637578834473,0.5674754878086472,23.002678116380103,0.2523444438812169,1667,0,5.804598017056575,2.0520958066361796,35.352935734846405,0.2765345974459448,0.09776309851968105,0.091796875,,
1.3720499999988824,1200,,,,0,0.04296875,-0.962890625,0.011757637578834473,0.5674754878086472,23.002743893692013,0.2507106148113081,1667,0,5.767032063934587,2.052011790785226,35.581764901532914,0.27654591964673664,0.09839991897348395,0.091796875,,
1.3800250000003724,1200,,,,-0.0625,0,-0.9921875,0.011757637578834473,0.5674754878086472,23.002674341984406,0.251631541883785,1667,0,5.788198412124116,2.051979093677449,35.451084216106324,0.2765503262470611,0.09804008905776242,0.091796875,,
1.388059999998659,1200,,,,-0.03125,0.021484375,-0.962890625,0.011757637578834473,0.5978383155623592,23.00244682734226,0.25640688384714433,1668,0,5.89798571185846,2.0542808435453694,34.830210582149135,0.2910207323603248,0.10136313391881376,0.091796875,,
1.395989999998361,1200,,,,-0.03125,0.03515625,-0.9765625,0.011757637578834473,0.5978383155623592,23.002328235758057,0.2606117191228804,1669,0,5.99467630534968,2.055192491454405,34.28362745158301,0.29089164058753686,0.09972820634682898,0.091796875,,
1.403894999999553,1200,,,,-0.0625,0.08203125,-0.94140625,0.011757637578834473,0.5978383155623592,23.002345092675444,0.25901004951745654,1669,0,5.9578385414714905,2.0555586532889634,34.5017515829033,0.2908398233277351,0.10034483334869003,0.091796875,,
1.4129949999991804,1200,,,,-0.03125,0.02734375,-0.994140625,0.011757637578834473,0.5978383155623592,23.002510046509432,0.2561105981702039,1672,0,5.891186607427655,2.058917111315164,34.9491070053572,0.2903654121269997,0.10148011859081156,0.091796875,,
1.4240499999988825,1200,,,,-0.0625,0.001953125,-0.98046875,0.011757637578834473,0.5978383155623592,23.002704813131285,0.2532824846900738,1676,0,5.826182229662211,2.063773366136026,35.422396430186474,0.28968215472306613,0.10261236123351064,0.091796875,,
1.432519999999553,1200,,,,-0.0625,0.05859375,-0.96875,0.011757637578834473,0.5978383155623592,23.00272054791879,0.25252574734200484,1677,0,5.808779197262484,2.0650336925305868,35.550218426339555,0.2895053566073979,0.10291978662988323,0.091796875,,
1.439449999999255,1200,,,,-0.03125,0.083984375,-0.994140625,0.011757637578834473,0.5978383155623592,23.002607510062226,0.25033843260570293,1678,0,5.758436709913148,2.0654428170237735,35.86811700939795,0.28944801116489977,0.10381955132600147,0.091796875,,
1.4491500000003725,1200,,,,-0.0625,0.03125,-0.9453125,0.011757637578834473,0.5978383155623592,23.002669078743544,0.24926183791803355,1678,0,5.733687571587936,2.0656325736008787,36.02624921240354,0.28942142140999827,0.10426768255124665,0.091796875,,
1.4579599999990314,1200,,,,-0.0625,-0.009765625,-0.951171875,0.012891100493930977,0.5978383155623592,23.00284781314962,0.2501731169577172,1678,0,5.7546941363196495,2.264873468451617,39.35697388601945,0.2639610220570388,0.1038870705202588,0.091796875,,
1.4660499999988823,1200,,,,-0.03125,0.033203125,-0.9296875,0.012891100493930977,0.5978383155623592,23.003001583612903,0.24899291346605415,1675,0,5.727584382768034,2.260845365207121,39.47292984471923,0.26443131616283266,0.10437878791642266,0.09375,,
1.474855000000447,1200,,,,-0.0625,0.115234375,-1.017578125,0.012891100493930977,0.5978383155623592,23.002910481741974,0.2473769975882347,1674,0,5.690390930764263,2.259153617394748,39.7012023406154,0.26462933328623545,0.10506102706058984,0.09375,,
1.481644999999553,1200,,,,0,0.0625,-1.05078125,0.012891100493930977,0.5978383155623592,23.002900241904708,0.2472042514248937,1673,0,5.686414734901559,2.2586205065427603,39.71958803286022,0.2646917947616894,0.10513449043612692,0.09375,,
1.4898699999991805,1200,,,,-0.03125,0.013671875,-0.982421875,0.012891100493930977,0.5978383155623592,23.002955078268357,0.24647027682632625,1673,0,5.669544705964349,2.2579346228174537,39.825678073269465,0.2647721991243377,0.10544732365077474,0.09375,,
1.49775,1200,,,,-0.0625,0.0234375,-0.97265625,0.012891100493930977,0.5978383155623592,23.002811039937125,0.24621103760568144,1672,0,5.6635459739903435,2.257457497823424,39.8594362646781,0.26482816006005777,0.10555901167005845,0.091796875,,
1.505739999998361,1200,,,,-0.03125,0.078125,-1.021484375,0.012891100493930977,0.5978383155623592,23.002869464822442,0.24777413190466677,1672,0,5.699516012962747,2.2572678191972098,39.604552633300294,0.26485041361861017,0.104892821461096,0.091796875,,
1.51375,1200,,,,-0.0625,0.0625,-1.029296875,0.012891100493930977,0.5978383155623592,23.002990374594457,0.24819411364798236,1670,0,5.709206807275541,2.2544994890862746,39.48883908379791,0.2651756269879027,0.1047147766307051,0.09375,,
1.5207099999990314,1200,,,,-0.125,0.10546875,-0.96875,0.012891100493930977,0.5978383155623592,23.003033910992695,0.24793764562386575,1668,0,5.703318070097473,2.2522310465915534,39.489837650823176,0.2654427113359913,0.10482289576252615,0.09375,,
1.5320250000003726,1200,,,,0,-0.044921875,-0.888671875,0.012891100493930977,0.5978383155623592,23.003097347621352,0.2473502937393904,1667,0,5.689822885849934,2.2510096384547467,39.56203353979261,0.26558674176657815,0.10507151585493602,0.09375,,
1.540789999999106,1200,,,,-0.03125,0.015625,-1,0.012891100493930977,0.5869590088314304,23.003091997468573,0.246605824976491,1668,0,5.672696479045856,2.2512670575096454,39.68601291864477,0.2607238474322656,0.10347089977395664,0.09375,,
1.5496650000009686,1200,,,,-0.03125,0.046875,-0.990234375,0.012891100493930977,0.5869590088314304,23.003333058253084,0.24735033900185935,1669,0,5.689882230131579,2.252484442090169,39.587540672842366,0.2605829358300775,0.10315837570821865,0.09375,,
1.5584349999986589,1200,,,,-0.03125,0.03125,-0.9296875,0.012891100493930977,0.5869590088314304,23.00300072900749,0.24712701250591243,1669,0,5.684662848830946,2.252994443185516,39.63285955734113,0.2605239487415367,0.10325309071797263,0.091796875,,
1.5674550000000744,1200,,,,0,0.0390625,-1,0.012891100493930977,0.5869590088314304,23.00305556494573,0.24534317768588984,1668,0,5.643642748788877,2.25182773643342,39.90025302215774,0.2606589302257602,0.10400357268492792,0.091796875,,
1.5762299999985845,1200,,,,-0.09375,0.0625,-1.01953125,0.012891100493930977,0.5869590088314304,23.003108203964594,0.24703852488798758,1667,0,5.682653918546179,2.2507273751297947,39.60697602548369,0.2607863641404289,0.1032895927228303,0.091796875,,
1.5842849999982864,1200,,,,-0.0625,0.107421875,-0.9765625,0.012891100493930977,0.5869590088314304,23.003151966177096,0.24600607941115002,1667,0,5.658915229298114,2.2503607495678906,39.766645344270465,0.2608288510827151,0.10372288416559865,0.091796875,,
1.5919899999983609,1200,,,,-0.03125,0.056640625,-0.982421875,0.012891100493930977,0.5869590088314304,23.00319419340127,0.24533381527291367,1667,0,5.643461394930868,2.250321674394164,39.87484837613088,0.2608333801830588,0.10400691486233168,0.091796875,,
1.602929999999702,1200,,,,0,-0.02734375,-0.953125,0.012891100493930977,0.5869590088314304,23.00323378867565,0.2449166277524029,1667,0,5.6338744469225706,2.250412379257802,39.944311866712965,0.26082286706270813,0.10418389943923032,0.091796875,,
1.61025,1200,,,,-0.09375,0.06640625,-1.005859375,0.01212326282206503,0.5869590088314304,23.00328366055049,0.24579715135233757,1667,0,5.6541415955130825,2.1164086599930605,37.43112237713615,0.27733727418850906,0.10381045449891445,0.09375,,
1.6185499999988824,1200,,,,-0.03125,0.095703125,-0.95703125,0.01212326282206503,0.5869590088314304,23.00322405621855,0.24623765503615883,1666,0,5.664259949874613,2.115644068394732,37.35075874195296,0.2774375035952016,0.1036250126275408,0.091796875,,
1.6264749999996275,1200,,,,-0.03125,0.0234375,-0.998046875,0.01212326282206503,0.5869590088314304,23.00319552841681,0.24608797185934103,1666,0,5.660809733871956,2.1153124698852337,37.367665922916906,0.27748099497719875,0.10368817120266545,0.091796875,,
1.6360800000000746,1200,,,,-0.0625,0.05078125,-0.9921875,0.01212326282206503,0.5869590088314304,23.00310112670671,0.2453974295802707,1666,0,5.644901888868855,2.1151874344447434,37.4707563760438,0.2774973977592263,0.10398037386422092,0.091796875,,
1.6436349999997766,1200,,,,-0.0625,0.103515625,-0.966796875,0.01212326282206503,0.5869590088314304,23.00314981658355,0.245402543784458,1666,0,5.645031480044592,2.1145802472606032,37.459140037318264,0.27757707922970726,0.1039779868201539,0.091796875,,
1.6523199999984355,1200,,,,-0.0625,0.068359375,-1.0078125,0.01212326282206503,0.5869590088314304,23.003092806286087,0.244759871235347,1665,0,5.63023403328132,2.114101434375125,37.549086270273904,0.27763994635617883,0.1042512629780238,0.091796875,,
1.6603149999994784,1200,,,,-0.03125,0.029296875,-1.01171875,0.01212326282206503,0.5869590088314304,23.003006290648205,0.24543683046248135,1665,0,5.645784955085215,2.11391538899201,37.44236462793336,0.277664381407107,0.10396411012834461,0.091796875,,
1.6681199999991805,1200,,,,-0.0625,-0.0234375,-0.90625,0.01212326282206503,0.5869590088314304,23.00276171836306,0.24416626785443282,1666,0,5.616498479117529,2.114438649644918,37.64691929511822,0.2775956677343179,0.10450621699868316,0.091796875,,
1.6760649999994786,1200,,,,-0.0625,0.080078125,-0.943359375,0.01212326282206503,0.5869590088314304,23.002757115741005,0.2442316127300194,1666,0,5.618000467614355,2.1152455329504694,37.651216747738964,0.2774897758619565,0.10447827696260027,0.091796875,,
1.6840449999999254,1200,,,,0,0.0390625,-1.0546875,0.01212326282206503,0.5238194778495807,23.002719937648695,0.2433306589126432,1666,0,5.597266999211052,2.1155625256223565,37.79634821638042,0.2476029290107998,0.09358486524287912,0.091796875,,
1.692179999999702,1200,,,,-0.09375,0.09765625,-1.03125,0.01212326282206503,0.5238194778495807,23.002781684667415,0.2435914575166995,1666,0,5.603281117506576,2.1147988065800396,37.74215075471907,0.24769234606136303,0.09348441865838011,0.091796875,,
1.7013499999996275,1200,,,,-0.03125,0.013671875,-0.958984375,0.01212326282206503,0.5238194778495807,23.002849278316212,0.24357655460226854,1665,0,5.602954773247542,2.113518721261206,37.721502435690454,0.24784236476363006,0.09348986366098552,0.091796875,,
1.7102400000002236,1200,,,,-0.03125,0.00390625,-0.943359375,0.01212326282206503,0.5238194778495807,23.002839477242162,0.24296813115350577,1664,0,5.588956919009614,2.113064609054764,37.80785287264673,0.247895627802834,0.0937240142374194,0.091796875,,
1.7180299999993294,1200,,,,-0.0625,0.11328125,-1.05859375,0.01212326282206503,0.5238194778495807,23.002700645039006,0.24160605972924223,1665,0,5.557591865979173,2.113506617396358,38.029180054300134,0.2478437841348598,0.09425295892203678,0.091796875,,
1.725089999999851,1200,,,,-0.0625,0.099609375,-0.98046875,0.01212326282206503,0.5238194778495807,23.00258397147542,0.24247711858458534,1666,0,5.577600281403328,2.114782512737493,37.915634072748794,0.24769425446568474,0.09391484714243227,0.091796875,,
1.732734999999404,1200,,,,0,0.11328125,-1,0.01212326282206503,0.5238194778495807,23.00278341476421,0.2416700771626036,1666,0,5.559084442800725,2.115377600296178,38.05262578868884,0.24762457434371987,0.09422765263584931,0.091796875,,
1.7412050000000745,1200,,,,-0.03125,-0.013671875,-0.95703125,0.01212326282206503,0.5238194778495807,23.002744963914694,0.24089637439928938,1666,0,5.541277863038562,2.1156142165973386,38.17917579461068,0.2475968793082082,0.09453044781305084,0.09375,,
1.7495099999997765,1200,,,,-0.09375,0.080078125,-0.986328125,0.01212326282206503,0.5238194778495807,23.00281320728695,0.24043954176983487,1665,0,5.53078586697718,2.114035943010425,38.22306619449434,0.24778172744955906,0.09470977370090652,0.09375,,
1.7606500000003726,1200,,,,0,0.00390625,-0.9453125,0.011815529277794029,0.5238194778495807,23.002772805399943,0.2403669176912777,1665,0,5.529105597586729,2.0598394659292807,37.25447867785944,0.2543011173995851,0.09473855555918673,0.09375,,
1.7770099999997764,1200,,,,-0.0625,0.0234375,-0.953125,0.011815529277794029,0.5238194778495807,23.00246125248852,0.24108793059554776,1664,0,5.545615781966728,2.0593563163455038,37.134853861353555,0.25436077947848346,0.09445650373993462,0.091796875,,
1.7844199999999255,1200,,,,-0.09375,0.01171875,-0.96484375,0.011815529277794029,0.5238194778495807,23.00260063740559,0.24151234861214796,1664,0,5.555412104127115,2.0592494382041764,37.06744701575532,0.2543739811852961,0.09428994069772705,0.09375,,
1.7922999999988825,1200,,,,0,0.05859375,-0.9765625,0.011815529277794029,0.5238194778495807,23.002662761870432,0.24168883008282419,1664,0,5.5594866517062105,2.0592090036163264,37.03955297715039,0.2543789760678315,0.09422083560337718,0.091796875,,
1.8001399999987333,1200,,,,0,0.041015625,-0.96484375,0.011815529277794029,0.5238194778495807,23.002532742628617,0.24198071748321917,1664,0,5.566169376992514,2.0589974187156335,36.99128214147412,0.2544051163387714,0.09410771436722042,0.091796875,,
1.807820000000298,1200,,,,-0.0625,0.1015625,-1.05078125,0.011815529277794029,0.5238194778495807,23.00234337475483,0.24279052369183188,1664,0,5.584750994096065,2.058913565755942,36.86670306218717,0.25441547744490056,0.09379459861385726,0.091796875,,
1.815844999998808,1200,,,,-0.09375,0.044921875,-0.94140625,0.011815529277794029,0.5238194778495807,23.002521530312077,0.242446619378782,1664,0,5.57688358221181,2.058880588429097,36.91812027412877,0.2544195524468222,0.09392691637321793,0.091796875,,
1.8232100000008942,1200,,,,-0.03125,0.013671875,-0.962890625,0.011815529277794029,0.5238194778495807,23.002585518390397,0.24398666967968383,1665,0,5.612324234654197,2.0598327627799553,36.701955850326456,0.25430194495141084,0.0933337875625883,0.091796875,,
1.8321349999979137,1200,,,,0,0.03125,-0.95703125,0.011815529277794029,0.4961851279589338,23.002442819807374,0.24460886715978628,1666,0,5.626601480060842,2.0608533206114585,36.62696439253014,0.24076683332888285,0.08818558231239232,0.091796875,,
1.8408899999987334,1200,,,,-0.0625,0.044921875,-0.99609375,0.011815529277794029,0.4961851279589338,23.002388661575548,0.24475825451304714,1666,0,5.630024498437938,2.0611959863480664,36.610781834429844,0.2407268067885442,0.08813196605034337,0.091796875,,
1.8492599999979138,1200,,,,-0.03125,0.0234375,-0.93359375,0.011815529277794029,0.4961851279589338,23.002330879716283,0.24360826185266218,1665,0,5.603557844167502,2.060381930106555,36.76917393207811,0.24082191787290283,0.08854822984925394,0.091796875,,
1.8588550000004471,1200,,,,-0.0625,0.0234375,-0.953125,0.011815529277794029,0.4961851279589338,23.002422767489463,0.24406941106668031,1665,0,5.614187777967952,2.0596100426448185,36.68580610587079,0.24091217156902422,0.088380572147255,0.091796875,,
1.8666699999999254,1200,,,,-0.03125,0.05078125,-1.009765625,0.011815529277794029,0.4961851279589338,23.00236395438208,0.24567101880434353,1664,0,5.651014187581354,2.0593356502278324,36.441877189999275,0.2409442714712577,0.08780461550589419,0.091796875,,
1.874004999998957,1200,,,,-0.03125,0.044921875,-0.962890625,0.011815529277794029,0.4961851279589338,23.002435886076032,0.2460923921421597,1664,0,5.660724472301109,2.0593678207188475,36.37993389001153,0.24094050755135832,0.08765399736144239,0.08984375,,
1.8831349999997764,1200,,,,0,0.00390625,-0.90234375,0.011815529277794029,0.4961851279589338,23.002576414794554,0.24637871644367862,1664,0,5.667345251974717,2.0594465184838353,36.33882226896705,0.2409313004759285,0.08755159707025864,0.08984375,,
1.8905449999999255,1200,,,,0,-0.0625,-0.958984375,0.011815529277794029,0.4961851279589338,23.002654475207752,0.2484668765594524,1664,0,5.71539771003118,2.059479862162108,36.03388542056285,0.24092739971636468,0.08681550316053628,0.08984375,,
1.899175000000745,1200,,,,-0.03125,0.048828125,-0.994140625,0.011815529277794029,0.4961851279589338,23.00262171376964,0.2463525751147512,1665,0,5.666755093577642,2.060277445189092,36.3572699219715,0.24083413091647665,0.08756071504153763,0.08984375,,
1.9072849999982864,1200,,,,-0.03125,0.068359375,-0.947265625,0.011815529277794029,0.4961851279589338,23.002688934940842,0.24646916615789446,1666,0,5.669453561184294,2.061353388907243,36.358943003259135,0.24070842516817054,0.0875190391109378,0.08984375,,
1.9171749999988825,1200,,,,0,0.0234375,-1.02734375,0.010937144014606949,0.4961851279589338,23.002753195078935,0.24721856338751366,1666,0,5.686707598844954,1.9085055902381924,33.560818049196605,0.25998620622169993,0.08725349762307377,0.08984375,,
1.9255149999987333,1200,,,,-0.09375,0.01953125,-0.970703125,0.010937144014606949,0.4961851279589338,23.00282971310212,0.2475116458216068,1667,0,5.693468240844065,1.9088138826059682,33.5263814929612,0.25994421587165295,0.08714988948201698,0.08984375,,
1.9363149999994784,1200,,,,-0.09375,0.078125,-0.93359375,0.010937144014606949,0.4961851279589338,23.00288806102287,0.24676280587851343,1667,0,5.676257201247361,1.9091462867361537,33.63389323367196,0.25989895662066004,0.08741413758522021,0.08984375,,
1.9440400000009685,1200,,,,0,0.044921875,-0.96484375,0.010937144014606949,0.4961851279589338,23.002760402242274,0.24678696150973592,1667,0,5.676781346005842,1.9092954326751974,33.63341506923759,0.25987865443312097,0.08740606652184119,0.08984375,,
1.95175,1200,,,,-0.09375,0.060546875,-1.013671875,0.010937144014606949,0.4961851279589338,23.00269271809291,0.246313244066749,1667,0,5.665867865664049,1.9092445969143244,33.69730184645874,0.2598855739913348,0.08757442632326197,0.08984375,,
1.960320000000298,1200,,,,0.0625,-0.05859375,-0.96875,0.010937144014606949,0.4961851279589338,23.002854151967878,0.24563770541555655,1667,0,5.650368311898097,1.9091339827188245,33.787779439062795,0.25990063162162647,0.08781465217304624,0.08984375,,
1.9711749999988823,1200,,,,-0.0625,0.044921875,-0.931640625,0.010937144014606949,0.4961851279589338,23.002843974070444,0.24598661056932566,1667,0,5.658391622636626,1.9090875155747649,33.739048883385564,0.2599069575967283,0.08769013547488036,0.08984375,,
1.9789900000002236,1200,,,,-0.03125,0.064453125,-0.95703125,0.010937144014606949,0.510090003500754,23.002793239484767,0.24595687654135903,1667,0,5.657695176910363,1.9091695219451585,33.74465152765168,0.2671789998936545,0.09015862246917858,0.08984375,,
1.9860699999984355,1200,,,,-0.0625,0.0703125,-1.00390625,0.010937144014606949,0.510090003500754,23.002672646679994,0.2453738624861506,1667,0,5.644254634820395,1.9092761627254693,33.82689630880242,0.2671640768680663,0.09037331525652997,0.08984375,,
1.9945549999997019,1200,,,,0,0,-0.99609375,0.010937144014606949,0.510090003500754,23.002739012992922,0.2453797727457698,1667,0,5.6444068715384565,1.9093264757168482,33.82687533289811,0.26715703678138275,0.0903708777751031,0.08984375,,
2.015269999999553,1200,,,,-0.0625,0.10546875,-0.998046875,0.010937144014606949,0.510090003500754,23.00257867514606,0.24593370932135092,1667,0,5.657109497534877,1.9091180566912331,33.74723535973882,0.26718620240008145,0.09016795657270363,0.08984375,,
2.02327499999851,1200,,,,-0.03125,0.013671875,-0.9609375,0.010937144014606949,0.510090003500754,23.00264858776771,0.24399160173844223,1667,0,5.612453073155959,1.9090837431268126,34.015139516405945,0.2671910047619481,0.09088539304506352,0.08984375,,
2.031969999998808,1200,,,,-0.03125,0.015625,-0.9375,0.010937144014606949,0.510090003500754,23.002715846578297,0.24471244398166117,1667,0,5.629050813031862,1.9090701533726007,33.914601533759416,0.26719290676647944,0.09061740965632081,0.08984375,,
2.040539999999106,1200,,,,-0.0625,0.01171875,-0.95703125,0.010937144014606949,0.510090003500754,23.002567962660905,0.2447549340502672,1667,0,5.629992004687859,1.9090645867568505,33.90883299953627,0.2671936858706824,0.09060226072719524,0.087890625,,
2.0489049999993294,1200,,,,-0.03125,0.0859375,-1.0078125,0.010937144014606949,0.510090003500754,23.00242691872839,0.2456304340691786,1667,0,5.6500961086918124,1.909062569542142,33.78814329556872,0.2671939682014146,0.0902798808530103,0.087890625,,
2.057324999999255,1200,,,,0,0.0546875,-0.97265625,0.010937144014606949,0.510090003500754,23.002320684578986,0.24562438788174104,1667,0,5.649930938009224,1.9090619292592106,33.78911972916745,0.2671940578159706,0.09028252010465923,0.087890625,,
2.068234999999404,1200,,,,-0.0625,0.0078125,-0.96875,0.011609340637966755,0.510090003500754,23.002193678339793,0.24668605896806792,1667,0,5.674320506129849,2.0263925013830337,35.71163277072497,0.25172319930744524,0.08989446453539493,0.08984375,,
2.076434999998659,1200,,,,-0.0625,0.064453125,-1.015625,0.011609340637966755,0.510090003500754,23.002114003158738,0.2479139313367091,1667,0,5.7025445115782505,2.026392371348685,35.53488038952379,0.25172321546061616,0.0894495435265932,0.08984375,,
2.0858549999985843,1200,,,,-0.0625,0.0859375,-0.970703125,0.011609340637966755,0.510090003500754,23.002216804185746,0.24707337515116976,1668,0,5.683235341769126,2.028206492091512,35.687533070910185,0.25149806269219793,0.08975345429597656,0.08984375,,
2.093300000000745,1200,,,,0,0.046875,-0.96875,0.011609340637966755,0.510090003500754,23.002501184596593,0.24723579045799296,1669,0,5.687041562884658,2.0288291022735234,35.67459600637125,0.25142088258155537,0.08969338413662292,0.087890625,,
2.102074999999255,1200,,,,-0.03125,-0.009765625,-0.9609375,0.011609340637966755,0.510090003500754,23.002675726040195,0.24649936376610923,1669,0,5.670144931387033,2.0290761042510352,35.785259967855566,0.25139027680237575,0.08996066408764186,0.087890625,,
2.1103300000000744,1200,,,,-0.09375,0.06640625,-0.953125,0.011609340637966755,0.510090003500754,23.002531219013317,0.24550664806666486,1668,0,5.647274336628774,2.0277696246766106,35.907050088293005,0.2515522460210948,0.09032499097702058,0.087890625,,
2.1205499999988824,1200,,,,0.0625,0.01171875,-0.94921875,0.011609340637966755,0.510090003500754,23.00246497978849,0.2461064444068294,1668,0,5.661054868768356,2.027288940168481,35.8111515815346,0.251611890833066,0.09010511562339465,0.087890625,,
2.1297349999994037,1200,,,,-0.041015625,0.060546875,-0.96484375,0.011609340637966755,0.5589140770075552,23.002558322513966,0.24606908674965303,1667,0,5.6602185193266426,2.0270040868638635,35.81141045955594,0.27573406518005344,0.09874425785844845,0.087890625,,
2.137304999999702,1200,,,,-0.0625,0.01953125,-1.0625,0.011609340637966755,0.5589140770075552,23.002725390115653,0.24762100825726044,1667,0,5.695958053765323,2.0266357013964584,35.580242731189834,0.27578418589114667,0.09812468275430578,0.087890625,,
2.1456699999999254,1200,,,,-0.0625,0.03125,-0.92578125,0.011609340637966755,0.5589140770075552,23.002656793446036,0.24762304835468166,1667,0,5.695987995449634,2.026487807410339,35.57745924024495,0.27580431274432143,0.09812416694944864,0.08984375,,
2.152664999999106,1200,,,,0,0.03515625,-0.982421875,0.011609340637966755,0.5589140770075552,23.002528651962464,0.24752020090703222,1667,0,5.693590513303514,2.0264304768361643,35.59143342151588,0.27581211563703856,0.09816548550543096,0.08984375,,
2.160449999999255,1200,,,,-0.0625,0.07421875,-1.05859375,0.011609340637966755,0.5589140770075552,23.002664935305027,0.2473163184111841,1667,0,5.688934405445678,2.0265974178242496,35.62349771310966,0.27578939561050275,0.0982458290383064,0.08984375,,
2.1674399999994787,1200,,,,-0.0625,0.015625,-0.951171875,0.011609340637966755,0.5589140770075552,23.002722643287864,0.24681596018453048,1667,0,5.677439076061535,2.02665958364701,35.69672094223356,0.27578093603750636,0.09844475114918828,0.08984375,,
2.1754949999991804,1200,,,,0,0.04296875,-1,0.011609340637966755,0.5589140770075552,23.002778743358917,0.24747136838024633,1667,0,5.692529132167074,2.0266869204272187,35.60257441591141,0.2757772161917037,0.09818378861678022,0.08984375,,
2.1833100000005214,1200,,,,-0.03125,0.02734375,-0.96875,0.011609340637966755,0.5589140770075552,23.002708160622586,0.24726837036626984,1668,0,5.687842160888043,2.0274629031585056,35.64555495404179,0.2756716663653105,0.09826469532696948,0.087890625,,
2.191164999999106,1200,,,,0,0.0703125,-0.98828125,0.011609340637966755,0.5589140770075552,23.00277163407652,0.24718120953468078,1668,0,5.68585291516108,2.0281524758391494,35.67015373245356,0.27557793788472645,0.0982990740962073,0.087890625,,
2.1990699999984353,1200,,,,-0.0625,0.064453125,-1.037109375,0.011609340637966755,0.5589140770075552,23.002962843837757,0.24645979606903232,1668,0,5.669305531475781,2.028424282848162,35.77906097292558,0.27554101069169307,0.09858598622079624,0.087890625,,
2.207349999997765,1200,,,,0,0.01171875,-0.939453125,0.011609340637966755,0.5589140770075552,23.00291552711679,0.24577042280969644,1668,0,5.653436274955225,2.0282761811617087,35.87687350694994,0.2755611302832702,0.09886271814605037,0.08984375,,
2.2189550000000744,1200,,,,-0.125,-0.00390625,-0.94140625,0.012325118131292005,0.5589140770075552,23.002868338180903,0.24474575774912186,1668,0,5.629854441831369,2.1527106829777556,38.237412800276374,0.2596326953859088,0.09927682549919405,0.08984375,,
2.227199999999255,1200,,,,-0.041015625,0.056640625,-1,0.012325118131292005,0.5589140770075552,23.00294796646734,0.2445697792709731,1668,0,5.625825906740596,2.1524427025929618,38.260030407517725,0.2596650198094722,0.09934791553679098,0.08984375,,
2.2353549999985844,1200,,,,0,0.015625,-0.9609375,0.012325118131292005,0.5589140770075552,23.00287872450986,0.2448888872481518,1667,0,5.633149374349405,2.151817152513971,38.19918502982167,0.2597405064619804,0.09921875666080779,0.08984375,,
2.2435849999990314,1200,,,,-0.03125,0.041015625,-0.95703125,0.012325118131292005,0.5589140770075552,23.003088019637612,0.24504198839693545,1667,0,5.6367224276017245,2.1515039769604614,38.169415020775986,0.25977831460816614,0.09915586303676804,0.087890625,,
2.2605849999990313,1200,,,,0,-0.03125,-0.9453125,0.012325118131292005,0.5589140770075552,23.002870423007312,0.24743156858400836,1667,0,5.6916363106993915,2.1514911679823454,37.80092491043176,0.25977986120747193,0.09819919026746028,0.08984375,,
2.269019999999553,1200,,,,-0.03125,0.056640625,-0.962890625,0.012325118131292005,0.5589140770075552,23.002928527779698,0.2473321181343228,1667,0,5.689363036068192,2.151598813388794,37.81792091221027,0.2597668643102005,0.09823842730096019,0.087890625,,
2.275699999999255,1200,,,,-0.03125,-0.013671875,-0.974609375,0.012325118131292005,0.5589140770075552,23.002804729262415,0.24670349596709554,1667,0,5.674872343757476,2.1516356711513547,37.91513783597645,0.25976241447441545,0.09848927749403508,0.087890625,,
2.2839749999996273,1200,,,,0,0.0078125,-0.9921875,0.012325118131292005,0.5902992706822219,23.00286510635519,0.24631374324839775,1668,0,5.6659218097843,2.1526838703936555,37.99353296186075,0.27421549387754524,0.10418415405289441,0.087890625,,
2.2911349999997763,1200,,,,-0.09375,0.068359375,-0.955078125,0.012325118131292005,0.5902992706822219,23.00300329486419,0.24627753560868745,1669,0,5.66512296305767,2.1540162792003286,38.0224099855677,0.2740458725322951,0.10419884520275552,0.087890625,,
2.2994599999990313,1200,,,,0,0.12109375,-0.984375,0.012325118131292005,0.5902992706822219,23.002856725543772,0.24496746940991623,1669,0,5.63495160125533,2.1546214197792466,38.2367333784952,0.27396890482166536,0.10475675967664345,0.087890625,,
2.3143849999997763,1200,,,,-0.1875,0.10546875,-1.05078125,0.012325118131292005,0.5902992706822219,23.00284041568638,0.2447235894698442,1668,0,5.629337674528774,2.1528273234301416,38.24299496495123,0.2741972216060908,0.10486122965285347,0.08984375,,
2.330984999997541,1200,,,,0,0.02734375,-0.95703125,0.012325118131292005,0.5902992706822219,23.002830984660836,0.24562611648902263,1667,0,5.650096043015601,2.1515509862721243,38.079901118349596,0.27435988012768475,0.10447597106104482,0.08984375,,
2.3604999999981375,1200,,,,-0.0625,0.03125,-0.982421875,0.012325118131292005,0.5902992706822219,23.00286672873165,0.24385465030105177,1667,0,5.609356022056556,2.151342770987632,38.35275854355357,0.27438643373934735,0.1052347664083195,0.087890625,,
2.372454999998212,1200,,,,-0.01953125,0.013671875,-0.96875,0.014169298196995212,0.5902992706822219,23.002985043248323,0.2442732377683645,1666,0,5.619013634851529,2.471679938847301,43.98779037510931,0.2388251251323079,0.10505389540629212,0.087890625,,
2.38077499999851,1200,,,,-0.041015625,0.046875,-1.015625,0.014169298196995212,0.5902992706822219,23.00275529388351,0.24443737348970443,1665,0,5.6227330870632795,2.4704269951603828,43.93640880525368,0.23894625173649342,0.10498440198777632,0.087890625,,
2.388254999998957,1200,,,,-0.0625,0.03515625,-0.95703125,0.014169298196995212,0.5902992706822219,23.002617055878858,0.24514448455736668,1666,0,5.638964701633914,2.471281203857116,43.82508730975123,0.23886365896398074,0.10468220709223097,0.087890625,,
2.396939999997616,1200,,,,-0.03125,0.009765625,-0.9296875,0.014169298196995212,0.5902992706822219,23.002587293846528,0.24673735032551283,1666,0,5.675597439515001,2.472221186893737,43.55878325128353,0.23877283869729837,0.10400654327109304,0.087890625,,
2.406390000000596,1200,,,,-0.0625,0.109375,-1.044921875,0.014169298196995212,0.5902992706822219,23.002591671386647,0.24842840933568108,1666,0,5.71449725952077,2.4726173356318553,43.26920152971102,0.2387345838661186,0.10329854821414783,0.087890625,,
2.414054999999702,1200,,,,-0.03125,0.076171875,-0.96484375,0.014169298196995212,0.5902992706822219,23.00259591958852,0.2473049358565719,1667,0,5.688655508428481,2.472928666855724,43.47123258196527,0.2387045281952167,0.10376780063542553,0.087890625,,
2.4218699999991804,1200,,,,-0.125,0.01953125,-0.91796875,0.014169298196995212,0.5902992706822219,23.002663759229208,0.24679752391331153,1667,0,5.677000459188235,2.4731091087642123,43.563658776202516,0.23868711193950862,0.10398083898810005,0.087890625,,
2.4287599999979137,1200,,,,-0.03125,0.033203125,-0.974609375,0.014169298196995212,0.6024862428065231,23.002549320180112,0.24744069931242021,1667,0,5.691766889753803,2.473176501502591,43.451823474266845,0.24360826752173953,0.105852234372266,0.08984375,,
2.4356199999991803,1200,,,,0,0,-0.95703125,0.014169298196995212,0.6024862428065231,23.002783222805085,0.24735704662618366,1667,0,5.689900522175392,2.47320597378405,43.46659426021882,0.24360536453205642,0.10588695539727598,0.08984375,,
2.443859999999404,1200,,,,-0.0625,0.10546875,-0.96875,0.014169298196995212,0.6024862428065231,23.00283779906095,0.24639863951620952,1667,0,5.667867938700657,2.4736624578349944,43.64361492872176,0.24356041015144514,0.10629856752531207,0.08984375,,
2.4518749999981373,1200,,,,-0.03125,0.0625,-0.966796875,0.014169298196995212,0.6024862428065231,23.002894841308414,0.24731149832763302,1667,0,5.688880389076965,2.473866103715991,43.485992577133125,0.24354036053185307,0.10590594310320488,0.087890625,,
2.459864999998361,1200,,,,-0.03125,-0.017578125,-0.994140625,0.014169298196995212,0.6024862428065231,23.00281653430896,0.24961717171631229,1667,0,5.741898004803427,2.4739473181141896,43.08588059287348,0.24353236562279706,0.10492806425723843,0.087890625,,
2.4675699999984353,1200,,,,-0.0625,0.01171875,-1.0234375,0.014169298196995212,0.6024862428065231,23.00255558645752,0.25468997486249856,1669,0,5.858520304088092,2.4767378886268934,42.27582666050707,0.24325797476314387,0.10283931974872675,0.087890625,,
2.4753799999989567,1200,,,,-0.0625,0.072265625,-0.958984375,0.014169298196995212,0.6024862428065231,23.00233262925454,0.26029171577456656,1671,0,5.987316626885961,2.4792847399334845,41.408946518717435,0.24300808741423016,0.10062708895351669,0.087890625,,
2.4836249999981375,1200,,,,0,0.1015625,-0.92578125,0.014169298196995212,0.6024862428065231,23.00207994959905,0.2594336575347809,1672,0,5.9675137322319305,2.480308192519776,41.563510430199,0.2429078146915484,0.10096101489509017,0.087890625,,
2.4921500000003727,1200,,,,-0.03125,0.037109375,-0.962890625,0.014169298196995212,0.6024862428065231,23.002076228747267,0.2575074056072639,1675,0,5.923204973245225,2.485827017604632,41.96760079776015,0.2423685310923545,0.10171625758823452,0.087890625,,
2.5008299999982118,1200,,,,-0.0625,0.015625,-0.9921875,0.014169298196995212,0.6024862428065231,23.00210849353725,0.2557931052786923,1679,0,5.883780759519277,2.4909080552158196,42.33516096237642,0.24187413965158255,0.10239780634786061,0.087890625,,
2.5084949999991806,1200,,,,-0.0625,0.033203125,-0.9609375,0.014169298196995212,0.6024862428065231,23.002103296432274,0.2543273794949765,1680,0,5.850064654254382,2.492655175946644,42.609019271845035,0.24170460825080425,0.10298796311052272,0.087890625,,
2.518160000000149,1200,,,,-0.0625,0.1640625,-0.98046875,0.014107198504016252,0.6024862428065231,23.002097407674515,0.25190547017132,1680,0,5.79435416240675,2.482477635391634,42.84304282775337,0.24269553699784904,0.1039781528570345,0.087890625,,
2.5287200000006704,1200,,,,0,0.01953125,-0.98828125,0.014107198504016252,0.6024862428065231,23.002297440594834,0.2517436219690563,1681,0,5.790681671304897,2.4827152313211776,42.874317260850425,0.24267231102695166,0.10404409653393297,0.087890625,,
2.537234999999404,1200,,,,-0.03125,-0.041015625,-0.978515625,0.014107198504016252,0.6024862428065231,23.002154445182647,0.2506782813673606,1681,0,5.76614054406498,2.4828143224426067,43.05851207525869,0.24266262577935901,0.10448691602334512,0.087890625,,
2.544355000000447,1200,,,,-0.09375,0.095703125,-0.9921875,0.014107198504016252,0.6024862428065231,23.002242753825286,0.2507415293872302,1676,0,5.767617527430486,2.4761281652666143,42.93155975565784,0.2433178747601908,0.10446015879886801,0.087890625,,
2.5524949999991806,1200,,,,-0.03125,0.083984375,-0.9296875,0.014107198504016252,0.6024862428065231,23.002232563934832,0.24996593927490648,1674,0,5.749774668263811,2.4736086949724174,43.02096756287917,0.24356570383628978,0.10478432244170857,0.087890625,,
2.5605149999987336,1200,,,,0.0625,0,-1.01171875,0.014107198504016252,0.6024862428065231,23.002330850661142,0.24899448703830193,1674,0,5.727453570845678,2.472325344327295,43.16622236646516,0.24369213549863764,0.10519268909892951,0.087890625,,
2.5686349999997766,1200,,,,-0.09375,0.01953125,-0.984375,0.014107198504016252,0.6024862428065231,23.00231470901762,0.24930240776732007,1673,0,5.734532441179735,2.471428136510598,43.097291049628524,0.24378060357327308,0.10506283624451461,0.087890625,,
2.576675000000745,1200,,,,-0.0625,0.01171875,-0.91796875,0.014107198504016252,0.6024862428065231,23.002397583813874,0.24847596111768708,1673,0,5.715542847649315,2.4710754134710307,43.234308259754066,0.24381540098779597,0.10541190204781917,0.087890625,,
2.5846699999999254,1200,,,,0,0.046875,-0.951171875,0.014107198504016252,0.5480669701311119,23.002475867055676,0.24737781181237886,1673,0,5.6903021462592855,2.47093690064196,43.423650223324515,0.22180532816872892,0.09631596988068594,0.087890625,,
2.59275,1200,,,,-0.03125,0.09375,-1.013671875,0.014107198504016252,0.5480669701311119,23.00235303936896,0.24663830374590087,1673,0,5.673261335794328,2.4708031250729956,43.55172411120829,0.22181733727365274,0.09660527476024965,0.087890625,,
2.6019199999980627,1200,,,,-0.125,0.052734375,-1.00390625,0.014107198504016252,0.5480669701311119,23.00237029734603,0.2456248943570434,1672,0,5.649954774247211,2.470583598727867,43.72749335957371,0.22183704709013619,0.09700378003541368,0.087890625,,
2.610515000000596,1200,,,,-0.0625,0.046875,-0.98046875,0.014107198504016252,0.5480669701311119,23.0025324534023,0.24549893382805651,1672,0,5.647097192655534,2.4705047201867125,43.74822383790005,0.22184412992730118,0.09705286653183753,0.087890625,,
2.618894999999553,1200,,,,0,0.017578125,-0.921875,0.014107198504016252,0.5480669701311119,23.00253927492468,0.24539119944392215,1671,0,5.644620702929695,2.4681382670254304,43.72549364998798,0.2220568342759968,0.09709544697071529,0.087890625,,
2.628839999999851,1200,,,,-0.0625,0.107421875,-1.0078125,0.014107198504016252,0.5480669701311119,23.00269177338966,0.24587023272483896,1668,0,5.655677179621055,2.464709370358222,43.579385670017395,0.22236575911238396,0.09690563176164764,0.087890625,,
2.637589999999851,1200,,,,-0.0625,0.025390625,-0.98828125,0.014107198504016252,0.5480669701311119,23.002771670466444,0.24624374853686706,1668,0,5.664288722873309,2.463406415334564,43.49012799059717,0.2224833737216183,0.09675830398933043,0.087890625,,
2.6458049999997018,1200,,,,0,0.02734375,-0.98828125,0.014107198504016252,0.5480669701311119,23.002832231244913,0.2461001120626722,1669,0,5.660999589868221,2.465349651767303,43.54972320046913,0.22230800800942221,0.09681452214058012,0.087890625,,
2.6546549999993294,1200,,,,-0.03125,0.060546875,-1.021484375,0.014107198504016252,0.5480669701311119,23.002791054272194,0.2447772325965841,1669,0,5.630559536262209,2.466117881256366,43.798806590605274,0.2222387560208187,0.09733792291892553,0.087890625,,
2.6628799999989567,1200,,,,-0.09375,0.107421875,-1.04296875,0.013468909337236771,0.5480669701311119,23.002711202539913,0.24505434550800673,1670,0,5.636914338648113,2.3548382516321564,41.775306668877136,0.2327408134088371,0.0972281885451808,0.087890625,,
2.67026999999769,1200,,,,-0.0625,0.068359375,-0.974609375,0.013468909337236771,0.5480669701311119,23.002773563186288,0.24491810996673472,1670,0,5.633795825088358,2.354792747128231,41.79762313433323,0.23274531094063486,0.0972820079297986,0.087890625,,
2.6814749999996277,1200,,,,0.0625,-0.01953125,-0.91796875,0.013468909337236771,0.5480669701311119,23.002637715976622,0.24526513167919348,1669,0,5.641744968377789,2.354700454517748,41.73709495406015,0.23275443340556798,0.0971449388802666,0.087890625,,
2.695934999998659,1200,,,,-0.0625,0.078125,-1.0078125,0.013468909337236771,0.5480669701311119,23.002796355353276,0.2452464596386474,1669,0,5.641354367939173,2.353858380763281,41.7250579779331,0.23283769941732488,0.09715166507636439,0.087890625,,
2.7036549999993293,1200,,,,0,0.03125,-0.94140625,0.013468909337236771,0.5480669701311119,23.002761186364246,0.24525735727167228,1668,0,5.641596418519092,2.352628030042153,41.70145922383639,0.23295946623627195,0.09714749682058582,0.087890625,,
2.7112249999996276,1200,,,,-0.03125,0.0390625,-0.998046875,0.013468909337236771,0.5480669701311119,23.002820872017715,0.2452686508281627,1668,0,5.641870840521686,2.3520770433756835,41.689664826821776,0.23301403824108172,0.09714277154214929,0.087890625,,
2.71977499999851,1200,,,,-0.0625,0.04296875,-0.98828125,0.013468909337236771,0.5480669701311119,23.00274703211232,0.24506393026838316,1667,0,5.6371435946588315,2.3518524704731805,41.72064150896475,0.23303628820767133,0.09722423438892047,0.087890625,,
2.7287099999990314,1200,,,,-0.0625,0.05859375,-0.99609375,0.013468909337236771,0.5181915675634153,23.0025963898961,0.243896541183776,1667,0,5.610253697742071,2.3512913129367243,41.91060582310272,0.22038594907927533,0.09236508640811897,0.087890625,,
2.7382899999991057,1200,,,,-0.03125,0.0625,-0.98046875,0.013468909337236771,0.5181915675634153,23.002566725228146,0.24397622610527606,1667,0,5.612079420355961,2.3510992519629847,41.89354917956346,0.22040395237707033,0.09233503818278958,0.087890625,,
2.7461899999994785,1200,,,,-0.0625,0.0703125,-1.01953125,0.013468909337236771,0.5181915675634153,23.002572935382112,0.24380678504114864,1667,0,5.60818335505005,2.351752031838402,41.934292852973485,0.22034277447114045,0.09239918432709494,0.087890625,,0.25802499999850986,4267,
2.7619399999994783,1200,,,,-0.0625,0.0859375,-0.98828125,0.013468909337236771,0.5181915675634153,23.00272311437167,0.24243886934467287,1669,0,5.57675418369684,2.3538401703085357,42.20806750259469,0.22014730400980964,0.0929199226816028,0.087890625,,
2.7723699999991807,1500,,,,0,0.0546875,-0.994140625,0.013468909337236771,0.5181915675634153,23.002802756028927,0.24384572914344024,1669,0,5.609135210386611,2.354134437516031,41.96965038669075,0.22011978555913997,0.09238350443110442,0.087890625,,
2.7801199999991804,1500,,,,-0.09375,0.052734375,-1.001953125,0.013468909337236771,0.5181915675634153,23.002764308436138,0.24345530423769204,1668,0,5.600144983018244,2.3524618553065553,42.00715985818418,0.22027628902653915,0.09253181286105414,0.087890625,,
2.7888849999997767,1500,,,,0,0.03515625,-0.984375,0.013468909337236771,0.5181915675634153,23.002831944296958,0.24285580536855847,1667,0,5.5863712775898415,2.3517466249991066,42.097929194812366,0.22034328105546325,0.09275995844425534,0.087890625,,
2.7965800000000747,1500,,,,-0.03125,0.017578125,-0.958984375,0.013468909337236771,0.5181915675634153,22.998512580941373,0.24345885164827644,1672,0,5.599191462574425,2.3584419176078484,42.12111576058647,0.21971775675061506,0.09254757066749036,0.087890625,,
2.804914999999106,1500,,,,0.25,-0.251953125,-1.314453125,0.013468909337236771,0.5181915675634153,22.980803646930564,0.923155660181086,1684,0,21.214858962174095,2.3751385719331517,11.195636870214422,0.21817319363461535,0.024425878507481305,0.09765625,,
2.814344999998808,1500,,,,0.0625,-0.400390625,-0.85546875,0.013817234960834061,0.5181915675634153,22.96049951110446,1.482928481916539,1689,0,34.04877868404757,2.4436296753392854,7.176849713215022,0.2120581415395797,0.015219094122932429,0.111328125,,
2.823054999997839,1500,,,,-0.0625,-0.734375,-0.453125,0.013817234960834061,0.5181915675634153,22.94457742157347,1.9229366399454273,1901,0,44.120968612008205,2.749960267469921,6.232774016483121,0.18843601985572445,0.011744791283262569,0.12109375,,
2.834254999998957,1500,,,,-0.03125,-0.05078125,-0.8203125,0.013817234960834061,0.5181915675634153,22.93410760914003,2.209534418395664,1972,0,50.673700117584794,2.8538920641510015,5.631899895860661,0.1815736390568685,0.010226045588954189,0.123046875,,
2.844394999999553,1500,,,,-0.25,0.16796875,-1.0390625,0.013817234960834061,0.5181915675634153,22.920112011403855,2.5859884198712058,2402,0,59.2711442436413,3.475111870125769,5.863075387647141,0.14911507511977198,0.008742729268618899,0.126953125,,
2.8536899999994785,1500,,,,0,-0.029296875,-1.041015625,0.013817234960834061,0.5181915675634153,22.914057658106042,2.765070183438561,2658,0,63.358977612021036,3.845692471094637,6.069688331531722,0.13474597135842153,0.00817866050075119,0.1328125,,
2.861644999999553,1500,,,,0.125,-0.1328125,-0.953125,0.013817234960834061,0.5181915675634153,22.90920241743464,2.888475921389053,3114,0,66.17267956098785,4.505736624693108,6.809058745369997,0.11500707003679118,0.007830898960133928,0.134765625,,
2.870129999998957,1500,,,,0.0625,0.166015625,-1.083984375,0.013817234960834061,0.5181915675634153,22.90628316792999,2.9722283995749486,4292,0,68.08270536042713,6.21052815089806,9.122034910363466,0.08343760063119322,0.007611207057947093,0.138671875,,
2.8781749999988824,1500,,,,-0.1875,0.1640625,-1.013671875,0.013817234960834061,0.5051706983426066,22.90402301225936,3.025304072710591,5097,0,69.29163410044534,7.375253904196238,10.64378694476313,0.0684953636721827,0.00729050057630781,0.140625,,
2.8869099999982866,1500,,,,-0.3125,0.021484375,-1.447265625,0.013817234960834061,0.5051706983426066,22.902591997457424,3.059683399507552,5391,0,70.07468054031499,7.799951035138298,11.130912014148779,0.06476588071730756,0.007209033197832055,0.146484375,,
2.894964999999851,1500,,,,0.0625,0.0234375,-1.0234375,0.013817234960834061,0.5051706983426066,22.901689114003084,3.0779396266356325,5143,0,70.49001644087998,7.441252822077298,10.556463450846662,0.06788785577125214,0.007166556682055729,0.1484375,,
2.903344999998808,1500,,,,-0.0625,0.080078125,-0.982421875,0.013817234960834061,0.5051706983426066,22.90121172184652,3.0849776999389267,4703,0,70.64972746347647,6.804859103842177,9.631826403520185,0.07423676091359126,0.007150355938793435,0.1484375,,
2.9121199999991805,1500,,,,0.0625,0.095703125,-0.890625,0.013817234960834061,0.5051706983426066,22.901143983130474,3.080187547210584,3997,0,70.53981851371508,5.783580051946769,8.199028823447096,0.0873456740989631,0.007161496995408148,0.15234375,,
2.9203199999984353,1500,,,,-0.125,-0.296875,-1.15234375,0.013817234960834061,0.5051706983426066,22.90154320835609,3.067371726846996,3818,0,70.24754613847632,5.5250335938574135,7.865091234597895,0.09143305461603744,0.007191293164131068,0.15625,,
2.9291949999984355,1500,,,,-0.03125,0.087890625,-0.91015625,0.013817234960834061,0.5051706983426066,22.901895772825373,3.0465943821256376,3753,0,69.77278700151668,5.4298930983177005,7.782250547336841,0.09303510938348297,0.007240225309211534,0.158203125,,
2.9375499999988826,1500,,,,0,-0.142578125,-1.0625,0.013817234960834061,0.5051706983426066,22.902662664584955,3.0203114008627407,3748,0,69.17317315595938,5.422749676684036,7.8393825659230405,0.09315766510755001,0.007302985757262247,0.162109375,,
2.944664999999106,1500,,,,-0.4375,0.16015625,-0.765625,0.013817234960834061,0.5051706983426066,22.903363303022356,2.9990672533489686,3778,0,68.68872687364882,5.4663187205524135,7.958101670172995,0.09241515618971358,0.007354492088226579,0.1640625,,
2.9519399999994786,1500,,,,0.1875,0.0546875,-1.01171875,0.013817234960834061,0.5051706983426066,22.903901661202596,2.971365556699031,3815,0,68.05586451011911,5.520220524412725,8.111307620803101,0.0915127749169676,0.007422882685848383,0.16796875,,
2.9645800000000744,1500,,,,-0.125,-0.09375,-0.94921875,0.013817234960834061,0.5051706983426066,22.905805527926514,2.9172423876374016,3837,0,66.82178680904633,5.551706585118027,8.308228274384362,0.09099376751948192,0.00755996992098117,0.169921875,,
2.9721599999982864,1500,,,,0.166015625,-0.01953125,-1.0390625,0.014885583421032906,0.5051706983426066,22.906923943764866,2.8869104739232356,3862,0,66.13023865861774,6.020162536788482,9.103494345251342,0.08391313278596214,0.007639027298093313,0.17578125,,
2.9791199999991806,1500,,,,-0.4375,0.41015625,-0.765625,0.014885583421032906,0.5051706983426066,22.90806491645522,2.8518515873771504,3887,0,65.33040129573163,6.05861877788741,9.27381227992434,0.08338050583185157,0.007732551588897281,0.18359375,,
2.9891399999987334,1500,,,,0.25,-0.193359375,-0.92578125,0.014885583421032906,0.5051706983426066,22.90938963801436,2.820084113961995,3914,0,64.60640577872984,6.101461719789958,9.444050704022795,0.08279502872305114,0.007819204493015186,0.185546875,,
2.9969249999988823,1500,,,,-0.375,0.400390625,-1.140625,0.014885583421032906,0.5051706983426066,22.911007237424467,2.7744990098804836,3933,0,63.566566895598775,6.130618531258909,9.64440716348232,0.08240126110715143,0.007947113129017884,0.19140625,,
3.0093699999991803,1500,,,,0.75,-0.609375,-0.81640625,0.014885583421032906,0.5051706983426066,22.91292880603979,2.7180397650231973,3951,0,62.278251627961644,6.15948599834629,9.890268010640185,0.08201507373800926,0.008111510601813289,0.19921875,,
3.016980000000447,1500,,,,-0.14453125,0.068359375,-0.93359375,0.014885583421032906,0.5051706983426066,22.9140623471837,2.683516491350602,3962,0,61.490264192503346,6.176692303797484,10.04499230066818,0.0817866057585584,0.008215458251425029,0.205078125,,
3.025309999998659,1500,,,,-0.375,0.328125,-1.10546875,0.014885583421032906,0.5051706983426066,22.915117957896634,2.6490639036837726,3975,0,60.703611830919776,6.195937532138306,10.206868002180993,0.08153256802901708,0.008321921597510194,0.208984375,,
3.03302499999851,1500,,,,0.125,-0.1015625,-1.07421875,0.014885583421032906,1.7222712899831372,22.916546497904488,2.611971995243096,3982,0,59.85737768021277,6.206547742220321,10.368893497771852,0.2774926354416496,0.028772915833104953,0.2109375,,
3.041414999999106,1500,,,,-0.28125,0.1328125,-0.90234375,0.014885583421032906,1.7222712899831372,22.91760567020168,2.579028498135942,3991,0,59.10515813249199,6.221979216657953,10.52696484240947,0.2768044106242178,0.02913910298865015,0.21484375,,
3.050074999999255,1500,,,,0.0625,0.126953125,-0.96484375,0.014885583421032906,1.7222712899831372,22.919121510001673,2.538797113153926,4002,0,58.186999525616294,6.238302742037815,10.721128074822726,0.2760801072345099,0.02959890188571973,0.21875,,
3.0581399999987333,1500,,,,-0.375,0.08984375,-1.09375,0.014885583421032906,1.7222712899831372,22.92034609086906,2.5073118183926737,4009,0,57.468454635286314,6.249547980822688,10.874745145809769,0.27558333742985647,0.029968985609813873,0.220703125,,
3.0676349999997763,1500,,,,0.09375,0.0625,-0.98046875,0.014885583421032906,1.7222712899831372,22.921495430128115,2.47163306012805,4013,0,56.653525892678665,6.256217102825283,11.042943937287712,0.2752895658313018,0.03040007241995341,0.22265625,,
3.0754399999976156,1500,,,,0,-0.173828125,-0.9609375,0.014885583421032906,1.7222712899831372,22.922721728793643,2.437580943158039,4022,0,55.87598965142208,6.269139006857287,11.219736860083932,0.2747221409669316,0.030823101312878565,0.2265625,,
3.0829399999994784,1500,,,,-0.125,0.35546875,-0.9375,0.014885583421032906,1.7222712899831372,22.923835911989247,2.411285386045606,4026,0,55.27591052668712,6.27599440800456,11.353941252536256,0.27442205617431864,0.031157719042034182,0.228515625,,
3.0911149999983607,1500,,,,0.03125,-0.064453125,-1.041015625,0.014885583421032906,1.7222712899831372,22.924950239497008,2.3826720648769397,4029,0,54.62263852434343,6.279823400570276,11.496741223460992,0.27425473299563424,0.03153035694560196,0.23046875,,
3.0995299999993295,1500,,,,-0.125,0.3046875,-0.8984375,0.014885583421032906,1.7222712899831372,22.925985145678812,2.351218822642193,4030,0,53.90400780213534,6.282540122542125,11.655051968683578,0.27413613863022157,0.03195070942229478,0.232421875,,
3.1069599999990314,1500,,,,-0.03125,-0.05859375,-1.033203125,0.014885583421032906,1.7222712899831372,22.927062936548698,2.323032563154091,4032,0,53.26031377908588,6.284561791167441,11.799708535767671,0.2740479523017312,0.03233685961984389,0.234375,,
3.115589999999851,1500,,,,-0.25,0.22265625,-0.984375,0.04949992655221696,1.7222712899831372,22.92809046671715,2.2971191673065574,4039,0,52.66855608083472,20.934521084618403,39.7476647214108,0.08226943826522845,0.032700180489851044,0.236328125,,
3.1242750000003725,1500,,,,0.15625,-0.09375,-1.03515625,0.04949992655221696,1.7222712899831372,22.929115477731298,2.268695815256385,4042,0,52.019188331859404,20.95302951522711,40.279424164706406,0.08219676723747836,0.03310838452526034,0.240234375,,
3.1322050000000745,1500,,,,-0.4375,0.1640625,-0.9765625,0.04949992655221696,1.7222712899831372,22.929849468484072,2.243852602359578,4044,0,51.45120240157137,20.960867755228907,40.73931565608803,0.08216603005634147,0.033473878346729116,0.2421875,,
3.1434350000005216,1500,,,,0.15625,-0.009765625,-1.052734375,0.04949992655221696,1.7222712899831372,22.93069503831567,2.231546046074248,4044,0,51.1709018464877,20.964115968787766,40.96882253840268,0.08215329912061758,0.033657239326168945,0.2421875,,
3.1540849999990312,1500,,,,-0.0625,-0.029296875,-1.025390625,0.04949992655221696,1.7222712899831372,22.931362695194636,2.215403591063578,4046,0,50.80222326291556,20.971121302742088,41.279928231114475,0.08212585608180813,0.033901494449758755,0.244140625,,
3.1621500000003726,1500,,,,-0.1875,0.224609375,-0.90625,0.04949992655221696,1.7222712899831372,22.932065940990235,2.191524613088415,4048,0,50.25618693864664,20.983126267591935,41.752324531123676,0.08207886985092182,0.034269836111635504,0.24609375,,
3.171289999999106,1500,,,,0.15625,-0.05859375,-0.990234375,0.04949992655221696,1.7222712899831372,22.932746446211773,2.1724656762576258,4057,0,49.82060451671413,21.03040172661017,42.21225721890781,0.08189436000187834,0.03456945789177124,0.248046875,,
3.17989999999851,1500,,,,-0.09375,-0.041015625,-0.974609375,0.04949992655221696,2.8720552403483963,22.93374754712329,2.14706516051278,4061,0,49.240250358423836,21.051135779948275,42.751886163687885,0.13643231749443654,0.05832738906570275,0.251953125,,
3.189089999999851,1500,,,,-0.25,0.236328125,-0.908203125,0.04949992655221696,2.8720552403483963,22.934293127442466,2.12326124442752,4062,0,48.695495765839006,21.055066458730316,43.238221785393385,0.1364068475384708,0.058979895269147424,0.25390625,,
3.1973299999982117,1500,,,,0.3125,-0.43359375,-1.09375,0.04949992655221696,2.8720552403483963,22.93500681378905,2.1012022425773735,4062,0,48.1910877506609,21.05566842246667,43.69203810341033,0.13640294778216946,0.05959722791916039,0.255859375,,
3.205,1500,,,,-0.25,0.228515625,-0.90234375,0.04949992655221696,2.8720552403483963,22.935639471543766,2.081856145161868,4062,0,47.74870197705049,21.057492119710147,44.10065875682031,0.1363911345197706,0.06014938880911978,0.2578125,,
3.214054999999702,1500,,,,0.15625,-0.078125,-1.005859375,0.04949992655221696,2.8720552403483963,22.93631687756723,2.062809437170425,4062,0,47.313250908976975,21.054850751430017,44.50095976692901,0.13640824502891952,0.060702978239093416,0.259765625,,
3.2222750000003724,1500,,,,-0.4375,0.14453125,-0.953125,0.04949992655221696,2.8720552403483963,22.936894571392486,2.046771210898689,4062,0,46.94657547614456,21.053950121725105,44.846615345614424,0.13641408019603818,0.06117709782277523,0.26171875,,
3.2302599999997765,1500,,,,0.15625,-0.091796875,-0.943359375,0.04949992655221696,2.8720552403483963,22.937340907506794,2.033153364318951,4062,0,46.63513183462814,21.056819541427977,45.15226764255137,0.13639549100460338,0.0615856571507706,0.26171875,,
3.237269999999553,1500,,,,-0.09375,-0.10546875,-1.0390625,0.04949992655221696,2.8720552403483963,22.93785014616766,2.018668972434115,4062,0,46.30392638441198,21.057142589000303,45.47593310810269,0.13639339849693957,0.062026170664336175,0.265625,,
3.2442449999991805,1500,,,,0,0.20703125,-0.921875,0.04949992655221696,2.8720552403483963,22.938200817068513,2.0056838708523044,4062,0,46.00677940516547,21.05501802850471,45.7650335466445,0.13640716129808816,0.06242678312809552,0.265625,,
3.2516500000003727,1500,,,,-0.03125,-0.1484375,-1.041015625,0.04949992655221696,2.8720552403483963,22.938542024622205,1.9950499949209402,4062,0,45.763538149716304,21.054080540663545,46.00623420283788,0.13641323518266923,0.06275859246180686,0.267578125,,
3.260129999998957,1500,,,,-0.0625,0.2421875,-0.84765625,0.04949992655221696,2.8720552403483963,22.939015841883435,1.9863277768452834,4058,0,45.564404340227064,21.03659311749945,46.16891940564018,0.1365266335811408,0.06303287142531058,0.26953125,,
3.2681749999988825,1500,,,,-0.03125,-0.130859375,-1.060546875,0.06493946475474394,2.8720552403483963,22.939453322001732,1.975433585238328,4054,0,45.31536651928916,27.56731852364267,60.83437173990026,0.104183337160095,0.06337927861900584,0.271484375,,
3.276164999999106,1500,,,,0,0.1484375,-0.90234375,0.06493946475474394,2.8720552403483963,22.939941197483286,1.9615954011833119,4058,0,44.99888315639881,27.599420850172017,61.33356855601737,0.10406215608435478,0.06382503384286753,0.271484375,,
3.2844049999993294,1500,,,,-0.03125,-0.134765625,-1.052734375,0.06493946475474394,2.8720552403483963,22.94033290480293,1.9477951325381895,4060,0,44.683068770780814,27.607699234693833,61.78559350146309,0.10403095223303374,0.06427614126240346,0.2734375,,
3.2942399999983607,1500,,,,-0.25,0.169921875,-0.955078125,0.06493946475474394,2.8720552403483963,22.94076955892114,1.9346981618072427,4060,0,44.38346469608828,27.613080455723356,62.21479247913925,0.10401067874167969,0.06471002793528022,0.275390625,,
3.3040199999995528,1500,,,,0.1875,-0.1484375,-0.97265625,0.06493946475474394,2.8720552403483963,22.941180425677615,1.9310122302777972,4061,0,44.299699978993075,27.61809446242623,62.34375057962636,0.10399179582269008,0.0648323858109722,0.279296875,,
3.3129199999999255,1500,,,,-0.0625,-0.126953125,-1.0703125,0.06493946475474394,2.8720552403483963,22.941228585580394,1.9281874515213566,4061,0,44.23498908119915,27.619443387619143,62.438002046117866,0.10398671689509285,0.06492722842264888,0.28125,,
3.321759999997914,1500,,,,0,0.15234375,-0.87890625,0.06493946475474394,2.8720552403483963,22.94149651753983,1.915747734508472,4061,0,43.95011997971093,27.619862210922857,62.843655998375546,0.10398514005665754,0.06534806370663489,0.28125,,
3.330140000000596,1500,,,,-0.0625,-0.087890625,-1.02734375,0.06493946475474394,3.4320243805097133,22.94185254148539,1.9041559680005453,4063,0,43.68486543385788,27.633451976617536,63.25635137518423,0.12419817775259395,0.0785632357207567,0.28515625,,
3.338855000000447,1500,,,,-0.25,0.236328125,-0.984375,0.06493946475474394,3.4320243805097133,22.942023880256173,1.8939748508272762,4063,0,43.45161625628399,27.63172515783432,63.591938663129035,0.12420593940138566,0.07898496480009239,0.28515625,,
3.347434999998659,1500,,,,0.21875,-0.08203125,-1.025390625,0.06493946475474394,3.4320243805097133,22.942353170946888,1.8856479137746407,4062,0,43.26120039387701,27.62652060672387,63.85981053506319,0.12422933851736695,0.07933262020615281,0.2890625,,
3.356265000000596,1500,,,,-0.03125,-0.09375,-1.07421875,0.06493946475474394,3.4320243805097133,22.942736934492824,1.877085381708532,4063,0,43.0654761161209,27.626902194378335,64.15092711360187,0.12422762263979344,0.07969317165461424,0.291015625,,
3.3643349999990315,1500,,,,0,0.265625,-0.96484375,0.06493946475474394,3.4320243805097133,22.943256145244423,1.8694536265664472,4063,0,42.891353405970115,27.62914321623671,64.41658055115361,0.12421754643816929,0.08001669586000996,0.29296875,,
3.3737599999997765,1500,,,,-0.03125,-0.0546875,-1.064453125,0.06493946475474394,3.4320243805097133,22.943589915879844,1.8597639003632793,4054,0,42.669660270292304,27.56981767903836,64.6122268243911,0.12448484137488945,0.08043242807112704,0.294921875,,
3.3825,1500,,,,-0.21875,0.244140625,-0.96484375,0.06493946475474394,3.4320243805097133,22.943830821958507,1.8512528553557,4059,0,42.4748323219488,27.601989119847218,64.98433922147335,0.12433974832784479,0.08080136384049291,0.296875,,
3.3915,1500,,,,0.15625,-0.052734375,-1.021484375,0.06493946475474394,3.4320243805097133,22.944134835378822,1.84334559669685,4060,0,42.293969918814355,27.606927739792592,65.27390971522806,0.12431750511531196,0.08114689604919274,0.298828125,,
3.39964999999851,1500,,,,-0.03125,-0.095703125,-1.03515625,0.06493946475474394,3.4320243805097133,22.944344174005007,1.8361452210384615,4060,0,42.12914790496096,27.61311388716361,65.54396483274706,0.12428965434807929,0.08146436733664797,0.30078125,,
3.407414999999106,1500,,,,-0.0625,0.30078125,-0.96484375,0.06493946475474394,3.4320243805097133,22.94468327083113,1.8323037684880892,4058,0,42.0416296239095,27.593231138948685,65.63311504760541,0.12437921326528906,0.08163395213771366,0.302734375,,
3.415039999999106,1500,,,,-0.03125,-0.064453125,-1.0625,0.06898567963879763,3.4320243805097133,22.944747190247057,1.8273381155075212,4053,0,41.92781109142255,29.276369919923233,69.8256578577089,0.11722848119138372,0.08185555818848424,0.3046875,,
3.421949999999255,1500,,,,0,0.1953125,-0.88671875,0.06898567963879763,3.4320243805097133,22.944887491523744,1.8251942292940349,4057,0,41.87887624133002,29.306634165452476,69.97951424620588,0.11710742220119856,0.08195120520265223,0.3046875,,
3.4303499999977647,1500,,,,-0.03125,-0.06640625,-1.064453125,0.06898567963879763,3.4320243805097133,22.94494250265464,1.821130676492054,4058,0,41.78573866193073,29.31405484130501,70.15325271253812,0.11707777716489139,0.0821338688847085,0.306640625,,
3.438070000000298,1500,,,,0,0.2578125,-0.90234375,0.06898567963879763,3.4320243805097133,22.94528469404941,1.81649339039452,4054,0,41.6799579874613,29.290266246345066,70.2742220977203,0.1171728639010911,0.08234231861611231,0.306640625,,
3.448124999998137,1500,,,,-0.03125,-0.0546875,-1.0625,0.06898567963879763,3.4320243805097133,22.94532001880531,1.8115826181614074,4051,0,41.56734291421868,29.267249008795957,70.40923705225501,0.11726501453820463,0.08256540206556581,0.30859375,,
3.456259999997914,1500,,,,-0.21875,0.25390625,-0.962890625,0.06898567963879763,3.4320243805097133,22.945423581622066,1.8063495979348403,4057,0,41.44745666110762,29.309640926198142,70.71517358916972,0.11709540861150677,0.0828042214645746,0.310546875,,
3.464309999998659,1500,,,,0.1875,-0.015625,-1.009765625,0.06898567963879763,3.4320243805097133,22.945744417338243,1.8023016956398548,4052,0,41.35515407108745,29.275060970894422,70.78938920302909,0.11723372272125646,0.08298903625435017,0.3125,,
3.473969999998808,1500,,,,-0.4375,0.25390625,-1.046875,0.06898567963879763,3.4320243805097133,22.945953900945074,1.7957968563657405,4054,0,41.206271881630364,29.285683116326062,71.0709359984142,0.11719120113665515,0.08328888355560503,0.3125,,
3.4821549999993295,1500,,,,0.1875,-0.09375,-1.0234375,0.06898567963879763,3.6736094644832415,22.946128796928637,1.7930616728931057,4055,0,41.14382408704153,29.29713924933989,71.20665105742367,0.12539140539348098,0.08928702049453552,0.314453125,,
3.4905849999990313,1500,,,,-0.0625,-0.03515625,-1.064453125,0.06898567963879763,3.6736094644832415,22.94622065739816,1.7918774547739553,4054,0,41.11681546826017,29.28568787200592,71.22557410753952,0.12544043631615806,0.08934567092918609,0.31640625,,
3.499550000000745,1500,,,,-0.21875,0.23046875,-1.01953125,0.06898567963879763,3.6736094644832415,22.946098743519023,1.7891876507248277,4058,0,41.05487650421672,29.314081791528235,71.40219210869482,0.12531893342621817,0.08948046559355567,0.31640625,,
3.508070000000298,1500,,,,0.375,-0.3828125,-1.078125,0.06898567963879763,3.6736094644832415,22.945933208921154,1.7943833633059854,4053,0,41.17380080561844,29.27705341168449,71.10602577085729,0.12547743151696752,0.08922201479106473,0.3203125,,
3.5188849999997767,1500,,,,-0.01953125,0,-1.025390625,0.06898567963879763,3.6736094644832415,22.94580428702829,1.7961594753844234,4055,0,41.21432379046239,29.29464675801817,71.07879995060696,0.1254020741341674,0.08913428940773668,0.3203125,,
3.538035000000149,1500,,,,0.1875,-0.115234375,-1.013671875,0.06898567963879763,3.6736094644832415,22.94593642743401,1.786067225969675,4063,0,40.98298502222358,29.35100328092998,71.6175341181566,0.12516129105781096,0.08963743032605304,0.32421875,,
3.5463949999995528,1500,,,,-0.4375,0.15234375,-1.00390625,0.06898567963879763,3.6736094644832415,22.946135511419907,1.7829954702038666,4063,0,40.91285567554578,29.351726985049396,71.74206371175738,0.1251582050471658,0.0897910792054296,0.32421875,,
3.554309999998659,1500,,,,0.1875,-0.037109375,-1.033203125,0.06898567963879763,3.6736094644832415,22.946358355403294,1.7793166732058976,4063,0,40.82883801112654,29.35201331647666,71.89039597080316,0.12515698411805612,0.08997585146758576,0.32421875,,
3.5623849999997765,1500,,,,-0.03125,-0.056640625,-1.056640625,0.07004642301125293,3.6736094644832415,22.946538076843503,1.7749493733123691,4061,0,40.72894337918179,29.789733079186945,73.14143360373468,0.1233179718233147,0.09019653248262197,0.326171875,,
3.5703499999996273,1500,,,,0,0.26171875,-0.90234375,0.07004642301125293,3.6736094644832415,22.94651186792983,1.7752912724815255,4061,0,40.736742253029576,29.791241201496863,73.1311331094015,0.12331172909635804,0.09017926474496218,0.326171875,,
3.5785649999994784,1500,,,,0,-0.080078125,-1.072265625,0.07004642301125293,3.6736094644832415,22.946323534523433,1.774979672026064,4061,0,40.729257821512356,29.79183898802767,73.14603943578916,0.12330925479154008,0.09019583613779765,0.328125,,
3.586625,1500,,,,0,0.32421875,-0.9375,0.07004642301125293,3.6736094644832415,22.9463404793511,1.778516588023798,4061,0,40.810447176967884,29.7897957410463,72.99551414339491,0.12331771242800116,0.09001639821669266,0.328125,,
3.594625,1500,,,,-0.03125,-0.01953125,-1.09375,0.07004642301125293,3.6736094644832415,22.946226825715943,1.7850109254006712,4060,0,40.95926558062492,29.7844622455642,72.71727611164305,0.12333979489692994,0.08968933921073476,0.330078125,,
3.604454999998212,1500,,,,-0.25,0.232421875,-0.9609375,0.07004642301125293,3.6736094644832415,22.946455906277986,1.7807116838579564,4061,0,40.86102213544062,29.78929174328514,72.90393188046937,0.12331979881029957,0.08990498211979266,0.33203125,,
3.612359999999404,1500,,,,0.15625,-0.00390625,-1.015625,0.07004642301125293,3.6736094644832415,22.946545935477296,1.7748512645758914,4063,0,40.72670607123066,29.80115763739222,73.17350336477065,0.1232706967018582,0.09020148739891043,0.333984375,,
3.6236349999997763,1500,,,,-0.375,0.16015625,-0.9765625,0.07004642301125293,3.6736094644832415,22.946792283966055,1.7732005582290296,4063,0,40.6892648874942,29.80022689303991,73.2385482397815,0.12327454679015358,0.09028448841827863,0.333984375,,
3.632164999999106,1500,,,,-0.01953125,0.044921875,-0.982421875,0.07004642301125293,3.774665267182511,22.946701625564486,1.7702378485519226,4063,0,40.62111971700218,29.80054974750262,73.36220654456615,0.1266642830137333,0.09292371292272884,0.3359375,,
3.6404749999996273,1500,,,,0.375,-0.37890625,-1.00390625,0.07004642301125293,3.774665267182511,22.946766130231914,1.7708185706117339,4063,0,40.634559598899024,29.80236290880661,73.34240410867918,0.12665657682019218,0.09289297840168506,0.337890625,,
3.64852499999851,1500,,,,-0.25,0.26171875,-0.953125,0.07004642301125293,3.774665267182511,22.947021797015264,1.7688175322132382,4063,0,40.58909446663993,29.80306617384527,73.42628990735513,0.12665358809608326,0.09299703077349752,0.337890625,,
3.6570699999984355,1500,,,,0.15625,-0.0078125,-0.9609375,0.07004642301125293,3.774665267182511,22.94692939898301,1.7676366400952839,4062,0,40.561833183322015,29.796129325976576,73.45853721973292,0.12668307436468665,0.09305953333328525,0.33984375,,
3.664504999998957,1500,,,,0,-0.107421875,-1.0390625,0.07004642301125293,3.774665267182511,22.947150967617784,1.765701025224625,4055,0,40.51780798950697,29.74273747056568,73.4065808255675,0.12691048599403587,0.09316064847733245,0.33984375,,
3.6726049999985846,1500,,,,-0.1875,0.421875,-0.88671875,0.07004642301125293,3.774665267182511,22.947193020563265,1.7641480341923728,4059,0,40.48224545745962,29.772782539880453,73.54528436711075,0.12678241484907804,0.0932424875282445,0.341796875,,
3.6806349999979138,1500,,,,0.03125,-0.1328125,-1.05078125,0.07004642301125293,3.774665267182511,22.947425255134284,1.7606080276307519,4060,0,40.40142111764607,29.7822020224508,73.7157288000517,0.1267423162443477,0.09342902211758723,0.341796875,,
3.6884550000000744,1500,,,,-0.0625,0.3203125,-0.87890625,0.07004642301125293,3.774665267182511,22.94765228605293,1.7586511601576995,4060,0,40.35691531576247,29.781433816969564,73.7951193344493,0.12674558553428994,0.09353205609617578,0.341796875,,
3.697925000000745,1500,,,,0,-0.134765625,-1.005859375,0.07004642301125293,3.774665267182511,22.947781370727725,1.7563533501110407,4061,0,40.30441268809337,29.78836127927645,73.90843655210104,0.12671611008721445,0.0936538958250994,0.34375,,
3.7067200000006704,1500,,,,-0.28125,0.259765625,-0.9453125,0.07004642301125293,3.774665267182511,22.947646894408678,1.7568055627209505,4052,0,40.31455371545331,29.725888384632672,73.73488143870533,0.12698242078894073,0.09363033741672334,0.345703125,,
3.715469999998808,1500,,,,0.375,-0.32421875,-0.9921875,0.07031452396818735,3.774665267182511,22.947230694290894,1.7543942994364061,4053,0,40.25849071791607,29.846104629089346,74.13617375329736,0.12647095204188066,0.09376072475321802,0.345703125,,
3.7236699999999257,1500,,,,-0.041015625,0.03515625,-0.990234375,0.07031452396818735,3.774665267182511,22.947369522033977,1.7518584383701468,4057,0,40.20054293557315,29.873695348599327,74.31167135348396,0.1263541461187021,0.09389587780523083,0.34765625,,
3.7314149999991058,1500,,,,-0.125,0.34375,-0.87890625,0.07031452396818735,3.774665267182511,22.947269851100966,1.752481664986707,4058,0,40.214669675556685,29.879689154999912,74.30047143508283,0.1263287997275192,0.09386289375582839,0.34765625,,
3.7397599999997766,1500,,,,0,-0.109375,-0.955078125,0.07031452396818735,3.774665267182511,22.94720656538304,1.7520031549570307,4053,0,40.20357830000178,29.840683067543566,74.22394803982472,0.12649392973474033,0.09388878867984603,0.349609375,,
3.74764999999851,1500,,,,-0.125,0.40625,-0.87890625,0.07031452396818735,3.774665267182511,22.947244805181427,1.7523986960792917,4057,0,40.21272187521223,29.87315194366172,74.28781378282183,0.12635644455266104,0.09386744023187535,0.349609375,,
3.7589449999984352,1500,,,,0.03125,-0.130859375,-0.990234375,0.07031452396818735,3.774665267182511,22.947213118181004,1.7516369699672534,4055,0,40.19518685552338,29.861748544277578,74.29185153837432,0.12640469668363918,0.09390838959774159,0.349609375,,
3.7675649999994785,1500,,,,-0.25,0.22265625,-0.9296875,0.07031452396818735,3.774665267182511,22.947400023662034,1.750395608739119,4055,0,40.16702823339798,29.857291865166026,74.33283759922364,0.12642356460956683,0.09397422296837887,0.3515625,,
3.7748300000000743,1500,,,,0.125,0.0546875,-0.96484375,0.07031452396818735,3.8180638093954538,22.94733316956263,1.7500368417051562,4058,0,40.158678465617356,29.879773732143367,74.40427542386765,0.1277808809270917,0.09507443858403769,0.3515625,,
3.783344999998808,1500,,,,-0.375,0.09765625,-0.98046875,0.07031452396818735,3.8180638093954538,22.947366423156932,1.7496815552974418,4053,0,40.150583773249515,29.840789572389777,74.32218106943522,0.12794781452190937,0.09509360638335859,0.353515625,,
3.7927899999991057,1500,,,,0.125,0.0234375,-1.0078125,0.07031452396818735,3.8180638093954538,22.947182398958432,1.7478865108130952,4057,0,40.109070576307126,29.875432111737116,74.48547593467515,0.1277994505691336,0.09519202899831906,0.353515625,,
3.804039999999106,1500,,,,0.03125,-0.1328125,-0.998046875,0.07031452396818735,3.8180638093954538,22.94723967885575,1.7487490165332151,4053,0,40.12896282055096,29.846455210599153,74.3763434506563,0.12792352667862456,0.09514484155668573,0.35546875,,
3.8158549999985842,1500,,,,-0.01953125,0.0546875,-0.98046875,0.07031452396818735,3.8180638093954538,22.947180573297537,1.748702990978371,4057,0,40.12780330304617,29.87464866628233,74.4487517561533,0.1278028020361179,0.09514759082527745,0.35546875,,
3.8233149999994787,1500,,,,-0.21875,0.23828125,-0.939453125,0.07031452396818735,3.8180638093954538,22.94761000531591,1.7490538072831212,4051,0,40.136604647846035,29.832385527006995,74.327128038739,0.12798385854657832,0.0951267264108339,0.35546875,,
3.8329799999985843,1500,,,,0.375,-0.39453125,-1.0703125,0.07031452396818735,3.8180638093954538,22.947629492916366,1.7483195066484503,4057,0,40.11978827380697,29.870425505431196,74.4530985596769,0.12782087113895427,0.09516659916892323,0.357421875,,
3.8416399999987334,1500,,,,-0.25,0.255859375,-0.98046875,0.07031452396818735,3.8180638093954538,22.947571704318392,1.7498200849943812,4055,0,40.15412187006507,29.86036180053194,74.36437508746235,0.12786395003852358,0.09508522740829314,0.357421875,,
3.849329999998212,1500,,,,0.1875,0.001953125,-1.001953125,0.07031452396818735,3.8180638093954538,22.947396229777635,1.7517186084672054,4054,0,40.19738099157168,29.850484332741253,74.25977413553412,0.12790625997339825,0.09498289976145462,0.359375,,
3.8572499999981376,1500,,,,-0.375,0.13671875,-1.00390625,0.07031452396818735,3.8180638093954538,22.947425988963133,1.7521367180721323,4056,0,40.20702766050502,29.86367810105358,74.2747719458715,0.12784975100775528,0.09496011099437479,0.359375,,
3.8647249999996274,1500,,,,0.15625,0.03125,-1.048828125,0.0705316997629715,3.8180638093954538,22.947364042777338,1.7531490924314082,4054,0,40.23015044528822,29.94155093788384,74.42564993288663,0.12751723574093857,0.09490553147664472,0.361328125,,
3.87275,1500,,,,-0.03125,-0.080078125,-1.060546875,0.0705316997629715,3.8180638093954538,22.94729793053874,1.753914539153547,4057,0,40.24759947465999,29.96224838909487,74.44480858531499,0.1274291488346744,0.09486438593186951,0.36328125,,
3.8808799999989567,1500,,,,-0.0625,0.36328125,-0.9296875,0.0705316997629715,3.8180638093954538,22.94739917671219,1.7537979536050798,4055,0,40.24510171667673,29.953334282474252,74.42727935773166,0.12746707172528068,0.09487027356209485,0.36328125,,
3.888754999998957,1500,,,,0,-0.09765625,-1.06640625,0.0705316997629715,3.8180638093954538,22.947526610619917,1.752305939782904,4051,0,40.21108718311553,29.919012525440177,74.40488338251906,0.12761329626600976,0.09495052426731311,0.36328125,,
3.896609999999404,1500,,,,-0.0625,0.34375,-0.9921875,0.0705316997629715,3.8180638093954538,22.94748476311503,1.7514232073547367,4056,0,40.190757364538875,29.960217492337573,74.54504333071385,0.12743778680418247,0.09499855339288056,0.36328125,,
3.904839999999851,1500,,,,0,-0.1015625,-0.9921875,0.0705316997629715,3.8180638093954538,22.947213876235814,1.7490718365254379,4059,0,40.13632551764979,29.98126098186382,74.69856942604196,0.12734833974144938,0.09512738797467833,0.365234375,,
3.9150649999994784,1500,,,,-0.25,0.2578125,-0.986328125,0.0705316997629715,3.8180638093954538,22.947252496915734,1.7481328625577235,4061,0,40.11484619526817,29.991756389877867,74.76472985559049,0.1273037750694734,0.09517832352666035,0.3671875,,
3.9240799999982117,1500,,,,0.15625,0.001953125,-1.044921875,0.0705316997629715,3.8180638093954538,22.947394750515016,1.7459958261760624,4055,0,40.06605545601371,29.95058325398452,74.75301202751442,0.12747877986274317,0.095294227643325,0.3671875,,
3.932864999998361,1500,,,,-0.03125,-0.07421875,-1.03515625,0.0705316997629715,3.8377143218138854,22.947355765719056,1.7472271153264545,4057,0,40.09424221890719,29.966642483921046,74.74051341414233,0.12806620974882507,0.09571734267630426,0.369140625,,
3.940254999998957,1500,,,,0,0.3125,-0.98046875,0.0705316997629715,3.8377143218138854,22.94748279753415,1.7463933707122024,4052,0,40.07533183214594,29.93147669406287,74.68803207776236,0.12821667173457982,0.09576250891416223,0.369140625,,
3.9479599999990316,1500,,,,-0.03125,-0.0546875,-1.044921875,0.0705316997629715,3.8377143218138854,22.947508191899285,1.7453762540537894,4055,0,40.05203588784582,29.951439463459717,74.78131585453008,0.12813121474498199,0.09581820840669118,0.369140625,,
3.9564399999994784,1500,,,,-0.25,0.271484375,-0.962890625,0.0705316997629715,3.8377143218138854,22.947532800662216,1.7452522252855207,4054,0,40.049232685168214,29.94560469020998,74.77198109041426,0.12815618056524125,0.09582491509843934,0.369140625,,
3.9647099999990316,1500,,,,0.375,-0.33984375,-1.10546875,0.0705316997629715,3.8377143218138854,22.947424705236543,1.7459895104902479,4053,0,40.06596282810777,29.93647865094914,74.71798139329272,0.1281952485648211,0.09578490196974837,0.37109375,,
3.9737050000000744,1500,,,,-0.21875,0.203125,-1.01171875,0.0705316997629715,3.8377143218138854,22.947382855551112,1.744615918088547,4058,0,40.034369408266684,29.969178544152868,74.85862519409271,0.12805537249410667,0.09586049133626261,0.37109375,,
3.9832699999976904,1500,,,,0.1875,-0.03515625,-1.025390625,0.0705316997629715,3.8377143218138854,22.947510385324065,1.7432631428651193,4053,0,40.00354907524999,29.932225592218927,74.82392508703147,0.12821346377970383,0.09593434609001382,0.37109375,,
3.9919799999985845,1500,,,,-0.03125,-0.052734375,-1.048828125,0.0705316997629715,3.8377143218138854,22.947602293869767,1.741434879798116,4055,0,39.96175504228007,29.95155899559963,74.95055951349104,0.12813070339269175,0.09603467910139413,0.373046875,,
4.000714999999851,1500,,,,-0.1875,0.19140625,-1.005859375,0.0705316997629715,3.8377143218138854,22.947515041439388,1.7425783367129843,4053,0,39.98784259260764,29.935765893549682,74.86216798073463,0.12819830083722045,0.09597202732120749,0.37109375,,
4.009804999999702,1500,,,,0.3125,-0.33203125,-1.09765625,0.0705316997629715,3.8377143218138854,22.947541860982135,1.742357039365011,4054,0,39.982811097605484,29.943371536749442,74.8906110269538,0.1281657383539414,0.0959841045804736,0.373046875,,
4.018184999998659,1500,,,,-0.21875,0.220703125,-0.984375,0.07113540582714488,3.8377143218138854,22.947564461931965,1.7398256899787334,4058,0,39.924762173312246,30.228814093800008,75.71445000117369,0.1269555037754858,0.09612366142982837,0.37109375,,
4.039289999999106,1500,,,,-0.09375,-0.0390625,-1.056640625,0.07113540582714488,3.8377143218138854,22.94766798356273,1.7353279148081022,4053,0,39.82172883162456,30.190971929234525,75.8153219738121,0.12711463316945254,0.09637236841325059,0.375,,
4.047639999998734,1500,,,,-0.21875,0.240234375,-1.001953125,0.07113540582714488,3.8377143218138854,22.947474555521726,1.7326365195545788,4050,0,39.75963244644642,30.166811260184883,75.87296311357397,0.12721643957374515,0.09652288227218979,0.373046875,,
4.066654999999329,1500,,,,-0.03125,-0.033203125,-1.05859375,0.07113540582714488,3.8377143218138854,22.947732480162365,1.7335761153474534,4053,0,39.78164092899245,30.1945780001322,75.90078562628295,0.1270994521532006,0.09646948271098085,0.375,,
4.084579999998212,1500,,,,0.375,-0.4296875,-1.08203125,0.07113540582714488,3.8470195583949027,22.947634258489913,1.7355531954476104,4054,0,39.826839965285224,30.19779778813109,75.8227311392337,0.12739404328043188,0.09659364292392088,0.376953125,,
4.100804999999702,1500,,,,0.1875,-0.091796875,-1.021484375,0.07113540582714488,3.8470195583949027,22.947541142327808,1.7411971061271343,4058,0,39.956192229754535,30.22702556220715,75.65041580638338,0.12727086065672408,0.09628093528717455,0.37890625,,
4.1169299999997016,1500,,,,0.0625,0.20703125,-0.99609375,0.07113540582714488,3.8470195583949027,22.94758587901452,1.7512391804633056,4056,0,40.186711488376716,30.2122481829853,75.17969762647448,0.12733311123008176,0.0957286480011579,0.37890625,,
4.125294999999926,1500,,,,-0.0625,-0.05859375,-1.029296875,0.07113540582714488,3.8470195583949027,22.947606909660607,1.7501642652549494,4057,0,40.162081586405556,30.224670466480898,75.25673289979977,0.12728077755756642,0.09578735479928607,0.380859375,,
4.150550000000745,1500,,,,0.1875,-0.08984375,-1.041015625,0.07113540582714488,3.8470195583949027,22.947590902860284,1.7460581328251679,4062,0,40.06782772468404,30.257463554539573,75.51560759032434,0.12714283044448146,0.09601268091768604,0.3828125,,
4.167224999999627,1500,,,,-0.0625,-0.0859375,-1.052734375,0.07137938715815627,3.8470195583949027,22.947688032562596,1.7428168741021637,4058,0,39.99361792478237,30.335928590014344,75.85192379211195,0.1268139706678115,0.09619083638869956,0.384765625,,
4.175919999999926,1500,,,,0,0.2265625,-0.88671875,0.07137938715815627,3.8470195583949027,22.9475036513205,1.741085443596448,4054,0,39.95356457419046,30.301007649760205,75.84056134339089,0.12696011970497448,0.09628726746649366,0.3828125,,
4.184239999998361,1500,,,,-0.03125,-0.083984375,-1.03125,0.07137938715815627,3.8470195583949027,22.947527980847315,1.7408554091608734,4058,0,39.94832821232855,30.329194784247825,75.92106138471112,0.12684212639871803,0.0962998886448436,0.384765625,,
4.193084999999032,1500,,,,-0.21875,0.21875,-0.955078125,0.07137938715815627,3.8470195583949027,22.947844121577017,1.7371861144895462,4059,0,39.86467616547415,30.340991626156164,76.1099663777873,0.12679280907478613,0.09650196435627174,0.384765625,,
4.201154999999329,1500,,,,0.3125,-0.31640625,-1.09765625,0.07137938715815627,3.8470195583949027,22.947786366559978,1.7355460316567777,4055,0,39.826939563790674,30.312585454015355,76.11075765805151,0.12691162765481978,0.09659340136424856,0.384765625,,
4.209119999999181,1500,,,,-0.25,0.263671875,-1.00390625,0.07137938715815627,3.8470195583949027,22.947796947921642,1.7365459011161095,4055,0,39.849902729558096,30.309517928668406,76.05920178617338,0.12692447195790538,0.09653774024249828,0.384765625,,
4.2197549999989565,1500,,,,0.21875,-0.103515625,-1.033203125,0.07137938715815627,3.8470195583949027,22.947676353081473,1.7379187269429701,4058,0,39.88119647384665,30.332593657362633,76.0573812705298,0.12682791329521256,0.09646198957239678,0.38671875,,
4.237439999999478,1500,,,,-0.21875,0.25,-1.021484375,0.07137938715815627,3.8511053490479923,22.947904836602564,1.734352039792849,4055,0,39.79974556233384,30.3124257413999,76.16236062093658,0.1270470856375,0.09676205952162287,0.38671875,,
4.2458349999990315,1500,,,,0.375,-0.41796875,-1.1484375,0.07137938715815627,3.8511053490479923,22.94783868627273,1.732951592349341,4051,0,39.76749359235213,30.28389425896909,76.1523835758991,0.12716678099968673,0.09684053484800502,0.388671875,,
4.254105000000447,1500,,,,-0.21875,0.177734375,-0.96875,0.07137938715815627,3.8511053490479923,22.94784671321516,1.7337611430840396,4049,0,39.786084948821234,30.269255927456197,76.08000627956484,0.1272282793563745,0.09679528292371205,0.388671875,,
4.263244999999181,1500,,,,0.21875,-0.142578125,-1.0078125,0.07137938715815627,3.8511053490479923,22.94800105097576,1.7387683564871343,4054,0,39.90125807207015,30.299874220727993,75.93714004205077,0.1270997140448019,0.09651588784724727,0.388671875,,
4.272134999999777,1500,,,,-0.09375,-0.083984375,-1.046875,0.07137938715815627,3.8511053490479923,22.947926233751748,1.7372929304236686,4055,0,39.867270013780754,30.313508002118365,76.03607669057855,0.1270425497695242,0.09659817057242186,0.390625,,
4.28102999999933,1500,,,,-0.25,0.19140625,-0.978515625,0.07137938715815627,3.8511053490479923,22.94764059253516,1.742311439790514,4051,0,39.98193672057518,30.284093590916374,75.74443880136457,0.12716594397935424,0.09632113061361952,0.388671875,,
4.289049999998882,1500,,,,0.3125,-0.3203125,-1.1171875,0.07137938715815627,3.8511053490479923,22.947658184475245,1.747438977341257,4057,0,40.09963235025615,30.322549067818443,75.61802263662088,0.12700467036708338,0.09603842038774683,0.390625,,
4.297759999999776,1500,,,,-0.25,0.2109375,-0.947265625,0.07137938715815627,3.8511053490479923,22.947243188456508,1.752837520843679,4059,0,40.22278886065111,30.343442661182493,75.43843557517883,0.12691721872332576,0.09574436428040492,0.388671875,,
4.306015000000596,1500,,,,0.3125,-0.39453125,-1.06640625,0.07137938715815627,3.8511053490479923,22.94721463294635,1.7512644970685851,4057,0,40.18664229329166,30.32853946028549,75.46920501329922,0.1269795848260654,0.09583048319741944,0.390625,,
4.314909999998286,1500,,,,-0.1875,0.16015625,-0.939453125,0.07147951412419638,3.8511053490479923,22.947476328047795,1.7476053247187373,4055,0,40.10313181975351,30.356386279815325,75.6957995606287,0.12686310266148784,0.09603003990703445,0.388671875,,
4.32300500000082,1500,,,,0.21875,-0.146484375,-1.017578125,0.07147951412419638,3.8511053490479923,22.947634207155502,1.746727451880207,4059,0,40.08326262534381,30.38398012691407,75.80216313954173,0.12674788928119035,0.09607764180885364,0.390625,,
4.330469999998808,1500,,,,-0.0625,-0.10546875,-1.064453125,0.07147951412419638,3.8511053490479923,22.947459460856628,1.7440382992968244,4061,0,40.02124817129522,30.401544123857153,75.96350816879898,0.12667466275260328,0.09622651778787233,0.390625,,
4.337429999999702,1500,,,,0.0625,0.125,-0.87890625,0.07147951412419638,3.8511053490479923,22.947367357517358,1.7438004380860903,4060,0,40.01562925096122,30.388645051568,75.9419397380538,0.12672843236389317,0.09624002973676804,0.390625,,
