Time (s),ESC signal (µs),Servo 1 (µs),Servo 2 (µs),Servo 3 (µs),AccX (g),AccY (g),AccZ (g),Torque (N·m),Thrust (N),Voltage (V),Current (A),Motor Electrical Speed (RPM),Motor Optical Speed (RPM),Electrical Power (W),Mechanical Power (W),Motor Efficiency (%),Propeller Mech. Efficiency (N/W),Overall Efficiency (N/W),Vibration (g),App message,90% settling time (s),Max acceleration (RPM/s),
0,1000,,,,-0.0625,0.05078125,-0.95703125,0.00004491114125509022,0.016550085017115312,23.013675260839644,0.07993837783576428,0,0,1.8396758683905805,0,0,0,0,0.05859375,,
0,1200,,,,-0.0625,0.05078125,-0.95703125,0.00004491114125509022,0.016550085017115312,23.013818651607224,0.08132211942550996,0,0,1.8715325088230312,0,0,0,0,0.05859375,,
0.016724999999627472,1200,,,,-0.0625,0.048828125,-0.955078125,0.00004491114125509022,0.016550085017115312,23.01414929353739,0.08156662806365934,0,0,1.8771865556274927,0,0,0,0,0.05859375,,
0.024324999999254943,1200,,,,-0.0625,0.05078125,-0.953125,0.00004491114125509022,0.016550085017115312,23.014044257617176,0.08178275566314555,0,0,1.8821519583415234,0,0,0,0,0.05859375,,
0.03231000000052154,1200,,,,-0.0625,0.05078125,-0.955078125,0.00004491114125509022,0.016550085017115312,23.01374807539228,0.08151034111088358,0,0,1.8758584558651652,0,0,0,0,0.05859375,,
0.04089000000059605,1200,,,,-0.0625,0.048828125,-0.95703125,0.00004491114125509022,0.016550085017115312,23.013661717701776,0.08221435014277745,0,0,1.8920532425265668,0,0,0,0,0.05859375,,
0.04887000000104308,1200,,,,0,0.046875,-1.01953125,0.00004491114125509022,0.016550085017115312,23.012607248308697,0.13041693931275877,0,0,3.001233802931028,0,0,0,0,0.05859375,,
0.0566849999986589,1200,,,,-0.1875,0.009765625,-1.03515625,0.00004491114125509022,0.016550085017115312,23.01140341964723,0.17015183734892694,0,0,3.915432571830357,0,0,0,0,0.060546875,,
0.06543500000052153,1200,,,,0.125,0.02734375,-1.041015625,0.00004491114125509022,0.016550085017115312,23.009684855152518,0.21902377566265716,0,0,5.039668053783365,0,0,0,0,0.068359375,,
0.07264499999955297,1200,,,,0.3125,-0.1796875,-1.0625,0.00004491114125509022,0.016550085017115312,23.008574481109985,0.24803286577070208,0,0,5.7068826658483545,0,0,0,0,0.072265625,,
0.08073499999940395,1200,,,,-0.0625,0.0703125,-0.951171875,0.00004491114125509022,0.016550085017115312,23.007377406638156,0.2759769663212144,0,0,6.349506219691247,0,0,0,0,0.07421875,,
0.08918000000156462,1200,,,,-0.15625,0.111328125,-0.947265625,0.00004491114125509022,0.016550085017115312,23.00645348157053,0.29445969624640134,0,0,6.774473303890221,0,0,0,0,0.076171875,,
0.09792500000074505,1200,,,,0.1875,-0.109375,-1.16015625,0.00004491114125509022,0.016550085017115312,23.00594020286305,0.3056948733583838,0,0,7.032797976804771,0,0,0,0,0.078125,,
0.10686500000022352,1200,,,,-0.09375,0.009765625,-1.02734375,-0.00002696140365732599,0.019812804400029027,23.004959485146955,0.3285634456648878,0,0,7.558588755821027,0,0,0,0,0.080078125,,
0.11471499999985099,1200,,,,-0.15625,-0.03125,-1.08203125,-0.00002696140365732599,0.019812804400029027,23.004324717047925,0.36706760943331346,1,0,8.444142480514467,0.0000028227834225964087,0.00003342889380550135,0,0.0023463370550353283,0.08203125,,
0.12563000000081956,1200,,,,-0.09375,0.201171875,-0.73828125,-0.00002696140365732599,0.019812804400029027,23.0034163386093,0.3844454871958355,2,0,8.843559601465294,0.000004644144139677259,0.00005251442121685671,0,0.0022403653384940416,0.087890625,,
0.13372499999962748,1200,,,,0.0625,0.0859375,-0.85546875,-0.00002696140365732599,0.019812804400029027,23.003208671945668,0.39262485546723763,2,0,9.031631480105375,0.000005317437569023055,0.00005887571454544129,0,0.002193712669042367,0.08984375,,
0.151875,1200,,,,-0.09375,0.134765625,-0.986328125,-0.00002696140365732599,0.019812804400029027,23.003299093118585,0.3926758380599641,2,0,9.032839749534352,0.000005604722723665651,0.00006204829133556342,0,0.0021934192291023858,0.09375,,
0.16038500000163913,1200,,,,-0.0625,0.0625,-0.953125,-0.00002696140365732599,0.019812804400029027,23.0033365782847,0.3881951383278519,2,0,8.929783425009365,0.000005630507254749773,0.0000630531221953333,0,0.0022187329140077377,0.09375,,
0.16872499999962748,1200,,,,-0.09375,0.044921875,-1.005859375,-0.00002696140365732599,0.019812804400029027,23.003270246232738,0.38223177386366225,2,0,8.792580790882742,0.0000056396933630381615,0.00006414150176346526,0,0.002253354830765211,0.09375,,
0.17642999999970196,1200,,,,0,0.09375,-0.9765625,-0.00002696140365732599,0.019812804400029027,23.003563221644537,0.37499444681361255,2,0,8.626208465042556,0.00000564322197943478,0.00006541949458216508,0,0.00229681493095371,0.09375,,
0.18410999999940394,1200,,,,-0.0625,0.0546875,-1.005859375,-0.00002696140365732599,0.019812804400029027,23.00368071525469,0.3681239055280288,190,0,8.468204786419355,0.0005366329127256987,0.0063370327744826,0,0.002339669965445717,0.09375,,
0.19088000000081956,1200,,,,-0.0625,0.046875,-0.96875,-0.00002696140365732599,0.019812804400029027,23.003865818933562,0.36147552152243745,437,0,8.315334393931183,0.0012324656199532529,0.014821600209520723,0,0.002382682819645725,0.09375,,
0.19871000000089406,1200,,,,-0.03125,0.041015625,-0.986328125,-0.00002696140365732599,0.019812804400029027,23.004137556907022,0.3546141934870281,547,0,8.157593686607237,0.0015432888356587701,0.018918432260146407,0,0.0024287559740266028,0.09375,,
0.20718500000052154,1200,,,,0,0.09375,-0.984375,-0.00002696140365732599,0.019812804400029027,23.004391284689348,0.34695855321437286,596,0,7.981570317713144,0.0016836440900777133,0.021094145926914616,0,0.002482319094033332,0.09375,,
0.21478999999910592,1200,,,,-0.03125,0.015625,-0.951171875,-0.00002696140365732599,0.019812804400029027,23.004766533323554,0.33778158807946146,616,0,7.7705865730232775,0.0017395391904478398,0.02238620178928195,0,0.002549717992823355,0.091796875,,
0.223035000000149,1200,,,,-0.03125,0.046875,-0.97265625,-0.00002696140365732599,0.019812804400029027,23.004926335645564,0.32892875985722075,624,0,7.566981890190613,0.001761519235417255,0.023279020103124392,0,0.0026183232215360756,0.091796875,,
0.23198499999940395,1200,,,,-0.0625,0.078125,-0.9921875,-0.00002696140365732599,0.019812804400029027,23.005100821373027,0.3192736712122868,627,0,7.3449229958485605,0.0017707466941852424,0.024108444638372518,0,0.0026974829295320674,0.091796875,,
0.24077500000037252,1200,,,,-0.03125,0.01953125,-0.947265625,-0.00002696140365732599,0.019812804400029027,23.005466979448098,0.3108673223476687,685,0,7.151647919258739,0.001934575432300463,0.02705076444116924,0,0.002770383081453848,0.091796875,,
0.2499050000011921,1200,,,,-0.03125,0.029296875,-0.982421875,-0.00002696140365732599,0.019812804400029027,23.00549631510772,0.30300108548605487,736,0,6.970690355623074,0.0020776847608959042,0.02980601138336162,0,0.0028423016070490857,0.08984375,,
0.2578250000011176,1200,,,,-0.0625,0.0390625,-0.962890625,0.004046831245222415,0.06245594476669699,23.005815325380116,0.2941141832031503,753,0,6.76633658334669,0.3191527218587851,4.716772775452583,0.19569297232668362,0.00923039284217897,0.08984375,,
0.26575,1200,,,,-0.0625,0.05078125,-0.9765625,0.004046831245222415,0.06245594476669699,23.005922076289696,0.2876106900174453,760,0,6.616749122849258,0.32202518647476597,4.866818742798242,0.19394739104231856,0.009439067978415759,0.08984375,,
0.27711500000022354,1200,,,,-0.03125,0.052734375,-0.97265625,0.004046831245222415,0.06245594476669699,23.00618306712357,0.2786061192123532,763,0,6.40966338222025,0.3232334131094514,5.0429077758758405,0.19322242761316424,0.009744028826840327,0.08984375,,
0.2874900000002235,1200,,,,-0.0625,0.037109375,-0.951171875,0.004046831245222415,0.06245594476669699,23.00586440760986,0.28650010047326896,764,0,6.591182464254627,0.3237283060021404,4.9115360977758895,0.19292704285884735,0.00947568135238385,0.087890625,,
0.2957100000008941,1200,,,,-0.08203125,-0.021484375,-0.974609375,0.004046831245222415,0.06245594476669699,23.004928701989247,0.32218507864423335,802,0,7.411844763055386,0.3399164947456665,4.586125392695659,0.18373908219260732,0.008426504704741112,0.08984375,,
0.3055949999988079,1200,,,,0,-0.16015625,-0.890625,0.004046831245222415,0.06245594476669699,23.003543652943645,0.34365732788695197,816,0,7.9053363437014665,0.34568559582058894,4.372813259185513,0.18067268501147404,0.007900479125908213,0.091796875,,
0.3139550000000745,1200,,,,-0.0625,0.056640625,-0.96484375,0.004046831245222415,0.06245594476669699,23.001025426735115,0.4234310979214183,822,0,9.739349449760908,0.34838592349153474,3.5770964507294405,0.17927229705713002,0.0064127429751717376,0.091796875,,
0.32264000000059606,1200,,,,0,-0.056640625,-0.80078125,0.004046831245222415,0.06245594476669699,22.999582979027675,0.4594552164828587,824,0,10.567278376644632,0.3491065038064609,3.303655788779464,0.1789022664594114,0.005910315082144005,0.091796875,,
0.3317949999999255,1200,,,,-0.15625,0.1171875,-0.853515625,0.004046831245222415,0.06245594476669699,22.998808570733107,0.4910465126141541,924,0,11.293484742939011,0.3914211204350271,3.4659020607412967,0.15956202030509542,0.005530263349914748,0.095703125,,
0.33920500000007453,1200,,,,-0.0625,0.0625,-1.0625,0.004046831245222415,0.06245594476669699,22.99807755597758,0.5134108701329329,1016,0,11.807463009399124,0.43066788294334524,3.647420979430718,0.14502113401131686,0.005289531266537107,0.095703125,,
0.3467199999988079,1200,,,,0,-0.05078125,-0.96484375,0.004046831245222415,0.06245594476669699,22.997637676867136,0.5281358614831224,1046,0,12.145877186548939,0.4433221231090961,3.649980287961887,0.14088163326630862,0.00514215184357902,0.09765625,,
0.3554400000013411,1200,,,,-0.125,0.02734375,-0.875,0.004046831245222415,0.06245594476669699,22.997359366434285,0.5386162034362152,1060,0,12.386750391007117,0.4491824305113563,3.6263137330793915,0.13904360572517532,0.005042157369380796,0.099609375,,
0.3626650000009686,1200,,,,0.0625,-0.109375,-1.04296875,0.004046831245222415,0.06245594476669699,22.997163504677605,0.5461053559505855,1172,0,12.558874161575778,0.49672130804169395,3.955142010749869,0.12573639132359216,0.004973052836040246,0.099609375,,
0.3710399999991059,1200,,,,-0.0625,0.056640625,-0.951171875,0.004046831245222415,0.06245594476669699,22.997040847934738,0.5503146087933255,1271,0,12.655607537635332,0.5384179545195746,4.254382517144465,0.11599900085506222,0.004935041212440026,0.099609375,,
0.37893500000052155,1200,,,,-0.09375,0.08203125,-0.953125,0.004046831245222415,0.06245594476669699,22.99718606679249,0.5513291007083873,1309,0,12.679017913028158,0.5548212400753806,4.375900750998082,0.11256949131617858,0.004925929215899381,0.099609375,,
0.3867949999999255,1200,,,,0,0.04296875,-0.9921875,0.004046831245222415,0.06245594476669699,22.99719342340072,0.5489837679688085,1325,0,12.62508589828603,0.5613141649518731,4.4460225417403025,0.11126735911261378,0.004946971867745941,0.099609375,,
0.3949550000000745,1200,,,,-0.0625,-0.00390625,-0.9765625,0.004046831245222415,0.06245594476669699,22.99733074023081,0.5473551599187283,1424,0,12.587707645022922,0.6033097587668438,4.792848513648056,0.10352218550940734,0.004961661529483612,0.099609375,,
0.40264499999955294,1200,,,,-0.0625,0.02734375,-0.984375,0.004046831245222415,0.06245594476669699,22.997723762895337,0.5415904605579898,1463,0,12.455347804531911,0.6199744810337591,4.97757662622781,0.10073954118652848,0.00501438785546978,0.099609375,,
0.4107450000010431,1200,,,,0.03125,0.05078125,-1.001953125,0.03053544273645736,0.09795961863749059,22.997835421624004,0.5353742656612377,1478,0,12.312449250649951,4.727480479637779,38.39593880468766,0.020721316367020997,0.007956143951807108,0.099609375,,
0.4189500000011176,1200,,,,-0.03125,0.09765625,-1.048828125,0.03053544273645736,0.09795961863749059,22.99834187497256,0.527743852024579,1513,0,12.137233531276197,4.837648265275372,39.85791533803261,0.020249429736478464,0.008071000560799986,0.099609375,,
0.429945000000298,1200,,,,-0.0625,-0.03125,-0.96875,0.03053544273645736,0.09795961863749059,22.99855014463941,0.519905903881172,1540,0,11.95708200090521,4.924093741445062,41.18139978526771,0.019893938617168285,0.00819260239497183,0.099609375,,
0.4381500000003725,1200,,,,-0.03125,0.01953125,-0.986328125,0.03053544273645736,0.09795961863749059,22.998784634025245,0.5090004146816107,1553,0,11.706390915891907,4.964821445057668,42.4112049625621,0.019730743536609252,0.008368046081948823,0.099609375,,
0.4513650000002235,1200,,,,-0.0625,0.091796875,-1.005859375,0.03053544273645736,0.09795961863749059,22.999102915919746,0.496837224890768,1578,0,11.426810467722737,5.045179683188576,44.15212536726389,0.019416477665584284,0.008572787560815566,0.099609375,,
0.4590800000000745,1200,,,,-0.01953125,0.048828125,-0.98046875,0.03053544273645736,0.09795961863749059,22.999447018815925,0.48858219770821487,1590,0,11.237120370526736,5.085656488195993,45.25764893944626,0.019261941671612836,0.008717501940659443,0.09765625,,
0.4679150000009686,1200,,,,0,-0.03125,-0.89453125,0.03053544273645736,0.09795961863749059,22.99970384402904,0.4781842683487836,1597,0,10.998096554895731,5.10574743803144,46.423919016774306,0.01918614655864366,0.008906961140824362,0.09765625,,
0.47624499999918046,1200,,,,-0.09375,0.046875,-1.013671875,0.03053544273645736,0.09795961863749059,23.000008005797426,0.46760223727808453,1612,0,10.754855200924732,5.155006476609265,47.931900339913675,0.019002811942522346,0.009108408882071024,0.099609375,,
0.4851300000008196,1200,,,,-0.0625,0.119140625,-0.98046875,0.03053544273645736,0.09795961863749059,23.000206486212544,0.4586720162470681,1617,0,10.549551083130002,5.172168237916298,49.02737753635049,0.018939758749409008,0.00928566702654673,0.099609375,,
0.4940750000011176,1200,,,,-0.0625,0.03125,-0.986328125,0.03053544273645736,0.09795961863749059,23.00056241677363,0.4487223325908847,1620,0,10.320866018556899,5.179227481308066,50.18210169568934,0.0189139440179117,0.009491414621734199,0.09765625,,
0.501804999999702,1200,,,,0,0.00390625,-0.96484375,0.03053544273645736,0.09795961863749059,23.000857479844026,0.4408887953388733,1630,0,10.140820346049546,5.212525851495008,51.40142191282974,0.018793119003792512,0.009659930389719575,0.09765625,,
0.5095049999989569,1200,,,,-0.03125,0.021484375,-0.974609375,0.03053544273645736,0.09795961863749059,23.00120740805911,0.4341877607212284,1634,0,9.986842738389715,5.225904615960645,52.32789534045745,0.018745007005736034,0.00980886764752297,0.09765625,,
0.5171000000014901,1200,,,,-0.0625,0.0546875,-1.03515625,0.03053544273645736,0.09795961863749059,23.00144463606876,0.4275975463246088,1636,0,9.835361288304336,5.230845379253439,53.18406946040375,0.01872730152300385,0.009959941050053616,0.09765625,,
0.524875,1200,,,,-0.0625,0.0625,-0.994140625,0.03053544273645736,0.09795961863749059,23.001766390803464,0.4188155423520675,1643,0,9.633497266019912,5.252644605304471,54.52479468522863,0.018649580544353683,0.010168645501465191,0.09765625,,
0.5331850000005215,1200,,,,-0.03125,0.015625,-0.986328125,0.03053544273645736,0.09795961863749059,23.00194246373356,0.4118738945140272,1645,0,9.473899623925519,5.261235409637247,55.533999920692104,0.018619128590606958,0.010339946856741231,0.09765625,,
0.554320000000298,1200,,,,-0.041015625,0.0703125,-0.974609375,0.03053544273645736,0.298061588226937,23.002858449661165,0.3946554121308823,1649,0,9.078202581639376,5.27201131090337,58.073294393826245,0.056536598775973335,0.03283266544742736,0.095703125,,
0.5618950000014156,1200,,,,0,0.07421875,-1.0625,0.0325423060588883,0.298061588226937,23.00299400640932,0.3891994045110058,1650,0,8.952751569264743,5.622209618362773,62.79867786864665,0.05301502584560955,0.0332927353027641,0.095703125,,
0.5690649999994785,1200,,,,-0.125,0.087890625,-0.970703125,0.0325423060588883,0.298061588226937,23.002951209872244,0.3829995156586462,1650,0,8.810119172100539,5.623827849239088,63.83373186424488,0.052999771013130345,0.033831731717185405,0.095703125,,
0.5788900000005961,1200,,,,-0.03125,0.03125,-0.91796875,0.0325423060588883,0.298061588226937,23.003200389681666,0.3774963193038757,1655,0,8.683623479314308,5.6404586598613875,64.95512700772673,0.05284350195632172,0.03432456381105933,0.095703125,,
0.5883250000011175,1200,,,,-0.0625,0.072265625,-1.009765625,0.0325423060588883,0.298061588226937,23.003321015799827,0.36876631212417804,1657,0,8.482849857605103,5.647975936808833,66.58111403145101,0.05277316893020352,0.03513696378342908,0.095703125,,
0.5969749999996274,1200,,,,-0.09375,0.083984375,-1.041015625,0.0325423060588883,0.298061588226937,23.003650050679223,0.36166732571554117,1658,0,8.319668595525327,5.650037499081863,67.91180963771436,0.05275391327497779,0.035826137159747834,0.09765625,,
0.605535000000149,1200,,,,-0.0625,0.08984375,-1,0.0325423060588883,0.298061588226937,23.00373247705793,0.3571515161505216,1660,0,8.215817931302233,5.656566627568258,68.8497076598638,0.05269302173058162,0.036278991418653955,0.095703125,,
0.6131199999991804,1200,,,,-0.03125,-0.015625,-0.923828125,0.0325423060588883,0.298061588226937,23.003941068957683,0.3524907350430945,1661,0,8.108676096284924,5.6591457453008,69.7912418513498,0.052669007239200226,0.03675835422301516,0.095703125,,
0.622484999999404,1200,,,,-0.09375,0.0859375,-1.013671875,0.0325423060588883,0.298061588226937,23.00409677836962,0.3453862811505729,1661,0,7.945299437508958,5.660249194479959,71.24022497828707,0.05265873956885422,0.03751420453958201,0.095703125,,
0.631300000000745,1200,,,,-0.0625,0.078125,-0.94140625,0.0325423060588883,0.298061588226937,23.00423299503586,0.34078670636048447,1661,0,7.8395367947274535,5.660248867101567,72.20131769658144,0.052658742614538935,0.038020306050148375,0.095703125,,
0.6382050000000745,1200,,,,0,0.060546875,-0.970703125,0.0325423060588883,0.298061588226937,23.004414427997776,0.3361985862629843,1661,0,7.734051608500652,5.6600737135078,73.1838110219836,0.05266037216363653,0.03853886724770902,0.095703125,,
0.6467649999987334,1200,,,,-0.0625,0.013671875,-0.94921875,0.0325423060588883,0.298061588226937,23.004492735256758,0.33332743632135664,1661,0,7.6680285873164085,5.660002361066073,73.81300547611693,0.052661036023100974,0.03887069340351144,0.095703125,,
0.6539399999994785,1200,,,,-0.0625,0.0234375,-0.984375,0.0325423060588883,0.298061588226937,23.00458795766583,0.3303375486494789,1661,0,7.599279193626653,5.6609747087521045,74.4935745155914,0.05265199078987604,0.03922234999299864,0.095703125,,
0.6634850000012666,1200,,,,-0.03125,0.08984375,-1.0078125,0.0325423060588883,0.298061588226937,23.00475301431384,0.32717727438765215,1661,0,7.526632389184328,5.661418026504274,75.21847399694526,0.052647867871890665,0.03960092280516418,0.095703125,,
0.6729900000002235,1200,,,,-0.0625,0.0546875,-0.9921875,0.0325423060588883,0.298061588226937,23.004829953762574,0.3223424481047442,1661,0,7.415433205529178,5.661617143372315,76.34910849376725,0.05264601626689969,0.0401947640772616,0.095703125,,
0.6821150000002235,1200,,,,-0.0625,0.033203125,-0.986328125,0.0325423060588883,0.298061588226937,23.004779787567003,0.3187313171200075,1661,0,7.332343761746958,5.661681119024734,77.21516206812183,0.052645421379415365,0.04065024743956123,0.095703125,,
0.6910399999991059,1200,,,,-0.03125,0.0625,-0.96484375,0.0325423060588883,0.298061588226937,23.004956478093845,0.3156053960651179,1661,0,7.260488400729607,5.6617011538717605,77.9796184689561,0.05264523508506048,0.04105255346141518,0.095703125,,
0.6985299999993294,1200,,,,0,0.0703125,-1.05078125,0.0325423060588883,0.298061588226937,23.004910190814066,0.312443325954109,1661,0,7.1877306532935235,5.661707911056991,78.76906055825441,0.05264517225355971,0.0414681076134038,0.095703125,,
0.7069850000012666,1200,,,,-0.03125,0.05859375,-1.025390625,0.023676103011439784,0.43794166135196605,23.005261755919385,0.308964581902907,1662,0,7.107811079984568,4.120725535149148,57.974606932829374,0.10627780414307911,0.06161413920879237,0.095703125,,
0.7151000000014901,1200,,,,-0.09375,0.025390625,-0.912109375,0.023676103011439784,0.43794166135196605,23.005395621569985,0.30458792019922626,1663,0,7.007165605734388,4.122877885853709,58.83802549892226,0.10622232175602819,0.062499116760359116,0.095703125,,
0.7231700000017881,1200,,,,-0.03125,0.029296875,-0.990234375,0.023676103011439784,0.43794166135196605,23.005589057706786,0.30115337039023315,1663,0,6.928210682541066,4.123731478249087,59.52087295267733,0.10620033425113161,0.0632113660249347,0.09375,,
0.7321700000017881,1200,,,,0,0.03125,-1.0546875,0.023676103011439784,0.43794166135196605,23.005705416920936,0.29815258013946333,1664,0,6.859210427983405,4.125602936844017,60.146907288525,0.10615215958881889,0.06384724101265399,0.09375,,
0.7409800000004471,1200,,,,-0.0625,0.103515625,-1.00390625,0.023676103011439784,0.43794166135196605,23.00568327263703,0.29617283322338145,1664,0,6.813658395096663,4.12643375254468,60.561206818266676,0.10613078692512562,0.06427408536757927,0.095703125,,
0.7486449999995529,1200,,,,-0.0625,0.12109375,-0.92578125,0.023676103011439784,0.43794166135196605,23.005665405946885,0.2926857214704574,1664,0,6.733429777247507,4.1266908868618755,61.286610588946914,0.10612417391044206,0.06503990920522942,0.09375,,
0.756375,1200,,,,-0.03125,0.00390625,-0.943359375,0.023676103011439784,0.43794166135196605,23.005765972900647,0.2900915417777734,1665,0,6.673778120857386,4.128708907562304,61.86464147884925,0.10607230278448912,0.06562124982598362,0.09375,,
0.7642100000008941,1200,,,,-0.0625,0.056640625,-1.005859375,0.023676103011439784,0.43794166135196605,23.005941826538688,0.287788059044813,1666,0,6.62083534475745,4.130696584922407,62.3893567779661,0.10602126114769879,0.06614598287793695,0.09375,,
0.7732900000009686,1200,,,,-0.125,0.08984375,-0.9921875,0.023676103011439784,0.43794166135196605,23.00612680245781,0.28442090375389606,1666,0,6.543423377031782,4.131518774224982,63.14001916377777,0.10600016247877708,0.06692852290273543,0.095703125,,
0.7802949999999255,1200,,,,-0.03125,0.107421875,-0.986328125,0.023676103011439784,0.43794166135196605,23.00602295801855,0.28299501716727504,1666,0,6.510589861955184,4.129472225262765,63.427006044313316,0.10605269571079368,0.06726604971864232,0.095703125,,
0.7886050000004471,1200,,,,0,-0.04296875,-0.9453125,0.023676103011439784,0.43794166135196605,23.006021982519325,0.2810816315055232,1665,0,6.4665701932984625,4.127624143704529,63.830191590313724,0.10610017920839925,0.06772394766638744,0.095703125,,
0.7963350000008941,1200,,,,-0.09375,0.0390625,-0.96875,0.023676103011439784,0.43794166135196605,23.006316640468736,0.2798089913294485,1664,0,6.437374253375463,4.126764371662404,64.10632983624524,0.10612228416994594,0.06803110151974301,0.09375,,
0.804210000000894,1200,,,,-0.03125,0.068359375,-0.958984375,0.023676103011439784,0.43794166135196605,23.00646473466298,0.2776977114052086,1664,0,6.3888426043405495,4.12642708344916,64.5880222600207,0.1061309584527793,0.0685478870702544,0.09375,,
0.812929999999702,1200,,,,-0.0625,0.0390625,-0.9609375,0.023676103011439784,0.43794166135196605,23.006695383273836,0.27735946280820417,1666,0,6.3811246724968225,4.129988459544499,64.72195218728592,0.10603943949041134,0.06863079532665001,0.09375,,
0.8215950000006705,1200,,,,-0.0625,0.068359375,-1.0546875,0.023676103011439784,0.43794166135196605,23.006759508508917,0.2773930889828628,1666,0,6.381916087551139,4.131197855978032,64.73287644813345,0.10600839674581175,0.06862228449011346,0.09375,,
0.8301850000005215,1200,,,,-0.03125,0.01171875,-0.94140625,0.023676103011439784,0.43794166135196605,23.00668141332279,0.2760020147051043,1666,0,6.349890421755568,4.131701339686259,65.0672856578832,0.10599547870157071,0.06896838091119176,0.09375,,
0.8381850000005215,1200,,,,0,0,-0.96484375,0.023676103011439784,0.43794166135196605,23.006614851658973,0.274814986296755,1666,0,6.322562545193381,4.1314825185018815,65.34506363472465,0.10600109268059259,0.06926648146563669,0.09375,,
0.846375,1200,,,,-0.03125,0.072265625,-0.998046875,0.023676103011439784,0.43794166135196605,23.00668309676325,0.2744398454846331,1666,0,6.313950554189627,4.131396941140067,65.43283647349242,0.10600328837710646,0.06936095834031666,0.09375,,
0.8542099999990315,1200,,,,-0.0625,0.06640625,-1.0234375,0.023676103011439784,0.5385976377758325,23.006746880413367,0.27209560445292924,1666,0,6.260034698921619,4.131363587726825,65.99585763380051,0.13036800715770014,0.08603748440381866,0.09375,,
0.8622150000017136,1200,,,,-0.0625,-0.015625,-0.9453125,0.01861413563094336,0.5385976377758325,23.006709920250334,0.26997219543796647,1667,0,6.211171986974425,3.249295027305269,52.31371847566662,0.16575830549388632,0.0867143332861071,0.09375,,
0.8701949999984354,1200,,,,-0.03125,0.029296875,-0.931640625,0.01861413563094336,0.5385976377758325,23.006773601531183,0.2684430852351951,1667,0,6.176009286902672,3.2497715479045906,52.61927884072827,0.16573400001705135,0.08720803560286489,0.091796875,,
0.87825,1200,,,,-0.0625,0.052734375,-1.03515625,0.01861413563094336,0.5385976377758325,23.006833189427574,0.26711850533100306,1667,0,6.145550893959608,3.249957029628536,52.88308706096441,0.16572454123720928,0.08764025342385724,0.091796875,,
0.890480000000447,1200,,,,0,0.0234375,-1.015625,0.01861413563094336,0.5385976377758325,23.006825146748913,0.2656430309925274,1667,0,6.11160276549748,3.24982759770409,53.174719012346614,0.1657311416015841,0.08812706886259664,0.091796875,,
0.8978500000014901,1200,,,,-0.041015625,0.015625,-0.91015625,0.01861413563094336,0.5385976377758325,23.006984600454388,0.2670296326006526,1667,0,6.1435466451082075,3.2496438226492685,52.895241305554244,0.16574051409016924,0.08766884486906114,0.091796875,,
0.9068600000012667,1200,,,,-0.0625,0.0390625,-0.998046875,0.01861413563094336,0.5385976377758325,23.00703379560706,0.2672475737744401,1667,0,6.148573961622534,3.24960178475477,52.85130836902609,0.16574265816279934,0.08759716336464188,0.091796875,,
0.9138999999985099,1200,,,,-0.0625,0.06640625,-1.03125,0.01861413563094336,0.5385976377758325,23.0071458518995,0.2657639977480448,1668,0,6.114471058373158,3.2520291978901583,53.185781187676554,0.16561894282045872,0.08808572853383234,0.091796875,,
0.921234999999404,1200,,,,0,0.04296875,-0.962890625,0.01861413563094336,0.5385976377758325,23.007007840893127,0.26530284717579644,1669,0,6.1038246851848195,3.252937291345138,53.29342599306064,0.1655727084591644,0.08823936884739082,0.091796875,,
0.9304150000009686,1200,,,,0,-0.05859375,-0.87890625,0.01861413563094336,0.5385976377758325,23.00695274214132,0.2627961671758752,1669,0,6.04613899903123,3.253376524971069,53.80915862986868,0.16555035472896026,0.08908125298841651,0.091796875,,
0.937949999999255,1200,,,,-0.03125,-0.01171875,-0.953125,0.01861413563094336,0.5385976377758325,23.00713316414819,0.2627989427383737,1668,0,6.046250270979118,3.2516953444382533,53.78036301351582,0.1656359470136271,0.08907961358480336,0.091796875,,
0.946,1200,,,,-0.0625,0.0625,-1.01171875,0.01861413563094336,0.5385976377758325,23.007175845046994,0.2624282048191468,1668,0,6.03773185497412,3.251022477788232,53.845095407970334,0.16567022881436874,0.08920529276769962,0.091796875,,
0.9539049999993294,1200,,,,-0.125,0.109375,-1.01171875,0.01861413563094336,0.5385976377758325,23.007019223682953,0.26073389058882795,1668,0,5.998709633042813,3.250756969353587,54.1909371883476,0.16568376007602087,0.089785582354089,0.091796875,,
0.9621399999987335,1200,,,,0,0.0546875,-0.978515625,0.01861413563094336,0.5385976377758325,23.007263694881225,0.25934781545208513,1668,0,5.966883578797514,3.251675398284302,54.495371919751804,0.16563696304373293,0.0902644790472641,0.091796875,,
0.9706999999992549,1200,,,,-0.0625,0,-0.931640625,0.01861413563094336,0.5385976377758325,23.00723464481358,0.2586720206040913,1669,0,5.951327874086381,3.252545833991093,54.65243896498322,0.16559263581996533,0.09050041422201349,0.091796875,,
0.9775800000000745,1200,,,,-0.0625,0.03125,-0.953125,0.01861413563094336,0.5385976377758325,23.007142551645856,0.2563499491556971,1669,0,5.89787982333229,3.252889620380298,55.1535419136842,0.16557513492046022,0.09132055143699518,0.091796875,,
0.985300000000745,1200,,,,-0.03125,0.095703125,-0.986328125,0.01861413563094336,0.5385976377758325,23.0070926297257,0.25587532271860414,1668,0,5.886947251447882,3.2521560047601183,55.24350509443171,0.16561248506759746,0.09149014162533314,0.091796875,,
0.9924599999990315,1200,,,,0,0.046875,-1.0390625,0.01861413563094336,0.5385976377758325,23.007231843357822,0.2563133150978936,1668,0,5.897059864996866,3.250914729318312,55.12772133474076,0.1656757197961854,0.09133324912856701,0.091796875,,
0.999464999999851,1200,,,,-0.0625,0.0546875,-0.9921875,0.01861413563094336,0.5385976377758325,23.007265387550262,0.25527468773605133,1668,0,5.873172487467356,3.250440913451883,55.34386944003319,0.16569987029970526,0.0917047198809732,0.091796875,,
1.0065800000000744,1200,,,,-0.0625,0.033203125,-0.958984375,0.016269976471613923,0.5819043461602854,23.007296938810423,0.2537377562725875,1667,0,5.837819903150927,2.840921244943747,48.6640782359589,0.204829453542915,0.09967836552241123,0.091796875,,
1.0154800000004471,1200,,,,-0.03125,0.037109375,-0.939453125,0.016269976471613923,0.5819043461602854,23.007232584772407,0.2530052723519464,1667,0,5.820951146174919,2.83976039283859,48.78516107637601,0.20491318479817971,0.09996722727052401,0.091796875,,
1.0244900000002235,1200,,,,-0.0625,0.0703125,-0.986328125,0.016269976471613923,0.5819043461602854,23.007127431237752,0.25294974501533135,1666,0,5.819647017266825,2.839280756836719,48.78785171012272,0.20494780051571684,0.09998962899876608,0.091796875,,
1.0324749999996274,1200,,,,-0.0625,0.08984375,-1.05859375,0.016269976471613923,0.5819043461602854,23.007104945009086,0.2523722027151929,1666,0,5.80635375307155,2.8391204228988918,48.896786927544724,0.20495937455380295,0.10021854866360136,0.091796875,,
1.043030000001192,1200,,,,-0.03125,0.005859375,-0.93359375,0.016269976471613923,0.5819043461602854,23.007213519171643,0.2514033394039729,1665,0,5.784090309099983,2.8374609369079296,49.05630419434866,0.2050792448245666,0.10060429818061242,0.091796875,,
1.0510250000003725,1200,,,,-0.03125,0.046875,-0.9921875,0.016269976471613923,0.5819043461602854,23.007355664751714,0.2511524053842897,1665,0,5.778352716734256,2.836696166869475,49.09177936913285,0.20513453395414716,0.10070419281866884,0.091796875,,
1.075155000001192,1200,,,,-0.01953125,0.037109375,-0.96875,0.016269976471613923,0.5819043461602854,23.00734481197876,0.25049200968382035,1666,0,5.763156039441178,2.8386516272979283,49.25515824786131,0.20499322303744325,0.10096973640448395,0.091796875,,
1.083125,1200,,,,-0.0625,0.0546875,-0.97265625,0.016269976471613923,0.5819043461602854,23.007377812502536,0.24980394304967865,1667,0,5.747333696796824,2.839417029956176,49.404074650105585,0.20493796438533957,0.10124770491133996,0.091796875,,
1.0908499999996275,1200,,,,-0.03125,0.041015625,-0.998046875,0.016269976471613923,0.5819043461602854,23.0074071801723,0.25082742657704293,1667,0,5.770888735212798,2.8397026036038584,49.20737054375293,0.2049173548743422,0.10083444212147473,0.091796875,,
1.098410000000149,1200,,,,-0.03125,0.041015625,-0.994140625,0.016269976471613923,0.5819043461602854,23.007434915696926,0.2517940287217885,1667,0,5.793134727977672,2.8398184151470023,49.02041033902134,0.20490899807414742,0.10044723167752438,0.091796875,,
1.1065099999997765,1200,,,,0,0.03515625,-0.8984375,0.016269976471613923,0.5819043461602854,23.00766116836358,0.25169689171604664,1667,0,5.790956801733099,2.839867498814022,49.03969406168106,0.20490545647052152,0.10048500896883482,0.08984375,,
1.114054999999702,1200,,,,-0.03125,-0.005859375,-0.931640625,0.016269976471613923,0.5819043461602854,23.00767612972582,0.2508512875896312,1667,0,5.771505181586945,2.840305492296491,49.212560726065476,0.20487385872348346,0.10082367213612789,0.08984375,,
1.1298600000012666,1200,,,,-0.03125,0.013671875,-0.966796875,0.016269976471613923,0.5819043461602854,23.00763773263134,0.25033570824297097,1668,0,5.759633286795969,2.8418294383624825,49.34045792251065,0.2047639940332204,0.10103149231641333,0.08984375,,
1.143835000000894,1200,,,,-0.03125,0.03125,-0.95703125,0.016269976471613923,0.5819043461602854,23.007749338137273,0.2516077601644971,1668,0,5.78892827739491,2.842306211821573,49.09900547430251,0.20472964655956455,0.10052022037180079,0.08984375,,
1.1516950000002981,1200,,,,-0.0625,0.02734375,-0.9765625,0.016269976471613923,0.5819043461602854,23.007573268352967,0.25315463858604187,1668,0,5.824473895491773,2.84245184759867,48.801864315998884,0.20471915703757082,0.09990676524633199,0.08984375,,
1.159855000000447,1200,,,,-0.0625,0.1015625,-0.96875,0.015866018831831266,0.5686475980509134,23.007594989410972,0.2532614242241672,1668,0,5.826936274991036,2.7719387120410612,47.57111767187338,0.2051443618074085,0.09758946575261597,0.08984375,,
1.1863850000016392,1200,,,,-0.03125,0.033203125,-0.9921875,0.015866018831831266,0.5686475980509134,23.007582655204857,0.2542246652361268,1669,0,5.849094998411972,2.7735834055886475,47.419017922288404,0.2050227142638342,0.09721975762152966,0.08984375,,
1.2051700000017882,1200,,,,0,0.072265625,-0.939453125,0.015866018831831266,0.5686475980509134,23.00767075065256,0.25013471165426976,1672,0,5.755017089050854,2.777277720104413,48.258374860229225,0.20474999454845114,0.09880901989549046,0.08984375,,
1.213625,1200,,,,-0.0625,0.06640625,-1.015625,0.015866018831831266,0.5686475980509134,23.007687180150175,0.25038917556565005,1672,0,5.760875824710178,2.778002022894865,48.22186951121486,0.20469661050078874,0.09870853240957009,0.08984375,,
1.2213800000008195,1200,,,,-0.125,-0.01171875,-0.94921875,0.015866018831831266,0.5686475980509134,23.007702971136073,0.24948851533838104,1671,0,5.740157655615197,2.77563078709091,48.35460894311332,0.20487148387877013,0.09906480486553274,0.091796875,,
1.229795000001788,1200,,,,-0.03125,0.033203125,-0.91796875,0.015866018831831266,0.5686475980509134,23.007718927475445,0.2489262943582923,1670,0,5.727226214253606,2.7746843423624883,48.44726292558528,0.2049413655344816,0.0992884822037751,0.08984375,,
1.238765000000596,1200,,,,0,0.046875,-1.009765625,0.015866018831831266,0.5686475980509134,23.0077326928566,0.24860042923323247,1670,0,5.719732223127626,2.7743535653186013,48.504955426069714,0.20496580001893558,0.09941856993787189,0.08984375,,
1.2472799999993294,1200,,,,-0.03125,0.05859375,-1.03515625,0.015866018831831266,0.5686475980509134,23.00767345060092,0.24987661391688634,1670,0,5.749079535941602,2.7739342629140338,48.2500589106863,0.20499678224297424,0.09891106819724638,0.08984375,,
1.2551699999999255,1200,,,,-0.0625,0.00390625,-0.89453125,0.015866018831831266,0.5686475980509134,23.007689579568464,0.2505149658111232,1669,0,5.763770568418529,2.7737945433197044,48.124652263540426,0.20500710819423215,0.09865895793401432,0.091796875,,
1.263414999999106,1200,,,,-0.0625,0.01953125,-0.95703125,0.015866018831831266,0.5686475980509134,23.007897935277356,0.24985232990775694,1669,0,5.7485769054089175,2.773740061780569,48.25089943861963,0.20501113492440126,0.09891971655034568,0.08984375,,
1.2706500000003724,1200,,,,-0.03125,0.05859375,-1.04296875,0.015866018831831266,0.5686475980509134,23.00780539044653,0.24963979928723243,1668,0,5.743663919710777,2.772155402570932,48.264582352348434,0.20512832632814973,0.09900432998864385,0.091796875,,
1.2775500000007451,1200,,,,-0.0625,0.07421875,-1.02734375,0.015866018831831266,0.5686475980509134,23.007870775693586,0.2494621084357432,1668,0,5.73959195432164,2.7708437540336726,48.27597111581005,0.2052254289774013,0.0990745688154275,0.091796875,,
1.285425000000745,1200,,,,-0.0625,0.04296875,-0.94921875,0.015866018831831266,0.5686475980509134,23.007876509970632,0.2487158178385793,1667,0,5.722422822906383,2.770260355757203,48.410619793212085,0.2052686480781996,0.09937182477580375,0.091796875,,
1.2938250000011176,1200,,,,0,0,-0.93359375,0.015866018831831266,0.5686475980509134,23.007882609019752,0.24792205378182666,1667,0,5.704161509599349,2.7699941856238905,48.5609353971194,0.20528837244574788,0.0996899539211775,0.091796875,,
1.3026349999997764,1200,,,,-0.0625,0.03515625,-0.962890625,0.015866018831831266,0.5189435215127581,23.007815384413256,0.24754732298948703,1667,0,5.695523106247837,2.769604509015841,48.62774599189421,0.1873709837716725,0.09111428605100222,0.08984375,,
1.310394999999553,1200,,,,-0.0625,0.09375,-1.01171875,0.014331084535209336,0.5189435215127581,23.007629599064458,0.2483981406549041,1667,0,5.715052413284348,2.5015457332466373,43.77117745118,0.20744914418943922,0.09080293302411373,0.091796875,,
1.3183600000012665,1200,,,,0,0.00390625,-0.953125,0.014331084535209336,0.5189435215127581,23.00774567174188,0.24777820477637427,1667,0,5.7008179184955985,2.501381382136499,43.87758770581107,0.20746277445685396,0.0910296608192151,0.08984375,,
1.3269000000003726,1200,,,,-0.03125,-0.005859375,-0.96875,0.014331084535209336,0.5189435215127581,23.007758225100606,0.2499037041530622,1667,0,5.749724004710726,2.5011984350400254,43.50119123962826,0.20747794906742525,0.09025537940387918,0.08984375,,
1.3362750000003725,1200,,,,-0.0625,0.048828125,-0.96875,0.014331084535209336,0.5189435215127581,23.007991935877467,0.24870438331013647,1667,0,5.7221884456169985,2.501122010453174,43.709186340567804,0.2074842887887471,0.0906896944140753,0.08984375,,
1.3445650000013412,1200,,,,-0.03125,0.05859375,-0.9453125,0.014331084535209336,0.5189435215127581,23.007918424424346,0.24756136450693975,1667,0,5.69587167961485,2.5011782137327483,43.9121236295456,0.2074796264670357,0.0911087100803241,0.08984375,,
1.3550800000019372,1200,,,,0,-0.00390625,-0.94140625,0.014331084535209336,0.5189435215127581,23.007857477837067,0.24830675950619388,1667,0,5.713006533502073,2.501353454631766,43.78348668014627,0.20746509076989036,0.09083545038318831,0.08984375,,
1.36425,1200,,,,-0.0625,0.025390625,-0.99609375,0.014331084535209336,0.5189435215127581,23.007796064692798,0.24973971613461102,1667,0,5.7459604580793995,2.501436147620828,43.53382112303883,0.20745823234638108,0.09031449577469182,0.08984375,,
1.3723499999996274,1200,,,,-0.0625,0.02734375,-0.95703125,0.014331084535209336,0.5189435215127581,23.007905902743598,0.24887942769798085,1667,0,5.7261944536038225,2.5011392410078845,43.67890858882332,0.20748285941235298,0.09062624850019844,0.08984375,,
1.380109999999404,1200,,,,0,0.08984375,-0.98828125,0.014331084535209336,0.5189435215127581,23.00781296930655,0.2503019177684473,1666,0,5.758899709875183,2.50086826148166,43.42614713698258,0.20750534104715526,0.09011157472023516,0.08984375,,
1.3886650000009686,1200,,,,0,0.08203125,-0.98828125,0.014331084535209336,0.5189435215127581,23.00775593282115,0.250494758845111,1666,0,5.763322273959207,2.5007597082869024,43.3909399720062,0.20751434845703368,0.09004242637229126,0.087890625,,
1.396539999999106,1200,,,,-0.09375,0.01953125,-0.984375,0.014331084535209336,0.5189435215127581,23.007572483017157,0.24961460734361876,1666,0,5.743026171278175,2.500169922825996,43.53401583523613,0.20756330070805148,0.09036064019838193,0.087890625,,
1.4047349999994039,1200,,,,0,-0.03125,-0.95703125,0.014331084535209336,0.5189435215127581,23.00752802102611,0.24877129409489232,1665,0,5.723612519715163,2.4988362572068468,43.658375695411365,0.2076740802908085,0.09066713019535143,0.087890625,,
1.412480000000447,1200,,,,-0.03125,0.029296875,-0.96484375,0.014331084535209336,0.5189435215127581,23.007551275727153,0.24946275786836672,1665,0,5.739527193040755,2.4983119476966107,43.528183832386816,0.2077176639175155,0.09041572660235556,0.087890625,,
1.420320000000298,1200,,,,-0.03125,0.052734375,-1.01171875,0.014331084535209336,0.5189435215127581,23.007476380116564,0.2494281875781639,1665,0,5.73871313423989,2.4988073512287623,43.5429911336688,0.20767648264584027,0.09042855242519346,0.087890625,,
1.428605000000447,1200,,,,0,0.02734375,-1.01171875,0.014331084535209336,0.5189435215127581,23.007568492681813,0.24837354669448017,1666,0,5.714471387343557,2.5004274773786874,43.75605909790096,0.20754192081459222,0.09081216552455179,0.087890625,,
1.4364749999996276,1200,,,,-0.0625,-0.00390625,-0.9140625,0.014331084535209336,0.5189435215127581,23.007395054123965,0.24839172535886797,1667,0,5.714846553506937,2.5010549427502506,43.76416618247552,0.2074898526387865,0.0908062039206121,0.087890625,,
1.4436850000005215,1200,,,,-0.03125,0.0234375,-0.953125,0.014331084535209336,0.5189435215127581,23.00755360415306,0.24751532179526783,1667,0,5.694722034053819,2.5013037076965277,43.92319226011389,0.20746921691914721,0.09112710302794978,0.087890625,,
1.4517649999987334,1200,,,,0.0625,0,-0.9921875,0.014331084535209336,0.4968385352775256,23.00757326967573,0.24828433855771428,1668,0,5.712420111079587,2.503617266509186,43.82761102694929,0.19844827798710285,0.08697513936586647,0.087890625,,
1.459734999999404,1200,,,,-0.0625,0.076171875,-1.013671875,0.012253567398932403,0.4968385352775256,23.00759560251952,0.24711967250425584,1669,0,5.68562949040498,2.1416132803892847,37.66712699101222,0.23199264770491823,0.08738496522082313,0.087890625,,
1.467570000000298,1200,,,,-0.03125,0.025390625,-0.94921875,0.012253567398932403,0.4968385352775256,23.007614408647875,0.24794954743775863,1669,0,5.704727580246695,2.1419424904211577,37.54679711329058,0.23195699114210816,0.08709242085422075,0.087890625,,
1.475519999999553,1200,,,,0,0.01171875,-0.98046875,0.012253567398932403,0.4968385352775256,23.00763328027752,0.24814711150566923,1669,0,5.709277741082572,2.142081962385286,37.51931609442269,0.2319418883133108,0.08702301023164391,0.087890625,,
1.4835099999997765,1200,,,,-0.03125,0.052734375,-0.994140625,0.012253567398932403,0.4968385352775256,23.007651385309305,0.24737598825295223,1669,0,5.691540498820295,2.142137589646676,37.63721948549227,0.23193586522118503,0.08729421065887293,0.087890625,,
1.4922500000018626,1200,,,,-0.03125,0.052734375,-0.970703125,0.012253567398932403,0.4968385352775256,23.007668526583437,0.24824041734218108,1669,0,5.711433237109637,2.142159412559254,37.50651235211371,0.23193350241098484,0.08699016773046597,0.087890625,,
1.5003799999989569,1200,,,,0,0.03125,-0.89453125,0.012253567398932403,0.4968385352775256,23.007613804501865,0.2483275473649074,1668,0,5.713424306790934,2.1407464882922618,37.46871181522062,0.23208658194453874,0.08695985255059509,0.087890625,,
1.510285000000149,1200,,,,-0.03125,-0.0234375,-0.921875,0.012253567398932403,0.4968385352775256,23.00737200503731,0.24903776430046368,1667,0,5.729704486563568,2.139594619906703,37.34214609015448,0.23221152766741868,0.08671276789974697,0.087890625,,
1.5184750000014902,1200,,,,-0.0625,0.06640625,-1,0.012253567398932403,0.4968385352775256,23.007410595869718,0.24855419659581937,1667,0,5.71858845640654,2.139086060655791,37.4058402167299,0.23226673503973336,0.08688132378557804,0.087890625,,
1.526589999999851,1200,,,,-0.0625,0.05859375,-0.9140625,0.012253567398932403,0.4968385352775256,23.007342578826464,0.2491911999051005,1667,0,5.733227303845475,2.1395388091901824,37.31822751480862,0.23221758499701134,0.08665948669857876,0.087890625,,
1.5352199999988079,1200,,,,0,0,-0.96484375,0.012253567398932403,0.4968385352775256,23.007506153621563,0.2493295836465527,1668,0,5.736451930027964,2.1409343545422685,37.321577530099376,0.23206621642714942,0.08661077288502679,0.087890625,,
1.544265000000596,1200,,,,-0.0625,0.046875,-1.0234375,0.012253567398932403,0.4968385352775256,23.00731175893534,0.25020011452614255,1669,0,5.756432037024289,2.1415178609831123,37.20217397181573,0.2320029845790969,0.08631015394292046,0.087890625,,
1.553660000000149,1200,,,,-0.0625,0.076171875,-0.998046875,0.012253567398932403,0.4968385352775256,23.007228689639806,0.25072650736973556,1667,0,5.768522093610167,2.1390053530645186,37.080647665957805,0.2322754987806426,0.0861292593171962,0.087890625,,
1.5619749999996275,1200,,,,0,0.076171875,-0.986328125,0.012253567398932403,0.4968385352775256,23.00717102631306,0.2506335280421913,1665,0,5.766368444594925,2.1371394946908415,37.062139112773444,0.23247829002823148,0.08616142725726007,0.087890625,,
1.5707249999996276,1200,,,,-0.0625,0.060546875,-1.0546875,0.012253567398932403,0.4968385352775256,23.006924071492726,0.25070861813434914,1665,0,5.768034141485835,2.136313409205531,37.03711449695443,0.23256818645457725,0.08613654550067225,0.087890625,,
1.5785400000009686,1200,,,,-0.0625,-0.046875,-0.96875,0.012253567398932403,0.4968385352775256,23.006782049740707,0.24961213962860954,1665,0,5.742772093404865,2.136835165407482,37.20912358443537,0.23251139971893028,0.08651545406931727,0.087890625,,
1.5868349999990314,1200,,,,-0.03125,0.05859375,-0.955078125,0.012253567398932403,0.4968385352775256,23.006842719962496,0.2503785342098861,1666,0,5.760419557021598,2.137855719985368,37.11284740326688,0.2324004050567669,0.08625040769329204,0.087890625,,
1.5945599999986588,1200,,,,0,0.0546875,-1.04296875,0.012253567398932403,0.4968385352775256,23.006769535429097,0.2504573595409774,1666,0,5.762214749411371,2.138248672825244,37.10810453643146,0.23235769608642312,0.0862235367621936,0.087890625,,
1.603890000000596,1200,,,,-0.03125,0.07421875,-1.01171875,0.012253567398932403,0.514452183668413,23.006838008332426,0.2503622557005139,1666,0,5.760043860302425,2.138201679225887,37.12127426601962,0.24060040204189953,0.08931393512711938,0.087890625,,
1.6117200000006706,1200,,,,-0.0625,0.009765625,-0.97265625,0.010820333519113686,0.514452183668413,23.00689613701423,0.2512032825658176,1666,0,5.779407831268803,1.8879141805103814,32.666221793451655,0.272497653219245,0.08901468778254934,0.087890625,,
1.6199850000012666,1200,,,,-0.03125,0.0234375,-0.935546875,0.010820333519113686,0.514452183668413,23.006949183187803,0.25092933733701117,1666,0,5.773118512683606,1.8878406618233576,32.70053538093408,0.2725082651686997,0.0891116616674603,0.087890625,,
1.627820000000298,1200,,,,0.0625,-0.01953125,-0.94921875,0.010820333519113686,0.514452183668413,23.006935481548137,0.25098165374904313,1666,0,5.77431871485649,1.8878108788418184,32.693222734393814,0.27251256438570376,0.08909313965382648,0.08984375,,
1.635695000000298,1200,,,,-0.09375,0.111328125,-1.037109375,0.010820333519113686,0.514452183668413,23.007183154709928,0.2503945785397089,1665,0,5.760873929409483,1.8867349092851389,32.75084531277945,0.27266797319361247,0.08930106611813096,0.08984375,,
1.645570000000298,1200,,,,-0.0625,0.16015625,-0.99609375,0.010820333519113686,0.514452183668413,23.00748880062746,0.24994589935118902,1665,0,5.75062748008524,1.8862533664750432,32.80082691857974,0.27273758277224514,0.08946018246704228,0.08984375,,
1.6550250000003726,1200,,,,0,-0.001953125,-0.951171875,0.010820333519113686,0.514452183668413,23.00770308244756,0.24981177551110154,1665,0,5.747595157458469,1.8865867568529768,32.82393253471957,0.272689385632375,0.08950737996931206,0.08984375,,
1.6660950000006705,1200,,,,-0.125,0.068359375,-1.001953125,0.010820333519113686,0.514452183668413,23.007720869923382,0.25071945671776275,1666,0,5.768483276821122,1.887781466262846,32.72578554311349,0.2725168102676897,0.08918326689713761,0.08984375,,
1.6757099999990315,1200,,,,-0.01953125,0.046875,-0.97265625,0.010820333519113686,0.514452183668413,23.007739961184647,0.25051135249882245,1666,0,5.763700055617571,1.8882022400288214,32.7602446658981,0.272456081643331,0.08925727895347434,0.091796875,,
1.684015000000596,1200,,,,-0.0625,0.0859375,-0.96484375,0.010820333519113686,0.514452183668413,23.007899848226955,0.24952620236529707,1665,0,5.741073873529167,1.8864397900047611,32.858657309788704,0.2727106300419558,0.08960905137285191,0.08984375,,
1.6946650000009686,1200,,,,-0.0625,-0.001953125,-1.013671875,0.010820333519113686,0.514452183668413,23.007906877688356,0.24744286403049828,1664,0,5.693142373162206,1.8857347443812544,33.122915619864244,0.27281259212160014,0.09036348468880204,0.091796875,,
1.7022550000008196,1200,,,,-0.03125,0.068359375,-1.005859375,0.010820333519113686,0.514452183668413,23.00786538996765,0.2465326882205188,1664,0,5.67219090480456,1.885566021588269,33.24228773737364,0.27283700373168296,0.09069726183451489,0.091796875,,
1.710269999999553,1200,,,,-0.03125,0.068359375,-0.982421875,0.010820333519113686,0.514452183668413,23.007774209742955,0.24743621625783072,1666,0,5.692956594973298,1.8874438913060245,33.15401865126775,0.27256555071019134,0.0903664335193875,0.091796875,,
1.717780000001192,1200,,,,0,0.03515625,-0.9921875,0.010820333519113686,0.514452183668413,23.007841750450545,0.2486665181632617,1666,0,5.721279898535862,1.8881374241184847,33.00201104654362,0.2724654345054336,0.08991907279349626,0.08984375,,
1.7257449999991805,1200,,,,-0.0625,0.03515625,-0.96875,0.010820333519113686,0.514452183668413,23.007849528916573,0.2485117890596051,1667,0,5.71772184884525,1.8884603835056302,33.02819607930076,0.2724188382037506,0.08997502803888785,0.091796875,,
1.733910000000149,1200,,,,-0.03125,0.060546875,-0.994140625,0.010820333519113686,0.514452183668413,23.008122117900843,0.24836180785161346,1665,0,5.714338804472547,1.8864443098801924,33.01246871123032,0.2727099766338111,0.09002829570864039,0.091796875,,
1.7419350000005216,1200,,,,-0.0625,0.07421875,-1.0390625,0.010820333519113686,0.514452183668413,23.00821409486297,0.24822133177291864,1664,0,5.711129544343325,1.8856634773923255,33.0173473172222,0.272822902833037,0.0900788853893115,0.091796875,,
1.749714999999851,1200,,,,-0.03125,0.048828125,-1.01953125,0.010820333519113686,0.514452183668413,23.007743871191373,0.2558894017796229,1664,0,5.887437815497945,1.885353737678844,32.023331655680266,0.2728677241766745,0.08738133629440331,0.091796875,,
1.757679999999702,1200,,,,-0.125,0.05859375,-0.93359375,0.010820333519113686,0.5774641568222632,23.007562799247626,0.2642015174098608,1664,0,6.078633003463888,1.8852331163812663,31.014096677772336,0.30630915179907003,0.094999016471828,0.091796875,,
1.765785000000149,1200,,,,-0.03125,0.03125,-0.982421875,0.011351319781064786,0.5774641568222632,23.007584593873755,0.2632711166092377,1671,0,6.057232486510638,1.9857996094669368,32.78394240091133,0.29079679242019607,0.09533465293073476,0.08984375,,
1.775035000000149,1200,,,,0.03125,0.015625,-0.955078125,0.011351319781064786,0.5774641568222632,23.007971700861262,0.2594559930719276,1673,0,5.969556146217767,1.9890997362375138,33.32073084692874,0.29031432979553196,0.09673485644123424,0.08984375,,
1.783675000000745,1200,,,,-0.0625,0.1015625,-1.0078125,0.011351319781064786,0.5774641568222632,23.007973338964415,0.2570027338833837,1680,0,5.913112049229858,1.99743150162108,33.779699843185476,0.2891033591658105,0.09765824696277721,0.08984375,,
1.7922350000012666,1200,,,,-0.1875,0.1171875,-1.03125,0.011351319781064786,0.5774641568222632,23.00783733189446,0.2555153360046618,1686,0,5.878855286599615,2.003742351727316,34.08388630172082,0.2881928189642062,0.09822731274548416,0.091796875,,
1.800960000000894,1200,,,,-0.0625,0.01953125,-0.94921875,0.011351319781064786,0.5774641568222632,23.007915857963596,0.2539663764656005,1688,0,5.843237020472443,2.006152920080875,34.33290337277251,0.28784653006361227,0.09882607102861858,0.091796875,,
1.807875,1200,,,,-0.03125,0.06640625,-0.94140625,0.011351319781064786,0.5774641568222632,23.007919962826968,0.25262219194463026,1686,0,5.8123111730959645,2.004369463770579,34.48489600915394,0.2881026513624636,0.0993518997219609,0.091796875,,
1.8175299999993295,1200,,,,-0.0625,0.15234375,-1,0.011351319781064786,0.5774641568222632,23.007750527198482,0.2513740031595236,1685,0,5.783550353717521,2.0024467002983,34.62313938377277,0.2883792895642314,0.09984596337975751,0.091796875,,
1.82575,1200,,,,-0.03125,0.048828125,-1.02734375,0.011351319781064786,0.5774641568222632,23.007766246204845,0.2504613028142656,1684,0,5.762555108870551,2.0014383583331923,34.7317868639953,0.28852457754590966,0.1002097413234882,0.091796875,,
1.8339049999993295,1200,,,,-0.0625,0.0078125,-1.01953125,0.011351319781064786,0.5774641568222632,23.00777753650234,0.2492846201056703,1682,0,5.73548508266276,1.9992800466870735,34.85808118881701,0.28883605264762974,0.10068270573448504,0.091796875,,
1.841949999999255,1200,,,,0,0.009765625,-0.953125,0.011351319781064786,0.5774641568222632,23.007788505174624,0.24846055206491766,1680,0,5.716527833788554,1.9965067359087083,34.925164259815205,0.28923726949482637,0.10101659147167248,0.091796875,,
1.8498699999991803,1200,,,,-0.0625,0.1015625,-0.9609375,0.011351319781064786,0.5774641568222632,23.00766817108037,0.24820854607904383,1679,0,5.710699865412952,1.9954115360151572,34.94162857516703,0.28939602001873804,0.10111968242626346,0.091796875,,
1.858320000000298,1200,,,,-0.0625,0.033203125,-0.984375,0.011351319781064786,0.5774641568222632,23.007785768926112,0.24741609086588182,1677,0,5.6924964144273655,1.9936367274563556,35.022186793189306,0.28965365097333406,0.10144304269717365,0.091796875,,
1.8669050000011922,1200,,,,-0.0625,0.01171875,-0.94140625,0.011351319781064786,0.5774641568222632,23.00794033045618,0.24731285743337708,1674,0,5.690159466781756,1.9901628902467159,34.97552049050593,0.2901592425686705,0.10148470533970215,0.091796875,,
1.87552499999851,1200,,,,-0.125,0.1015625,-0.9453125,0.011351319781064786,0.5774641568222632,23.007876721296036,0.24678782094614185,1673,0,5.678063760646111,1.9889375279287402,35.02844652280582,0.2903380064549481,0.10170089332645203,0.091796875,,
1.883160000000149,1200,,,,0,0.021484375,-0.990234375,0.011351319781064786,0.5774641568222632,23.00774078019297,0.24648641018525033,1673,0,5.671095431382557,1.9884449741416466,35.062802208159695,0.2904099255105299,0.10182585777462101,0.09375,,
1.891390000000596,1200,,,,-0.0625,0.099609375,-1.056640625,0.011351319781064786,0.5774641568222632,23.00783915594578,0.2464431895430674,1672,0,5.670125266085154,1.9879319593252698,35.059753815594355,0.29048487002455664,0.10184328030215882,0.09375,,
1.900050000000745,1200,,,,-0.0625,-0.02734375,-0.87890625,0.011351319781064786,0.6020144961015377,23.007848242841817,0.24493072028261195,1672,0,5.635328842272274,1.9876776201110637,35.27172372268508,0.30287330803065504,0.1068286364383296,0.09375,,
1.9079849999994039,1200,,,,-0.03125,0.0390625,-0.955078125,0.011351319781064786,0.6020144961015377,23.007855627095505,0.24401512066465128,1672,0,5.614264667080586,1.9875945018646697,35.40257931762625,0.3028859737420059,0.10722944709597826,0.09375,,
1.9159849999994039,1200,,,,-0.03125,0.052734375,-1.0078125,0.013277520013999929,0.6020144961015377,23.007962819745746,0.2427891443011219,1670,0,5.586083605118097,2.3223942370098105,41.57464157682817,0.2592214906960237,0.10777040564698283,0.09375,,
1.923714999999851,1200,,,,-0.125,0.1171875,-1.05078125,0.013277520013999929,0.6020144961015377,23.00796467952326,0.24354901881164523,1670,0,5.603567222550879,2.3214483392282013,41.42804479771052,0.25932711313390067,0.10743415260172183,0.09375,,
1.9320999999996276,1200,,,,-0.03125,0.048828125,-0.97265625,0.013277520013999929,0.6020144961015377,23.007966479034287,0.24524179525684722,1669,0,5.642515004527731,2.3210676074009053,41.13533779774458,0.25936965135438855,0.10669258222946015,0.091796875,,
1.93975,1200,,,,-0.03125,0.01171875,-0.9375,0.013277520013999929,0.6020144961015377,23.007837102328537,0.2461081438067759,1668,0,5.662416082262745,2.318946615512707,40.95330653599793,0.25960688015598643,0.10631760141882189,0.091796875,,
1.948,1200,,,,-0.0625,0.05078125,-0.95703125,0.013277520013999929,0.6020144961015377,23.008039821547634,0.24554989719917933,1667,0,5.649621812935646,2.3181168367624347,41.031363045483204,0.25969980742745163,0.10655837081397843,0.091796875,,
1.9562799999993294,1200,,,,-0.0625,0.044921875,-1.013671875,0.013277520013999929,0.6020144961015377,23.00803792334759,0.24490497492578397,1667,0,5.634782950708928,2.317785020940838,41.13352796755429,0.25973698624437874,0.1068389858789142,0.091796875,,
1.964730000000447,1200,,,,0,0.0625,-0.966796875,0.013277520013999929,0.6020144961015377,23.008181148643946,0.24470069203329434,1666,0,5.630117849500571,2.3167272260213374,41.14882295451145,0.25985557960373923,0.10692751238856224,0.091796875,,
1.9755050000008196,1200,,,,-0.0625,0.015625,-1,0.013277520013999929,0.6020144961015377,23.008172222357953,0.24571011686276292,1666,0,5.653340685554149,2.316362595835719,40.97334168723755,0.2598964847661673,0.106488274736361,0.091796875,,
1.992410000000149,1200,,,,-0.03125,0.052734375,-0.96875,0.013277520013999929,0.6020144961015377,23.00822059695155,0.24585502591167194,1665,0,5.656686671044987,2.315262376609254,40.929655666813595,0.26001998831043904,0.10642528588035167,0.091796875,,
2.001120000001043,1200,,,,0,0.017578125,-0.994140625,0.013277520013999929,0.6020144961015377,23.008209633966015,0.24583687530631407,1665,0,5.6562663628068375,2.3149120764267828,40.92650395053253,0.2600593353985116,0.10643319417560049,0.08984375,,
2.009925000000745,1200,,,,-0.0625,0.03125,-1.0234375,0.013277520013999929,0.6020144961015377,23.0081981410933,0.24737438652193547,1665,0,5.6916389001280905,2.314769109035701,40.66964102349513,0.2600753974776897,0.10577173054460452,0.08984375,,
2.017804999999702,1200,,,,-0.125,0.05078125,-0.90234375,0.013277520013999929,0.6020144961015377,23.00818857107449,0.2464386862364599,1664,0,5.670107764136329,2.3140713634409242,40.81177042308654,0.26015381617547356,0.10617337820443286,0.08984375,,
2.0259900000002236,1200,,,,0.03125,0.06640625,-0.94921875,0.013277520013999929,0.6020144961015377,23.008375659206493,0.245753271239499,1664,0,5.65438358415726,2.313792511915098,40.9203315883627,0.2601851691547128,0.10646863396185086,0.08984375,,
2.03375,1200,,,,-0.03125,0.05078125,-0.990234375,0.013277520013999929,0.6020144961015377,23.008163233658014,0.24653103924974726,1664,0,5.6722263932215355,2.3136832589091463,40.78968465846252,0.260197455197638,0.10613372146446082,0.08984375,,
2.042050000000745,1200,,,,-0.1875,0.0546875,-1.00390625,0.013277520013999929,0.6020144961015377,23.008287036728348,0.2475517910409232,1665,0,5.695742664725758,2.3156078858478333,40.65506505742613,0.2599811910215174,0.10569552234686919,0.091796875,,
2.049980000000447,1200,,,,-0.03125,-0.005859375,-0.966796875,0.013277520013999929,0.5763892262602923,23.008371150133698,0.25160401226287166,1666,0,5.788998497006942,2.316359733764439,40.0131341364496,0.24883407264361815,0.09956631126408136,0.091796875,,
2.058039999999106,1200,,,,0,0.0234375,-0.9609375,0.013277520013999929,0.5763892262602923,23.008352858423592,0.25613187099549456,1666,0,5.89317246615257,2.316657759392874,39.31087665766776,0.2488020614712406,0.0978062715066941,0.08984375,,
2.066694999998435,1200,,,,-0.0625,0.09375,-0.95703125,0.013488979541138781,0.5763892262602923,23.008333692893544,0.2559067435159035,1668,0,5.887987749075628,2.356724062977754,40.02596750218685,0.2445722158630724,0.09789239564073164,0.08984375,,
2.0765999999996274,1200,,,,-0.0625,0.044921875,-0.986328125,0.013488979541138781,0.5763892262602923,23.008512454900153,0.2544479530089839,1669,0,5.8544688959310545,2.35780591608737,40.273609066846035,0.244459996612772,0.09845286336065286,0.08984375,,
2.084039999999106,1200,,,,-0.0625,0.017578125,-0.927734375,0.013488979541138781,0.5763892262602923,23.00836175236668,0.25381301045949123,1670,0,5.8398215621092024,2.3582809205597006,40.38275648456537,0.24441075752904595,0.09869980103503616,0.08984375,,
2.0920099999997763,1200,,,,-0.0625,0.0078125,-0.8828125,0.013488979541138781,0.5763892262602923,23.00834605115778,0.25288330336568304,1672,0,5.818426554397548,2.361340541928781,40.58383344452612,0.24409407115395915,0.09906273128508586,0.08984375,,
2.0999150000009688,1200,,,,-0.03125,0.060546875,-1.033203125,0.013488979541138781,0.5763892262602923,23.008328846586394,0.2518645777486612,1674,0,5.794983029647824,2.364346985312866,40.799894895577516,0.24378368735248085,0.09946348821237548,0.08984375,,
2.1081100000012665,1200,,,,-0.03125,0.0625,-1.00390625,0.013488979541138781,0.5763892262602923,23.008411309130828,0.25026619175578024,1675,0,5.758227476686798,2.365508756466993,41.08050204762097,0.24366395798980628,0.10009837725131665,0.08984375,,
2.1160849999990314,1200,,,,-0.1875,0.0546875,-0.97265625,0.013488979541138781,0.5763892262602923,23.008587038180778,0.24950177817310062,1675,0,5.740683379276659,2.365515782375594,41.20617052169937,0.243663234274196,0.10040428781371302,0.08984375,,
2.1268100000005217,1200,,,,-0.03125,0.0390625,-0.939453125,0.013488979541138781,0.5763892262602923,23.00855796361687,0.24914093903119075,1674,0,5.732373736809089,2.3652932294694464,41.262020553218164,0.2436861608019657,0.10054983375545537,0.08984375,,
2.1351549999993296,1200,,,,-0.03125,0.068359375,-1.0078125,0.013488979541138781,0.5763892262602923,23.008587585917905,0.24803109082191563,1674,0,5.706845077206804,2.365193673664542,41.44485511112171,0.24369641804734601,0.10099962737071602,0.08984375,,
2.1450050000008196,1200,,,,-0.125,0.1015625,-1.04296875,0.013488979541138781,0.5763892262602923,23.00875427791969,0.2488608939031837,1672,0,5.725979157201795,2.3622045680359247,41.25415938800414,0.24400478860284996,0.10066212440458228,0.08984375,,
2.152980000000447,1200,,,,0,-0.001953125,-0.94140625,0.013488979541138781,0.5763892262602923,23.008789557368935,0.24812592546022513,1670,0,5.709077202641731,2.3592237781401275,41.324082586384655,0.24431307941236652,0.10096013870570586,0.08984375,,
2.161339999999851,1200,,,,-0.0625,0.01171875,-0.94921875,0.013488979541138781,0.5763892262602923,23.008748034842064,0.247529910464343,1670,0,5.695353340961084,2.35831733093615,41.40774399324953,0.24440698403869623,0.10120341825236559,0.08984375,,
2.170410000000149,1200,,,,-0.03125,0.046875,-1.048828125,0.013488979541138781,0.5763892262602923,23.008573212327793,0.2467586154852802,1670,0,5.6775636701657115,2.3582888880624076,41.536987078712514,0.24440993178484557,0.10152052178456136,0.08984375,,
2.1886699999999255,1200,,,,0,-0.0390625,-0.9140625,0.013488979541138781,0.5763892262602923,23.008688990624456,0.24505806019151402,1670,0,5.638464691592274,2.358488942810169,41.828566317476465,0.24438920013486148,0.10222449865116082,0.08984375,,
2.197660000000149,1200,,,,-0.09375,0.1015625,-1.025390625,0.013488979541138781,0.5763892262602923,23.008457988943587,0.2441174930211559,1668,0,5.616767082543495,2.3560562301217405,41.946838732982044,0.24464154076259442,0.10261939257756802,0.08984375,,
2.2065050000008197,1200,,,,-0.0625,0.064453125,-0.955078125,0.013488979541138781,0.5264511706512429,23.008505650039496,0.24300927898020222,1667,0,5.591280368428007,2.3550494339466552,42.12003832332914,0.2235414522781383,0.09415574536807837,0.08984375,,
2.2152400000002235,1200,,,,0.0625,-0.04296875,-0.9453125,0.012560166471583716,0.5264511706512429,23.008551390308046,0.24410177800957497,1667,0,5.616428303798872,2.192547140973861,39.03810433208687,0.24010939642438417,0.09373415668729516,0.08984375,,
2.223144999999553,1200,,,,-0.0625,0.00390625,-0.953125,0.012560166471583716,0.5264511706512429,23.008524430071997,0.24544630759318167,1667,0,5.647357364528687,2.192432338360726,38.82227025566852,0.24012196930322083,0.09322079986612979,0.08984375,,
2.2311699999999255,1200,,,,-0.0625,0.029296875,-0.955078125,0.012560166471583716,0.5264511706512429,23.00849843214775,0.24534079740216283,1667,0,5.644923352369542,2.1923866933163736,38.83820127329251,0.2401269685937074,0.09326099537387998,0.08984375,,
2.2395400000009684,1200,,,,-0.0625,0.08984375,-1.04296875,0.012560166471583716,0.5264511706512429,23.008408666952334,0.24673181111903034,1667,0,5.676906341363944,2.1923690062219845,38.61908008324199,0.24012890583526977,0.0927355744475356,0.08984375,,
2.2466349999997766,1200,,,,-0.03125,0.078125,-0.9765625,0.012560166471583716,0.5264511706512429,23.008389091404215,0.24542075273049926,1667,0,5.646736169928631,2.1921577772581777,38.82167877671331,0.24015204385046457,0.09323105503933907,0.08984375,,
2.255195000000298,1200,,,,0,0.01953125,-0.984375,0.012560166471583716,0.5264511706512429,23.008501934124087,0.2445645618237259,1667,0,5.6270641937394075,2.192071944971085,38.955872360758796,0.2401614471910899,0.09355698682751212,0.08984375,,
2.2630250000003724,1200,,,,-0.09375,0.046875,-0.978515625,0.012560166471583716,0.5264511706512429,23.008672704337556,0.24540468402241863,1667,0,5.646436054783206,2.19203830524836,38.82162631402585,0.2401651327856679,0.09323601038663598,0.08984375,,
2.2714199999999254,1200,,,,-0.0625,0.0859375,-0.98046875,0.012560166471583716,0.5264511706512429,23.008639437420957,0.24573161370937138,1667,0,5.653950098214534,2.192025045147621,38.76979823079518,0.2401665856038562,0.09311210065640504,0.08984375,,
2.282195000000298,1200,,,,-0.01953125,0.05078125,-0.96484375,0.012560166471583716,0.5264511706512429,23.008604193191857,0.24697693680516522,1667,0,5.682594583797004,2.192019456818094,38.57427139124585,0.24016719788401528,0.09264274670453052,0.08984375,,
2.290410000000149,1200,,,,-0.0625,0.03515625,-0.958984375,0.012560166471583716,0.5264511706512429,23.00872970238966,0.24675475443367498,1667,0,5.677513447543965,2.192017370002186,38.608756989389974,0.24016742652487186,0.09272565807465949,0.08984375,,
2.307940000001341,1200,,,,-0.0625,0.068359375,-0.951171875,0.012560166471583716,0.5264511706512429,23.008995015551715,0.24714701169765288,1667,0,5.686604360259796,2.192310904294484,38.55219680157821,0.24013526987435302,0.09257742183196152,0.08984375,,
2.3167599999997766,1200,,,,-0.03125,0.037109375,-0.998046875,0.012560166471583716,0.5264511706512429,23.009082537783392,0.2469468858691384,1667,0,5.682021279411581,2.1923400689044352,38.58380602776394,0.24013207536471434,0.09265209416916531,0.091796875,,
2.3251650000009687,1200,,,,-0.03125,0.056640625,-0.9765625,0.012560166471583716,0.5264511706512429,23.00931863137104,0.24578156399567272,1666,0,5.655266319693146,2.191471866956166,38.75099319946925,0.24022720920549834,0.09309042950249742,0.091796875,,
2.334065000001341,1200,,,,0,-0.05859375,-0.90625,0.012560166471583716,0.5264511706512429,23.00924649898358,0.24505312399967275,1666,0,5.638487735454459,2.191165916658216,38.86087936097301,0.2402607518896344,0.09336744094359747,0.091796875,,
2.342324999999255,1200,,,,-0.03125,0.017578125,-0.974609375,0.012560166471583716,0.5264511706512429,23.009383069366116,0.24421412758913888,1666,0,5.619216412649549,2.191061110421976,38.9922891293104,0.24027224441487796,0.09368764823973257,0.08984375,,
2.3515750000011177,1200,,,,-0.03125,0.08984375,-1.005859375,0.012560166471583716,0.5072013060823323,23.009315965006863,0.24427619792320435,1666,0,5.620628220745562,2.1916366142268404,38.99273405306508,0.2314258225062832,0.09023925549999343,0.08984375,,
2.359570000000298,1200,,,,0,0.052734375,-0.953125,0.01067896051287725,0.5072013060823323,23.00947721321969,0.24226304186021227,1666,0,5.574345941287842,1.8635989160741155,33.431705453923946,0.27216226716358577,0.09098848751485154,0.08984375,,
2.367495000001043,1200,,,,-0.0625,0.00390625,-0.990234375,0.01067896051287725,0.5072013060823323,23.009404390971824,0.24338607266560788,1667,0,5.600168569093426,1.8636638907886571,33.27871059228407,0.2721527785075543,0.09056893552838888,0.08984375,,
2.3752599999997766,1200,,,,-0.125,0.0859375,-1.03515625,0.01067896051287725,0.5072013060823323,23.009339860539257,0.24438123095561085,1665,0,5.623050798594587,1.8621655993068482,33.116641944125305,0.27237175161603633,0.0902003777396251,0.091796875,,
2.3831500000003727,1200,,,,0,0.015625,-0.9765625,0.01067896051287725,0.5072013060823323,23.009402088886333,0.24473837537950102,1665,0,5.631283685687738,1.8615361965502664,33.05704880898609,0.272463843046544,0.0900685055827353,0.08984375,,
2.3916850000005216,1200,,,,0,0.037109375,-0.962890625,0.01067896051287725,0.5072013060823323,23.009193765839274,0.24411006080848316,1664,0,5.616775689333197,1.8612664297459451,33.137631493468234,0.2725033332017722,0.09030115036382115,0.08984375,,
2.3993300000000746,1200,,,,-0.0625,0.064453125,-0.974609375,0.01067896051287725,0.5072013060823323,23.0093257368636,0.24356326936109926,1664,0,5.604226602264983,1.8609404219446342,33.206016708755556,0.27255107154495584,0.09050335435711034,0.08984375,,
2.4073300000000746,1200,,,,0,0.04296875,-0.98828125,0.01067896051287725,0.5072013060823323,23.00932626204175,0.24302028361106257,1664,0,5.591732993900856,1.8606876939703254,33.275689236232445,0.2725880908042493,0.0907055659910011,0.08984375,,
2.4152249999996274,1200,,,,-0.0625,0.017578125,-0.9375,0.01067896051287725,0.5072013060823323,23.00965120621807,0.24361606321313253,1664,0,5.605520642766153,1.8605881390832362,33.19206649402495,0.27260267623346485,0.0904824615599032,0.08984375,,
2.4239550000000745,1200,,,,-0.03125,0.029296875,-0.984375,0.01067896051287725,0.5072013060823323,23.00963359313498,0.2432400392032171,1664,0,5.596864177245814,1.8605460043237,33.2426506236795,0.27260884971597227,0.09062240748031218,0.087890625,,
2.434324999999255,1200,,,,-0.0625,0.0546875,-1.02734375,0.01067896051287725,0.5072013060823323,23.009159214862166,0.24335096296828665,1664,0,5.599301052027334,1.8605318227096337,33.22792979734484,0.27261092763447414,0.09058296765427362,0.087890625,,
2.4449199999999256,1200,,,,-0.0625,0.029296875,-0.9765625,0.01067896051287725,0.5072013060823323,23.009008831493798,0.24247874900645203,1664,0,5.5791956773390226,1.8605252898683704,33.347553974943956,0.27261188485011995,0.0909093954425058,0.087890625,,
2.4535400000009684,1200,,,,-0.01953125,0.017578125,-0.96484375,0.01067896051287725,0.5072013060823323,23.008950499571668,0.24478919463257645,1664,0,5.632342462130966,1.8605235444597568,33.03285545878966,0.2726121405948717,0.09005157436581643,0.087890625,,
2.4619350000005213,1200,,,,-0.0625,0.125,-1.01171875,0.01067896051287725,0.5072013060823323,23.009037640801598,0.24493498799334049,1664,0,5.635718358288059,1.86052298468967,33.01305825465051,0.2726122226148859,0.08999763186114981,0.087890625,,
2.4701650000009687,1200,,,,-0.03125,0.01171875,-0.970703125,0.01067896051287725,0.5072013060823323,23.008982618316498,0.24358190455781145,1664,0,5.604571808107112,1.8605227647409177,33.196519349607385,0.2726122548427733,0.09049777992828223,0.087890625,,
2.478035000000149,1200,,,,0,0.013671875,-0.955078125,0.01067896051287725,0.5072013060823323,23.008737889606312,0.24463474050976855,1664,0,5.62873662308112,1.8605226867860913,33.05400148155552,0.2726122662650694,0.09010926253015811,0.087890625,,
2.4853600000012666,1200,,,,-0.125,0.05078125,-0.96484375,0.01067896051287725,0.5072013060823323,23.00870600182449,0.24354444724602978,1664,0,5.603642585060753,1.860522658137586,33.20202225419797,0.2726122704627791,0.09051278670672629,0.087890625,,
2.493394999999553,1200,,,,-0.03125,0.083984375,-1.03125,0.01067896051287725,0.5072013060823323,23.008867501462884,0.24363997132791573,1664,0,5.6058798183442295,1.8605226447824255,33.18877152332451,0.27261227241963815,0.09047666423789671,0.087890625,,
2.50147500000149,1200,,,,-0.0625,0.1015625,-0.98046875,0.01067896051287725,0.5229700418219471,23.00882499594447,0.24341138105465024,1664,0,5.6006098687076005,1.8605226395139465,33.22000073437148,0.28108770660193133,0.09337733819738954,0.087890625,,
2.5095099999997763,1200,,,,-0.03125,0.052734375,-0.974609375,0.010001944289342068,0.5229700418219471,23.008784355001634,0.24426307971742148,1664,0,5.6201965271067245,1.7425707067821865,31.00551196702122,0.3001141014172436,0.09305191362964169,0.087890625,,
2.518504999998957,1200,,,,-0.0625,0.041015625,-0.978515625,0.010001944289342068,0.5229700418219471,23.00885107390319,0.24540048437705522,1664,0,5.6463831984953705,1.7425707059738185,30.861715273560836,0.3001141015564648,0.09262035951816135,0.087890625,,
2.5272400000002233,1200,,,,-0.03125,0.056640625,-0.978515625,0.010001944289342068,0.5229700418219471,23.008804493410988,0.24528649033025315,1663,0,5.64374890088374,1.741416646812976,30.855671954864828,0.3003129910231717,0.09266359134795253,0.087890625,,
2.535105000000447,1200,,,,-0.0625,0.10546875,-0.953125,0.010001944289342068,0.5229700418219471,23.008700356045964,0.24667168163057598,1662,0,5.67559480895989,1.740482573572294,30.666082272551353,0.30047416145544337,0.09214365355968505,0.087890625,,
2.544054999999702,1200,,,,-0.0625,0.037109375,-1.01171875,0.010001944289342068,0.5229700418219471,23.008764509975748,0.24757608851878168,1661,0,5.696419919029558,1.7401099749613846,30.547431539383947,0.3005385000643723,0.09180679255665553,0.087890625,,
2.5524199999999255,1200,,,,-0.03125,0.02734375,-0.98828125,0.010001944289342068,0.5229700418219471,23.008722425615282,0.24674316449060454,1662,0,5.677244982182253,1.7405338205281105,30.658071405949332,0.3004653145224539,0.09211687067640416,0.087890625,,
2.560574999999255,1200,,,,0,0.08203125,-0.9375,0.010001944289342068,0.5229700418219471,23.008882924487033,0.246894396447931,1663,0,5.680764262582332,1.741765977629197,30.660768465640114,0.30025275986489713,0.09205980351387053,0.0859375,,
2.5683849999997763,1200,,,,-0.03125,0.048828125,-1,0.010001944289342068,0.5229700418219471,23.008905181278983,0.24618661850763887,1663,0,5.664484562141965,1.742253405651646,30.757492346185007,0.30016875853162317,0.09232438293100255,0.0859375,,
2.575890000000596,1200,,,,0,0.046875,-1.001953125,0.010001944289342068,0.5229700418219471,23.00866660005367,0.24551930781468875,1664,0,5.6490718973841245,1.7424447228152637,30.844796357117087,0.3001358005647293,0.09257627647899384,0.0859375,,
2.5850999999996276,1200,,,,-0.125,0.09375,-0.9375,0.010001944289342068,0.5229700418219471,23.008637478904504,0.24466317531183226,1664,0,5.629366305187607,1.7425163588967385,30.954041084357304,0.30012346176942734,0.09290033965990392,0.0859375,,
2.5942900000009685,1200,,,,-0.0625,0.005859375,-0.9296875,0.010001944289342068,0.5229700418219471,23.008511615272365,0.24277531551650675,1664,0,5.585898666962959,1.7425536854849955,31.195583546674293,0.3001170329374338,0.09362325974779717,0.0859375,,
2.602589999999851,1200,,,,-0.03125,0.021484375,-1.01171875,0.010001944289342068,0.5229700418219471,23.008554060068313,0.24403765049040024,1664,0,5.614953474000431,1.7425642744990772,31.03434930614963,0.3001152092207799,0.09313880235045861,0.087890625,,
2.6119700000006705,1200,,,,-0.03125,0.068359375,-0.97265625,0.010001944289342068,0.5229700418219471,23.00844983786198,0.24507743968522153,1664,0,5.638851977389065,1.7423944659103752,30.899808558499338,0.30014445755755026,0.09274406278422932,0.087890625,,
2.619164999999106,1200,,,,-0.0625,0.0390625,-0.9375,0.010001944289342068,0.5229700418219471,23.008300047708175,0.2459327592414254,1663,0,5.658494716187492,1.7423380188272992,30.79154627188959,0.30015418143371403,0.0924221136631735,0.0859375,,
2.6260050000008195,1200,,,,-0.03125,0.0234375,-0.97265625,0.010001944289342068,0.5229700418219471,23.008374604780638,0.24733934930380339,1664,0,5.690876403284597,1.7423677533161908,30.616861619249896,0.30014905913323725,0.09189622208630378,0.0859375,,
2.6325400000009687,1200,,,,-0.0625,0.03515625,-0.94921875,0.010001944289342068,0.5229700418219471,23.008275107276216,0.24807995524170004,1664,0,5.707891858801805,1.7424802654476812,30.527562689554195,0.300129678477354,0.09162227574713169,0.0859375,,
2.6397050000000744,1200,,,,-0.0625,0.056640625,-0.958984375,0.010001944289342068,0.5229700418219471,23.008263295730202,0.248810940737722,1664,0,5.724707635351832,1.742531261992175,30.43878173326281,0.3001208949468452,0.09135314414878518,0.0859375,,
2.6515849999990313,1200,,,,-0.03125,0.029296875,-0.998046875,0.010001944289342068,0.5707565279541087,23.008429434253223,0.24933157988610602,1664,0,5.73672806154034,1.742559211917105,30.375489185192773,0.32753924460689143,0.09949164782282842,0.0859375,,
2.6597099999990315,1200,,,,-0.0625,-0.0078125,-0.95703125,0.011618635777424804,0.5707565279541087,23.008473132258107,0.24925116103631004,1664,0,5.7348886418880785,2.0244189548296507,35.300056919033004,0.28193597308129154,0.09952355897292547,0.0859375,,
2.670269999999553,1200,,,,-0.0625,0.01953125,-0.927734375,0.011618635777424804,0.5707565279541087,23.00844201012389,0.24900320581376165,1664,0,5.7291758213008785,2.0245102627437257,35.33684993950904,0.2819232574205816,0.09962279841928669,0.0859375,,
2.683160000000149,1200,,,,0,0.05859375,-0.955078125,0.011618635777424804,0.5707565279541087,23.008244638444463,0.2500355784710358,1664,0,5.75287975777657,2.0245401364386915,35.191768673801654,0.28191909741938215,0.0992123166110985,0.0859375,,
2.6989599999990315,1200,,,,-0.0625,0.001953125,-0.92578125,0.011618635777424804,0.5707565279541087,23.00817096659334,0.24976731491981177,1664,0,5.746689083541989,2.02454859516543,35.2298265267832,0.28191791953873596,0.09931919400141292,0.0859375,,
2.707265000000596,1200,,,,-0.0625,0.0078125,-1.01171875,0.011618635777424804,0.5707565279541087,23.008162596365892,0.24891390904902735,1664,0,5.727051691897053,2.024454033495482,35.348974348525445,0.28193108784427356,0.09965974792259101,0.0859375,,
2.722195000000298,1200,,,,0,0.046875,-0.9921875,0.011618635777424804,0.5707565279541087,23.007994306825168,0.24911066433211168,1664,0,5.731536746722661,2.0242735602130404,35.318164214345074,0.28195622329525494,0.09958176195598359,0.0859375,,0.2427599999997765,5830,
2.740429999999702,1200,,,,-0.0625,0,-0.953125,0.011618635777424804,0.5707565279541087,23.00799497876786,0.24865814848130788,1664,0,5.721125431687645,2.0244319691432295,35.385205119441906,0.2819341606207007,0.09976298103741174,0.0859375,,
2.761565000001341,1500,,,,-0.03125,0.0546875,-0.9296875,0.011618635777424804,0.5707565279541087,23.007793450123405,0.24791986447014783,1665,0,5.70408903391175,2.0256359683219425,35.511997731437965,0.28176658436161617,0.10006094304644739,0.0859375,,
2.7777400000002235,1500,,,,-0.0625,0.04296875,-0.94140625,0.011618635777424804,0.5707565279541087,23.0076903122604,0.24925522355239968,1666,0,5.734786992206846,2.0268635013798493,35.343309248176226,0.28159593754860585,0.09952532303810495,0.0859375,,
2.792010000001639,1500,,,,-0.3125,0.12109375,-0.72265625,0.011618635777424804,0.5707565279541087,22.988187479334947,1.0401982375743744,1680,0,23.912272101033512,2.044635999560233,8.55057181902786,0.27914823375743597,0.02386877020897734,0.087890625,,
2.8148450000006706,1500,,,,-0.20703125,0.185546875,-0.80859375,0.014629099009949187,0.5909103976308762,22.938589834278456,2.444656595567983,1939,0,56.076974931397515,2.970642698750074,5.29743749976572,0.19891668489095216,0.010537487058704111,0.12109375,,
2.8223950000014155,1500,,,,-0.15625,0.119140625,-0.98046875,0.014629099009949187,0.5909103976308762,22.93134773667033,2.6390136558196855,2212,0,60.51613982342283,3.388774280628882,5.599785925732912,0.17437289966719655,0.009764509093856044,0.126953125,,
2.8306549999993296,1500,,,,0,0.4140625,-1.2265625,0.014629099009949187,0.5909103976308762,22.924691355578595,2.807280914089391,2441,0,64.35604850390584,3.7387863907773506,5.809533800930055,0.15804871845273216,0.009181893720448253,0.12890625,,
2.8385149999987336,1500,,,,-0.1875,-0.201171875,-0.826171875,0.014629099009949187,0.5909103976308762,22.918996379296942,2.931759517842256,2669,0,67.19298577439602,4.088518821204725,6.084740503915307,0.14452921057038406,0.008794227415565202,0.1328125,,
2.8478450000006705,1500,,,,-0.09375,0.46484375,-1.0234375,0.014629099009949187,0.5909103976308762,22.914318580835435,3.04342832930228,3291,0,69.73808631557218,5.041142045205153,7.228678490535939,0.11721756545085184,0.008473280940875615,0.13671875,,
2.8574350000005215,1500,,,,0.1875,-0.25,-0.78515625,0.014629099009949187,0.5909103976308762,22.911010005840254,3.118351493139342,6120,0,71.44458226104236,9.37486527114191,13.121870090706489,0.06303134824239454,0.008270891632787818,0.140625,,
2.8664700000006706,1500,,,,0,0.109375,-0.54296875,0.014629099009949187,0.5909103976308762,22.908757989471184,3.1665986045582066,4913,0,72.54284108162112,7.5262411706053935,10.374891661793741,0.07851334872695087,0.008145674870467468,0.14453125,,
2.873620000001043,1500,,,,-0.125,-0.140625,-0.966796875,0.014629099009949187,0.5909103976308762,22.907678746120823,3.1841431363269086,5290,0,72.94132804864242,8.10404668742018,11.11036349929882,0.07291547302511715,0.008101174100323693,0.146484375,,
2.882570000000298,1500,,,,0.0625,0.087890625,-0.826171875,0.014629099009949187,0.5909103976308762,22.90725813222933,3.190964164848753,4612,0,73.09623981488397,7.065217311774281,9.665637151332167,0.0836365495292149,0.008084005403388125,0.1484375,,
2.8934199999999253,1500,,,,-0.125,-0.19140625,-0.90234375,0.014629099009949187,0.5909103976308762,22.90697462596856,3.1913511232920273,3982,0,73.10419920380673,6.100465478525559,8.344890642352993,0.09686316555858868,0.008083125238585554,0.1484375,,
2.9020449999999256,1500,,,,0.01953125,-0.064453125,-0.9375,0.014629099009949187,0.5909103976308762,22.90713683162567,3.169642777520991,3737,0,72.60744081204739,5.72507787119421,7.884974056604232,0.10321438606172471,0.008138427563650328,0.150390625,,
2.9106349999997763,1500,,,,-0.03125,0.20703125,-0.98046875,0.014629099009949187,0.5909103976308762,22.907544925946357,3.145833266961711,3723,0,72.063316892462,5.703577906207781,7.914675804777437,0.10360345862686098,0.008199877872852767,0.150390625,,
2.9181699999999253,1500,,,,-0.125,0.1875,-1.234375,0.014629099009949187,0.5909103976308762,22.908079171941672,3.121290513976223,3752,0,71.50277021279783,5.74784108093335,8.038627124274104,0.10280562550538064,0.008264160897155183,0.15234375,,
2.9257200000006707,1500,,,,-0.0625,-0.08203125,-0.759765625,0.014629099009949187,0.5909103976308762,22.90878571128908,3.094359382578384,3776,0,70.88801600920499,5.784251199622894,8.15970247900829,0.10215849506491018,0.008335829254329038,0.15625,,
2.934660000000149,1500,,,,0,0.2109375,-1.16796875,0.014629099009949187,0.5909103976308762,22.909911530896764,3.052893462581138,3801,0,69.94151914098695,5.823425535614387,8.326135330111464,0.10147127219486865,0.008448635444130529,0.158203125,,
2.9432099999990315,1500,,,,0,-0.2578125,-1.001953125,0.014629099009949187,0.5909103976308762,22.910915633412614,3.0141155823520727,3837,0,69.05614781662267,5.877694010462805,8.511471022204878,0.10053439266811176,0.008556955699295998,0.1640625,,
2.9515999999996274,1500,,,,0.09375,0.103515625,-1.021484375,0.014629099009949187,0.6154356775303057,22.912124910697145,2.976194996779199,3863,0,68.1909515247969,5.918028180263631,8.678612114851637,0.10399336717975713,0.009025180962704547,0.169921875,,
2.9594550000000743,1500,,,,-0.28125,0.208984375,-0.810546875,0.014629099009949187,0.6154356775303057,22.913319365509015,2.935641983579245,3888,0,67.26530231254762,5.955708926841908,8.854058068703475,0.10333541902234104,0.009149378005776134,0.17578125,,
2.9678800000008194,1500,,,,0.375,-0.125,-1.3828125,0.03969937103753025,0.6154356775303057,22.914605571751714,2.8937310894668378,3906,0,66.30870654584795,16.236545589978967,24.486295142482536,0.03790434819523104,0.009281370570918523,0.181640625,,
2.976464999999851,1500,,,,-0.1875,-0.033203125,-0.677734375,0.03969937103753025,0.6154356775303057,22.916209919515786,2.8472640421015423,3925,0,65.24850048508797,16.317987482050242,25.008984667440114,0.03771517034237732,0.009432181168224066,0.185546875,,
2.984804999999702,1500,,,,0.21875,-0.185546875,-1.185546875,0.03969937103753025,0.6154356775303057,22.917578644211428,2.807086977724945,3949,0,64.3316365731532,16.415700296794565,25.51730559213714,0.03749067456174742,0.009566609996474712,0.19140625,,
2.9928550000004472,1500,,,,-0.6875,0.61328125,-0.8359375,0.03969937103753025,0.6154356775303057,22.91902092923449,2.766291551016461,3959,0,63.40069395411082,16.457919709943237,25.958579762321556,0.03739449993540091,0.009707081092452326,0.197265625,,
3.000570000000298,1500,,,,0.3125,-0.267578125,-1.154296875,0.03969937103753025,0.6154356775303057,22.920438776110522,2.728645098065492,3964,0,62.5417429119442,16.47801438200838,26.347226052220257,0.03734889794745372,0.009840398570228684,0.19921875,,
3.0087599999997763,1500,,,,-0.5625,0.3828125,-0.87109375,0.03969937103753025,0.6154356775303057,22.92165448049238,2.690362569924551,3974,0,61.66756125506007,16.52297155759723,26.793619240523242,0.037247275732755804,0.009979893237302404,0.205078125,,
3.0182000000011175,1500,,,,0.21875,-0.134765625,-1.05859375,0.03969937103753025,0.6154356775303057,22.92302642137215,2.648491282599356,3984,0,60.711435647798844,16.562950258540027,27.28143401949108,0.03715737039136374,0.010137063486697812,0.208984375,,
3.0267550000008194,1500,,,,-0.40625,0.19140625,-0.8046875,0.03969937103753025,0.6154356775303057,22.924290591339638,2.6065419557228737,3998,0,59.75312523150989,16.62247094831381,27.81858000549937,0.03702431963598864,0.010299639979429313,0.21484375,,
3.0355849999990316,1500,,,,0,0.052734375,-1.109375,0.03969937103753025,0.6154356775303057,22.925820308571243,2.566293473953422,4004,0,58.83438304291521,16.647117675972893,28.294879312034404,0.03696950364077596,0.01046047643741572,0.220703125,,
3.0460600000005216,1500,,,,0.1875,-0.234375,-1.03515625,0.03969937103753025,0.6154356775303057,22.926920734717594,2.533357411922475,4008,0,58.08208457585589,16.662480485654513,28.687814163923676,0.03693541775248663,0.010595964005502239,0.224609375,,
3.053265000000596,1500,,,,-0.375,0.34375,-0.81640625,0.03969937103753025,0.6154356775303057,22.92806814993701,2.496993968312046,4021,0,57.25124787544024,16.715805936469042,29.197277887876087,0.03681758928461854,0.010749733855046966,0.228515625,,
3.061820000000298,1500,,,,0.15625,-0.236328125,-1.05859375,0.03969937103753025,0.6154356775303057,22.929060034421035,2.471441246063259,4026,0,56.6678247025288,16.73766555258998,29.536453252709848,0.03676950501828335,0.010860407660978063,0.23046875,,
3.0697599999997767,1500,,,,-0.34375,0.166015625,-0.87890625,0.03969937103753025,0.6154356775303057,22.930171449890075,2.4378282245605907,4028,0,55.899819154555466,16.74607001214359,29.95728835158297,0.036751051266596634,0.011009618400172439,0.236328125,,
3.0820400000009687,1500,,,,0.5,-0.40625,-1.11328125,0.03969937103753025,0.6154356775303057,22.93186067382132,2.386404436854816,4033,0,54.72469405734367,16.76573692140241,30.636511012440398,0.03670794074936648,0.01124603231011976,0.240234375,,
3.090804999999702,1500,,,,-0.08203125,0.03125,-0.95703125,0.03969937103753025,0.6154356775303057,22.93281884549824,2.355495241287062,4040,0,54.018145659869354,16.793867876193346,31.08930836304084,0.03664645226861259,0.011393128549903543,0.2421875,,
3.0986150000002235,1500,,,,-0.40625,0.27734375,-0.84765625,0.03969937103753025,2.255207733310976,22.933946086578157,2.3269736189588013,4039,0,53.366687522090814,16.789984197217354,31.46154460170915,0.13431863346748932,0.04225871677678039,0.248046875,,
3.106605000000447,1500,,,,0.5,-0.2734375,-1.08203125,0.03969937103753025,2.255207733310976,22.934736808971937,2.3039919704391405,4037,0,52.84144945200634,16.782025386621246,31.759207138826977,0.1343823335596217,0.042678763673189665,0.251953125,,
3.1147050000000744,1500,,,,-0.4375,0.36328125,-0.90234375,0.07039819680854503,2.255207733310976,22.93565103543312,2.278952158517165,4042,0,52.26925143419676,29.79458290008041,57.00212282088955,0.07569187126646736,0.04314597342474132,0.255859375,,
3.122679999999702,1500,,,,0.0625,0.10546875,-0.939453125,0.07039819680854503,2.255207733310976,22.936450959895144,2.253044573551082,4043,0,51.67684637171225,29.808449771846842,57.68240878600498,0.07565665945637166,0.04364058358145999,0.259765625,,
3.130515000000596,1500,,,,-0.375,0.1015625,-1.0234375,0.07039819680854503,2.255207733310976,22.937405677462156,2.229417833539149,4049,0,51.13706127245626,29.84805569696813,58.36873483585391,0.07555626926614362,0.04410123845981914,0.26171875,,
3.1377200000006704,1500,,,,0.0625,0.064453125,-0.951171875,0.07039819680854503,2.255207733310976,22.938038888898284,2.2077459083302617,4055,0,50.64136150208561,29.894694402109984,59.03216958509064,0.0754383939496569,0.04453292064863022,0.267578125,,
3.1458300000000743,1500,,,,-0.375,0.15234375,-1,0.07039819680854503,2.255207733310976,22.938592212900105,2.1858261062057784,4050,0,50.13977369856563,29.85480449662384,59.543157645878864,0.07553918946499912,0.044978418667563545,0.26953125,,
3.1536850000005217,1500,,,,0.125,0.033203125,-0.9375,0.07039819680854503,2.255207733310976,22.939252248257212,2.16466472470586,4047,0,49.65579015293198,29.834457553363254,60.08253511116799,0.07559070679522863,0.045416812951023296,0.2734375,,
3.161019999999553,1500,,,,-0.375,0.1640625,-1.04296875,0.07039819680854503,2.255207733310976,22.93993036959052,2.1449722446885398,4046,0,49.20551393785938,29.83105076594588,60.62542259718878,0.07559933946025947,0.04583241902846561,0.275390625,,
3.1679949999991805,1500,,,,0.09375,0.009765625,-0.935546875,0.07039819680854503,2.255207733310976,22.940446798415525,2.1299985474824332,4047,0,48.8631183592231,29.836096540440174,61.06056580567887,0.07558655436894174,0.046153577770692907,0.279296875,,
3.1765,1500,,,,-0.4375,0.1171875,-1.0234375,0.07039819680854503,2.255207733310976,22.94114151669522,2.1108265992221513,4054,0,48.42477172995988,29.887563704556833,61.71957582211115,0.07545639235114818,0.04657136528979657,0.28125,,
3.183230000000447,1500,,,,0.09375,0.01171875,-0.970703125,0.07039819680854503,2.255207733310976,22.94143439656251,2.096796208106074,4053,0,48.10351265122653,29.875717579037357,62.10714339231439,0.07548631182982425,0.04688239192971853,0.28515625,,
3.1903899999987333,1500,,,,-0.375,0.171875,-1.0546875,0.07039819680854503,2.255207733310976,22.941794184526117,2.086846802552257,4050,0,47.876009838790296,29.855906899105634,62.360892228983666,0.07553640024843905,0.04710517315258283,0.287109375,,
3.2004049999993294,1500,,,,0.09375,0.0078125,-0.94140625,0.07039819680854503,2.255207733310976,22.942244059505413,2.0748518305872135,4055,0,47.60175708464343,29.892003612914774,62.79600889471806,0.07544518468934677,0.04737656488815867,0.2890625,,
3.209015000000596,1500,,,,0.09375,-0.12890625,-1.025390625,0.07039819680854503,2.255207733310976,22.942826395527817,2.0534189913806826,4051,0,47.11123543652683,29.863599349699797,63.38954831684504,0.07551694311535312,0.047869849143511146,0.29296875,,
3.2165800000000746,1500,,,,-0.34375,0.2734375,-0.98046875,0.07039819680854503,2.255207733310976,22.94347488967907,2.0371726774114434,4054,0,46.73982017012973,29.888167158288205,63.94583258878047,0.07545486885720895,0.04825024411951468,0.296875,,
3.225464999999851,1500,,,,0.625,-0.36328125,-1.0234375,0.07039819680854503,2.255207733310976,22.943888988397994,2.023310839570179,4058,0,46.42261929212053,29.917083945267578,64.44505803735531,0.07538193687047882,0.04857993296586261,0.30078125,,
3.232219999998808,1500,,,,-0.34375,0.2578125,-0.98828125,0.07039819680854503,2.255207733310976,22.94428273405226,2.009068504526579,4060,0,46.096635799937374,29.932000943227163,64.93315710312167,0.075344369311911,0.048923477693659366,0.30078125,,
3.2399550000000743,1500,,,,0.5625,-0.33203125,-1.05859375,0.07039819680854503,2.255207733310976,22.944759758546297,1.995437739839463,4054,0,45.78483955375309,29.884857500953487,65.27238665075492,0.0754632252550986,0.04925664816763809,0.3046875,,
3.248035000000149,1500,,,,-0.34375,0.2421875,-0.935546875,0.07039819680854503,3.164471688292498,22.9451008492526,1.9823243782808453,4054,0,45.48463277558596,29.88844212953782,65.71107713895967,0.10587610001811197,0.06957232575462365,0.306640625,,
3.2560950000006708,1500,,,,0.125,0.0390625,-0.96875,0.07039819680854503,3.164471688292498,22.94544113450066,1.9701963722858211,4058,0,45.207024883691055,29.913983335496628,66.171094896113,0.10578570071400227,0.06999955640598053,0.310546875,,
3.2640250000003723,1500,,,,-0.4375,0.10546875,-0.95703125,0.0748114299095803,3.164471688292498,22.945859980091143,1.9584314701341952,4059,0,44.93789429430329,31.799893485884482,70.76409338992038,0.09951202162664984,0.07041877991808025,0.310546875,,
3.272155000001192,1500,,,,0.125,0.02734375,-0.95703125,0.0748114299095803,3.164471688292498,22.946105547008436,1.9476451392071097,4053,0,44.69087093236428,31.752129366191657,71.04835664143965,0.09966171565368763,0.07080801117260947,0.31640625,,
3.279644999999553,1500,,,,0.09375,-0.080078125,-1.03125,0.0748114299095803,3.164471688292498,22.946476071567016,1.9380378023276408,4054,0,44.471138056903534,31.76313873564421,71.42416435352146,0.0996271720697856,0.07115787511988929,0.318359375,,
3.287730000000447,1500,,,,-0.3125,0.3359375,-0.87890625,0.0748114299095803,3.164471688292498,22.946681547036416,1.9293238464539937,4057,0,44.271579905683176,31.78229427654573,71.78938349219793,0.0995671256693313,0.07147862567891489,0.3203125,,
3.298050000000745,1500,,,,0.125,-0.150390625,-1.009765625,0.0748114299095803,3.164471688292498,22.947257436495427,1.9169989314822329,4052,0,43.989867986209454,31.74194034620905,72.15738941558075,0.0996937066158412,0.07193637610561913,0.322265625,,
3.3070600000005217,1500,,,,-0.34375,0.24609375,-0.96875,0.0748114299095803,3.164471688292498,22.947831967234723,1.9069909797381517,4056,0,43.76130856606342,31.775392440937956,72.6106999130724,0.09958875233954743,0.07231209010844165,0.326171875,,
3.3162100000008943,1500,,,,0.15625,0.009765625,-0.974609375,0.0748114299095803,3.164471688292498,22.94791525594661,1.8964550406034593,4058,0,43.51968955848098,31.78787915576973,73.04252277133952,0.09954963251199234,0.0727135629963568,0.330078125,,
3.3242600000016393,1500,,,,-0.3125,0.0625,-1.0625,0.0748114299095803,3.164471688292498,22.948115782605157,1.8857242512718355,4053,0,43.2738184522525,31.755655639880096,73.38306804359934,0.09965064882232884,0.07312670343117779,0.330078125,,
3.332389999998733,1500,,,,0.125,0.037109375,-0.96875,0.0748114299095803,3.164471688292498,22.94838459728073,1.878374173076424,4054,0,43.10565294135694,31.757554447601724,73.67375803541655,0.09964469063616684,0.07341198827442892,0.333984375,,
3.3410649999994786,1500,,,,0.09375,-0.119140625,-1.005859375,0.0748114299095803,3.164471688292498,22.948469878155766,1.8719083562952348,4054,0,42.95743252910927,31.760807010156494,73.93553371383264,0.09963448621694532,0.07366528914753355,0.3359375,,
3.3517850000001492,1500,,,,-0.3125,0.236328125,-1,0.0748114299095803,3.164471688292498,22.94873464121293,1.8646533506548584,4051,0,42.79143494202691,31.736473470994603,74.165480811734,0.09971087969760255,0.07395105334933659,0.337890625,,
3.3619350000005217,1500,,,,0.125,0.05078125,-0.96875,0.0748114299095803,3.164471688292498,22.94910908272447,1.8540274053450398,4057,0,42.54827716762394,31.78687581034628,74.70778589957509,0.09955277477324452,0.07437367383468171,0.33984375,,
3.369730000000447,1500,,,,0.09375,-0.166015625,-1.009765625,0.0748114299095803,3.164471688292498,22.94925637379567,1.8479259497843588,4050,0,42.40852638139111,31.72505114882904,74.80819037076942,0.09974677971194688,0.07461876085562524,0.34375,,
3.378210000000894,1500,,,,-0.3125,0.42578125,-0.99609375,0.0748114299095803,3.164471688292498,22.949457758636452,1.8425225539680812,4056,0,42.284893521625435,31.77477721382677,75.14451277399206,0.09959068058911458,0.07483693169699283,0.345703125,,
3.386949999999255,1500,,,,0.09375,-0.08984375,-1.0390625,0.0748114299095803,3.164471688292498,22.949596523290445,1.83685383422834,4054,0,42.15505436779944,31.75941184830929,75.33951106126206,0.0996388630685854,0.07506743226287264,0.34765625,,
3.394519999999553,1500,,,,-0.3125,0.20703125,-1,0.0748114299095803,3.164471688292498,22.94971483277005,1.8322314608313726,4053,0,42.049189533709686,31.75535144083746,75.51953270200383,0.09965160342149383,0.07525642523396622,0.34765625,,
3.401385000001639,1500,,,,0.5625,-0.34375,-0.9609375,0.0748114299095803,3.5736523344986555,22.949810050305338,1.827966037263544,4055,0,41.9514733336077,31.770486032270718,75.73151431327466,0.11248340144588079,0.0851853832660454,0.3515625,,
3.4102949999999255,1500,,,,-0.34375,0.267578125,-1.04296875,0.0748114299095803,3.5736523344986555,22.949920471058466,1.823354047282931,4052,0,41.845830375725846,31.741139914242094,75.85257510543909,0.11258739743291875,0.08540044019706391,0.3515625,,
3.4190099999997763,1500,,,,0.15625,-0.0234375,-0.96875,0.07294631140072562,3.5736523344986555,22.949815982006626,1.8214527088319257,4049,0,41.80200448762019,30.930847837517135,73.99369531831283,0.11553683731113391,0.0854899753804152,0.35546875,,
3.426825000001118,1500,,,,-0.375,0.16015625,-1.1015625,0.07294631140072562,3.5736523344986555,22.949989174436716,1.8156663817474183,4048,0,41.669523805491934,30.924343936836895,74.21333654108413,0.1155611366177357,0.08576177522882221,0.35546875,,
3.4342799999993296,1500,,,,0.15625,-0.001953125,-0.947265625,0.07294631140072562,3.5736523344986555,22.950214307019277,1.8125822036744768,4048,0,41.5991500234185,30.921815449715442,74.33280591624543,0.11557058609026599,0.08590685945474474,0.357421875,,
3.4422649999987334,1500,,,,0.09375,-0.091796875,-1.0625,0.07294631140072562,3.5736523344986555,22.950692520813913,1.8069498270391078,4054,0,41.47074988091244,30.97034061749517,74.67996288089729,0.11538950696847991,0.08617284097251118,0.359375,,
3.449335000000894,1500,,,,-0.25,0.1953125,-0.96875,0.07294631140072562,3.5736523344986555,22.950749547072267,1.8045372570201463,4051,0,41.41548263423015,30.941877664655202,74.71089480696176,0.11549565198432757,0.08628783506062561,0.359375,,
3.4571749999988826,1500,,,,-0.375,0.12890625,-1.16015625,0.07294631140072562,3.5736523344986555,22.950804803300528,1.800382654204599,4052,0,41.32023086789787,30.952869659151542,74.90972099867709,0.11545463712577186,0.08648674655095077,0.361328125,,
3.4647750000003725,1500,,,,0.15625,-0.06640625,-0.943359375,0.07294631140072562,3.5736523344986555,22.951059032896623,1.7969327992872353,4056,0,41.24151075458951,30.98264707368254,75.12490814909023,0.11534367370224502,0.0866518289245979,0.36328125,,
3.472885000001639,1500,,,,0.09375,-0.078125,-1.060546875,0.07294631140072562,3.5736523344986555,22.95110503254945,1.7930242692496285,4051,0,41.15188832945845,30.944887722081138,75.1967624774325,0.11548441754237253,0.08684054315778426,0.36328125,,
3.4811349999997763,1500,,,,-0.3125,0.24609375,-0.9765625,0.07294631140072562,3.5736523344986555,22.951214692673858,1.7924791976200636,4049,0,41.139574896729854,30.92986487968885,75.1827527565129,0.11554050909693485,0.08686653528796481,0.365234375,,
3.4902599999997763,1500,,,,0.0625,-0.11328125,-1.052734375,0.07294631140072562,3.5736523344986555,22.951148112750044,1.791544164767727,4051,0,41.11799547611717,30.943648306154397,75.25573157895694,0.11548904315164057,0.0869121243173044,0.3671875,,
3.4983050000015647,1500,,,,-0.34375,0.15625,-1.00390625,0.07294631140072562,3.5736523344986555,22.951189994306613,1.7878785417205132,4054,0,41.03394009777134,30.96725798270091,75.46742503623925,0.11540099341359145,0.08709015819547754,0.3671875,,
3.5081100000012664,1500,,,,0.5625,-0.36328125,-1,0.07294631140072562,3.5736523344986555,22.951164519670176,1.784411889768893,4050,0,40.954330852941425,30.938792717944406,75.54461780620771,0.11550716820394702,0.08725944875844524,0.37109375,,
3.516660000000149,1500,,,,-0.0625,0.001953125,-0.9921875,0.07294631140072562,3.5736523344986555,22.951397371450835,1.7787674908987998,4056,0,40.825199515036914,30.982986481466884,75.89181889988093,0.11534241015262714,0.08753545302778967,0.37109375,,
3.525535000000149,1500,,,,-0.3125,0.16796875,-0.89453125,0.07294631140072562,3.5736523344986555,22.951493235026774,1.7761341745691928,4049,0,40.76493149212469,30.930553154070825,75.87539589032856,0.11553793806071395,0.0876648679070893,0.373046875,,
3.5333050000015644,1500,,,,0.0625,-0.09765625,-1.044921875,0.07294631140072562,3.5736523344986555,22.95173767637107,1.7738620185936989,4048,0,40.71321572484064,30.92391084233861,75.9554613699325,0.11556275507061314,0.08777622378568928,0.375,,
3.541300000000745,1500,,,,-0.34375,0.185546875,-1.029296875,0.07294631140072562,3.5736523344986555,22.952015002462026,1.7707605534629152,4051,0,40.64252278884879,30.944079773040166,76.13720224456732,0.11548743283722328,0.08792890030633554,0.375,,
3.5500449999999253,1500,,,,0.5,-0.33203125,-0.9453125,0.07294631140072562,3.736940353717263,22.95212388546,1.7681620303163263,4057,0,40.5830739693868,30.988789571096316,76.35890172950481,0.12059007161747165,0.09208125428192465,0.376953125,,
3.558135000001639,1500,,,,-0.34375,0.177734375,-1.025390625,0.07294631140072562,3.736940353717263,22.95224903811839,1.764356667064491,4050,0,40.49595361452873,30.940079185257158,76.40289071784395,0.1207799220985156,0.0922793518900259,0.376953125,,
3.5662000000011176,1500,,,,0.09375,-0.0078125,-0.921875,0.0720351116105024,3.736940353717263,22.95204150528646,1.7661707379513916,4048,0,40.53722408288275,30.539362754043626,75.33659110846511,0.12236471284006953,0.0921854033733707,0.37890625,,
3.5739900000002236,1500,,,,-0.4375,0.171875,-1.14453125,0.0720351116105024,3.736940353717263,22.95229998351887,1.76460985301093,4051,0,40.501854700180004,30.56051948546188,75.4546173544148,0.12228000101552543,0.0922659068672392,0.380859375,,
3.5819550000000744,1500,,,,0.09375,0,-0.943359375,0.0720351116105024,3.736940353717263,22.952482279276378,1.765463919058242,4056,0,40.521779316886125,30.593481861854702,75.49886105101477,0.12214825270923624,0.09222053958918867,0.3828125,,
3.5899900000002236,1500,,,,-0.4375,0.24609375,-1.1796875,0.0720351116105024,3.736940353717263,22.952393318237544,1.7673356312020432,4051,0,40.56458253268491,30.557398686859518,75.33024322939326,0.12229248935787998,0.09212322968457086,0.3828125,,
3.598269999999553,1500,,,,0.09375,0.00390625,-0.921875,0.0720351116105024,3.736940353717263,22.95217768637349,1.7706126855548385,4049,0,40.6394169726016,30.54315623439614,75.15648232598369,0.12234951506121401,0.09195359166290808,0.384765625,,
3.606105000000447,1500,,,,-0.375,0.21484375,-1.125,0.0720351116105024,3.736940353717263,22.95197348397747,1.7696815583646415,4052,0,40.617684202669174,30.569050257956853,75.26044593144978,0.12224587686510054,0.09200279206148568,0.384765625,,
3.614714999999851,1500,,,,0.125,-0.017578125,-0.927734375,0.0720351116105024,3.736940353717263,22.952299898174303,1.7660438800228737,4058,0,40.534768767620356,30.610729701458204,75.51721801336735,0.12207942738259017,0.0921909873259811,0.38671875,,
3.6226399999987335,1500,,,,0.0625,-0.033203125,-0.99609375,0.0720351116105024,3.736940353717263,22.95206403794394,1.7656665501229583,4059,0,40.525691728077696,30.620806495531024,75.5589977365292,0.12203925308964848,0.09221163647968462,0.38671875,,
3.6310499999988823,1500,,,,-0.34375,0.2421875,-1.037109375,0.0720351116105024,3.736940353717263,22.952060886828402,1.7724035113991046,4052,0,40.680313309660704,30.567393245010667,75.14050595512883,0.12225250363235413,0.09186114977216313,0.388671875,,
3.6384900000002234,1500,,,,0.5,-0.2421875,-0.8984375,0.0720351116105024,3.736940353717263,22.951867490247274,1.7763758124684572,4056,0,40.77114226065637,30.593457558224358,75.03703811542866,0.12214834974455743,0.09165650375519066,0.390625,,
3.6458400000017135,1500,,,,-0.3125,0.197265625,-0.994140625,0.0720351116105024,3.736940353717263,22.95187331110791,1.7718161760191864,4060,0,40.66650040256404,30.625261495856503,75.30832796698081,0.12202150026450743,0.09189235160942562,0.388671875,,
3.653875,1500,,,,0.125,-0.048828125,-0.951171875,0.0720351116105024,3.736940353717263,22.95168009363877,1.76939620432528,4062,0,40.610615640572526,30.640189498820316,75.44871954171722,0.12196205098082503,0.09201880579184886,0.390625,,
3.6652249999996274,1500,,,,-0.375,0.1640625,-1.08203125,0.0720351116105024,3.736940353717263,22.95182466805929,1.7664335230993993,4062,0,40.54287250995967,30.638910243003608,75.57163157464218,0.12196714322013438,0.09217256011643613,0.390625,,
3.673179999999702,1500,,,,0.09375,0.017578125,-0.94921875,0.0720351116105024,3.736940353717263,22.95156567245877,1.761973215104459,4062,0,40.44004395958331,30.638312949676422,75.7623136619165,0.12196952096726754,0.09240693104715823,0.392578125,,
3.6815999999996274,1500,,,,0.03125,0.01171875,-1.05859375,0.0720351116105024,3.736940353717263,22.95179299570156,1.7623299432160722,4062,0,40.44863204682177,30.638156659378648,75.74584135234315,0.12197014315394031,0.09238731113060944,0.392578125,,
3.690045000001788,1500,,,,-0.34375,0.189453125,-1.01171875,0.0720351116105024,3.736940353717263,22.95194145386697,1.7595330845847375,4062,0,40.38470034353085,30.638097084817623,75.86560460817057,0.12197038032003181,0.09253356647267723,0.392578125,,
3.6993500000014903,1500,,,,0.5,-0.359375,-0.88671875,0.0720351116105024,3.80274169014343,22.952101653666727,1.758045093557898,4062,0,40.35082969907091,30.638073095463152,75.92922704181373,0.12411817408669004,0.09424197020243649,0.39453125,,
3.7085550000015646,1500,,,,-0.34375,0.216796875,-1.00390625,0.0720351116105024,3.80274169014343,22.951892640102912,1.7579361933104911,4061,0,40.34796277701359,30.630892537252222,75.91682560662709,0.12414727012994049,0.09424866655993518,0.39453125,,
3.715410000000149,1500,,,,0.09375,-0.060546875,-0.916015625,0.0716042837526572,3.80274169014343,22.95202775937974,1.753822717641947,4059,0,40.25378770034878,30.438074908700475,75.61543061558092,0.12493371218612934,0.09446916445357217,0.396484375,,
3.722815000001341,1500,,,,-0.375,0.203125,-1.09375,0.0716042837526572,3.80274169014343,22.95202662878876,1.7539127834935018,4057,0,40.25585291131587,30.417193745181905,75.55968025864797,0.12501947819383522,0.09446431798429201,0.396484375,,
3.736160000000149,1500,,,,0.09375,-0.033203125,-0.9296875,0.0716042837526572,3.80274169014343,22.951861094280066,1.7551398292538904,4056,0,40.28372556207373,30.4151670152487,75.50236873792015,0.12502780892956855,0.09439895732294509,0.3984375,,
3.744355000000447,1500,,,,-0.0625,0.029296875,-0.96484375,0.0716042837526572,3.80274169014343,22.951718244735435,1.7565138352813257,4058,0,40.31501064035661,30.431754251414034,75.48492178977841,0.12495966084395982,0.09432570225683543,0.3984375,,
3.7519599999990314,1500,,,,-0.375,0.12890625,-1.1484375,0.0716042837526572,3.80274169014343,22.951666848188623,1.7558472139096664,4058,0,40.29962028997485,30.424804791545697,75.49650486189404,0.12498820341487016,0.09436172506790146,0.400390625,,
3.760299999998882,1500,,,,0.09375,-0.05859375,-0.94921875,0.0716042837526572,3.80274169014343,22.951976696713302,1.7539379954486718,4053,0,40.25634399901796,30.394206070813542,75.5016552709183,0.12511403263120813,0.094463165612759,0.40234375,,
3.7681200000010433,1500,,,,0.03125,-0.091796875,-1.0390625,0.0716042837526572,3.80274169014343,22.952173352896178,1.752443689305196,4058,0,40.22239134812179,30.43082673146885,75.65643342309592,0.12496346956656859,0.0945429041558217,0.40234375,,
3.776289999999106,1500,,,,-0.3125,0.24609375,-0.8984375,0.0716042837526572,3.80274169014343,22.95229696561679,1.7506808955516118,4060,0,40.182147806732544,30.445434539161802,75.76855942494107,0.12490351173184877,0.09463759151038406,0.404296875,,
3.784429999999702,1500,,,,0.0625,-0.044921875,-1.01953125,0.0716042837526572,3.80274169014343,22.95218476461943,1.7496638646296256,4061,0,40.15860829695725,30.451106861459873,75.82709698574665,0.12488024515641928,0.09469306461079621,0.404296875,,
3.7923949999995528,1500,,,,-0.375,0.234375,-0.998046875,0.0716042837526572,3.80274169014343,22.95217580765988,1.7493323732116517,4053,0,40.15098417598472,30.39075566308489,75.69118487825845,0.12512823742525603,0.09471104552445671,0.404296875,,
3.8002949999999256,1500,,,,0.5,-0.35546875,-0.94140625,0.0716042837526572,3.80274169014343,22.95203700004056,1.7507132960905987,4058,0,40.182436348334384,30.429472253054225,75.72829081160373,0.12496903194769493,0.09463691193779639,0.408203125,,
3.809410000000149,1500,,,,-0.34375,0.17578125,-1.025390625,0.0716042837526572,3.80274169014343,22.951887848128433,1.7510002608846698,4060,0,40.188761609868564,30.440826315305713,75.74462385979768,0.12492242000117465,0.0946220171464464,0.40625,,
3.8200250000003724,1500,,,,0.125,-0.080078125,-0.94921875,0.0716042837526572,3.80274169014343,22.951893371116963,1.7512386550002101,4060,0,40.19424287694311,30.439990745031945,75.73221577584047,0.12492584909093865,0.0946091135933505,0.408203125,,
3.8308300000000743,1500,,,,0.0625,-0.068359375,-1.001953125,0.0716042837526572,3.80274169014343,22.951901975141773,1.7497980643374127,4056,0,40.16119364896512,30.412432455774717,75.72591771449599,0.12503905091029194,0.09468696880331444,0.408203125,,
3.8398250000011176,1500,,,,-0.34375,0.2109375,-1.01171875,0.0716042837526572,3.80274169014343,22.951853507095645,1.7482019358584275,4056,0,40.12447473264365,30.413758365784975,75.79852089887066,0.1250335997415386,0.09477361923070043,0.41015625,,
3.8488650000002234,1500,,,,0.09375,-0.068359375,-0.921875,0.0716042837526572,3.8299756851903615,22.951861764047756,1.7475425440577381,4055,0,40.10935489800554,30.406839925933436,75.80984536713513,0.1259577020999096,0.09548833918993818,0.41015625,,
3.857375,1500,,,,0.0625,-0.08203125,-1.0859375,0.0716042837526572,3.8299756851903615,22.952159327410584,1.74681749758115,4053,0,40.0932335203912,30.390947077399836,75.80068856741914,0.12602357127720165,0.0955267347853711,0.412109375,,
3.8663250000011176,1500,,,,-0.3125,0.3046875,-0.9296875,0.07146915646828576,3.8299756851903615,22.952002668980306,1.749246521987364,4057,0,40.1487108413585,30.367247718380902,75.63691855106492,0.12612192322164667,0.09539473634219355,0.412109375,,
3.874285000000149,1500,,,,0.03125,-0.080078125,-1.033203125,0.07146915646828576,3.8299756851903615,22.951904788630348,1.7533946121397663,4059,0,40.243746194729354,30.378481778333065,75.48621748914537,0.1260752829301044,0.09516946227267396,0.4140625,,
3.882285000000149,1500,,,,-0.34375,0.189453125,-1.033203125,0.07146915646828576,3.8299756851903615,22.951909512028198,1.7547882605902774,4056,0,40.275741369837405,30.3586389863008,75.37698364762183,0.1261576873363335,0.09509385935372598,0.4140625,,
3.890675000000745,1500,,,,0.5,-0.3515625,-0.95703125,0.07146915646828576,3.8299756851903615,22.951979719233144,1.7511070082546631,4054,0,40.19137253966805,30.342628508803884,75.4953777178332,0.12622425522822117,0.0952934782560674,0.416015625,,
3.8980449999999256,1500,,,,-0.34375,0.150390625,-1.046875,0.07146915646828576,3.8299756851903615,22.952273901474776,1.7475241686908296,4058,0,40.109653369238934,30.36872863259591,75.7142634792412,0.12611577295598417,0.09548762862477547,0.416015625,,
3.906609999999404,1500,,,,0.09375,-0.09375,-0.8828125,0.07146915646828576,3.8299756851903615,22.95226052124718,1.7439377269802625,4060,0,40.02731304248262,30.386074791232762,75.9133513633123,0.12604377865532726,0.09568405656221421,0.416015625,,
3.915464999999851,1500,,,,-0.375,0.12890625,-1.140625,0.07146915646828576,3.8299756851903615,22.952356986268995,1.7449607095882311,4061,0,40.05096113348234,30.39333510079664,75.88665600184065,0.12601366952618417,0.09562755990863168,0.416015625,,
3.923390000000596,1500,,,,0.09375,-0.03125,-0.9375,0.07146915646828576,3.8299756851903615,22.952437582867347,1.7442213854436501,4057,0,40.03413248009779,30.36449337629234,75.84651270109943,0.12613336365363792,0.09566775768388042,0.41796875,,
3.9310250000003726,1500,,,,0.03125,-0.0625,-1.080078125,0.07146915646828576,3.8299756851903615,22.95241634284521,1.7422523250247426,4054,0,39.98890073825797,30.34274552165891,75.87791852610131,0.1262237684607839,0.09577596819324838,0.41796875,,
3.9391300000008194,1500,,,,-0.25,0.1953125,-0.9375,0.07146915646828576,3.8299756851903615,22.952494836807645,1.7429281972646433,4059,0,40.00455044864318,30.37596722997524,75.93128004018226,0.12608571954906875,0.09573850080148223,0.41796875,,
3.948074999999255,1500,,,,0.03125,-0.09375,-1.021484375,0.07146915646828576,3.8299756851903615,22.952729442448373,1.741664655967677,4059,0,39.97595762790102,30.38190281799214,76.00043781512127,0.12606108669804092,0.09580697780501071,0.419921875,,
3.955695000000298,1500,,,,-0.375,0.2109375,-1.013671875,0.07146915646828576,3.8299756851903615,22.952689024697516,1.739321241930856,4058,0,39.92209958008961,30.374542729219666,76.08453224831992,0.1260916326982597,0.09593622894274051,0.419921875,,
3.9633850000016393,1500,,,,0.5,-0.29296875,-0.91015625,0.07146915646828576,3.8299756851903615,22.952830032324087,1.7400274078983287,4057,0,39.93855334507579,30.36156362953831,76.02068950071705,0.1261455349244344,0.09589670542392284,0.421875,,
3.9744250000007453,1500,,,,-0.3125,0.15625,-0.982421875,0.07146915646828576,3.8299756851903615,22.953051752105885,1.7395276150044607,4054,0,39.92746737141471,30.34142439183967,75.99135730197108,0.12622926451074704,0.09592333141401195,0.419921875,,
3.9827550000008194,1500,,,,0.09375,-0.005859375,-0.8828125,0.07146915646828576,3.8299756851903615,22.953070857539014,1.7403458671809602,4058,0,39.94628200602976,30.37269330677201,76.03384290479738,0.12609931053879953,0.09587815167910342,0.421875,,
3.9895649999994784,1500,,,,0.03125,-0.048828125,-1.02734375,0.07146915646828576,3.8299756851903615,22.953020781948165,1.739244663393139,4052,0,39.920918903755165,30.326198881527134,75.96568344190719,0.1262926389209743,0.09593906629313823,0.421875,,
3.9971399999987334,1500,,,,-0.3125,0.28515625,-0.92578125,0.07146915646828576,3.8399213566959975,22.952803046896364,1.7388381272225453,4057,0,39.91120906457321,30.359918503313068,76.06865142620235,0.1264799625953199,0.09621160187062501,0.423828125,,
4.005230000000447,1500,,,,0.0625,-0.08203125,-1.033203125,0.07146915646828576,3.8399213566959975,22.952763022722316,1.7380645558240688,4056,0,39.89338386802297,30.35704622501202,76.09544060097915,0.12649192969018766,0.09625459122242906,0.423828125,,
4.013490000000224,1500,,,,-0.3125,0.30859375,-0.89453125,0.07141844723575319,3.8399213566959975,22.952530516872702,1.7376642509453055,4051,0,39.88379174790087,30.29744328323256,75.96430017170358,0.1267407721766779,0.09627774061622656,0.42578125,,
4.0215399999991055,1500,,,,0.03125,-0.0703125,-1.001953125,0.07141844723575319,3.8399213566959975,22.952570247714707,1.7364251720002166,4056,0,39.85542074023507,30.338012576928246,76.12016637501269,0.12657128897152015,0.09634627574811923,0.42578125,,
4.029270000001415,1500,,,,-0.3125,0.16015625,-0.98046875,0.07141844723575319,3.8399213566959975,22.952738515477115,1.736422839998615,4054,0,39.855659398790365,30.316859193012473,76.06663558032263,0.12665960323426362,0.09634569881968985,0.42578125,,
4.037384999999777,1500,,,,0.5,-0.265625,-0.953125,0.07141844723575319,3.8399213566959975,22.952637173311913,1.737588507063097,4052,0,39.88223855913599,30.30621561179992,75.98925413091575,0.12670408624694465,0.09628149009244545,0.42578125,,
4.045185000000521,1500,,,,-0.375,0.26953125,-1.017578125,0.07141844723575319,3.8399213566959975,22.95267162606017,1.7395716012925893,4056,0,39.92781573448847,30.334549595509042,75.97347622826999,0.12658573830496198,0.09617158579950034,0.427734375,,
4.053464999999851,1500,,,,0.09375,0.052734375,-0.92578125,0.07141844723575319,3.8399213566959975,22.95244469923246,1.7391000202795244,4058,0,39.91659704189983,30.352464543613387,76.03970977724599,0.1265110235506057,0.09619861514410391,0.427734375,,
4.061214999999851,1500,,,,-0.375,0.1328125,-1.0703125,0.07141844723575319,3.8399213566959975,22.95242286115579,1.7375755304882474,4052,0,39.88156832896335,30.303937107492445,75.9848179929391,0.1267136129234707,0.09628310815217657,0.427734375,,
4.069675000000745,1500,,,,0.125,0.001953125,-0.908203125,0.07141844723575319,3.8399213566959975,22.952598784504584,1.7387969118374944,4049,0,39.9099078851416,30.284879340618545,75.88311009831612,0.12679335167585878,0.09621473864953707,0.427734375,,
4.077775000000373,1500,,,,0.0625,-0.048828125,-1.0078125,0.07141844723575319,3.8399213566959975,22.952667034057995,1.7377302285218605,4048,0,39.88554333027977,30.277418697621783,75.91075906100589,0.12682459475971158,0.09627351255814177,0.427734375,,
4.08600500000082,1500,,,,-0.3125,0.296875,-0.921875,0.07141844723575319,3.8399213566959975,22.952555160184495,1.7369252724787705,4056,0,39.86687312568746,30.333644191349208,76.08734222951712,0.12658951665923138,0.09631859876720097,0.4296875,,
4.093570000000298,1500,,,,0.03125,-0.052734375,-0.9765625,0.07141844723575319,3.8399213566959975,22.9525317096269,1.736074716660541,4054,0,39.847309984432606,30.316597900462966,76.08191848410077,0.12666069488744836,0.09636588663566406,0.4296875,,
4.101515000000596,1500,,,,-0.25,0.26171875,-0.91015625,0.07141844723575319,3.8399213566959975,22.95250574179517,1.7357706506671182,4053,0,39.84028582587657,30.314200433081414,76.08931463386266,0.1266707121361364,0.09638287670621928,0.4296875,,
4.1095,1500,,,,0.03125,-0.021484375,-1.017578125,0.07141844723575319,3.8399213566959975,22.95248104594984,1.7354814846254358,4056,0,39.833605881462205,30.337539610869698,76.16066620016494,0.12657326223383603,0.09639903974857127,0.4296875,,
4.117540000000969,1500,,,,-0.25,0.2265625,-0.9609375,0.07141844723575319,3.8399213566959975,22.95245745958247,1.7354188177789376,4050,0,39.832126589629965,30.29117615426559,76.04709752592446,0.12676699435968458,0.09640261983139248,0.4296875,,
4.128200000001118,1500,,,,0.0625,-0.033203125,-1.00390625,0.07141844723575319,3.8399213566959975,22.95243546918953,1.735465074176848,4053,0,39.833150124076326,30.314407566525812,76.10346525971316,0.12666984661564581,0.09640014271366995,0.4296875,,
4.140330000000074,1500,,,,-0.041015625,0.0625,-0.98828125,0.07141844723575319,3.8399213566959975,22.952395494122435,1.732251213653905,4051,0,39.75931495095801,30.299670295758865,76.20772725368296,0.12673145678530642,0.0965791629315654,0.4296875,,
4.149404999999329,1500,,,,-0.3125,0.212890625,-1.03125,0.07141844723575319,3.8502119437408764,22.95231275000644,1.7325530591274056,4053,0,39.76609966907261,30.315433109979125,76.23436384825143,0.12700501192818114,0.09682146289884476,0.4296875,,
4.157955000000075,1500,,,,0.125,-0.033203125,-0.90234375,0.07141844723575319,3.8502119437408764,22.95229576603447,1.7343006416740459,4051,0,39.80618127492607,30.300217902073797,76.11937877889311,0.12706878729995408,0.09672397151459808,0.431640625,,
4.166709999999031,1500,,,,0.0625,-0.009765625,-0.986328125,0.07130225394056096,3.8502119437408764,22.95227974396642,1.7340590587232456,4055,0,39.80060860837503,30.274721894935325,76.0659772638873,0.12717579890915465,0.09673751428340463,0.431640625,,
4.174539999999106,1500,,,,-0.25,0.19140625,-0.94140625,0.07130225394056096,3.8502119437408764,22.9523323695104,1.7342824174350207,4055,0,39.805826467566575,30.27477300997482,76.05613473354819,0.1271755841892629,0.09672483365916279,0.4296875,,
4.183420000001788,1500,,,,0.0625,-0.025390625,-0.955078125,0.07130225394056096,3.8502119437408764,22.952119084014836,1.7359888635757137,4050,0,39.84462312531336,30.24351638071914,75.90363268238664,0.12730701996661556,0.09663065281435251,0.431640625,,
4.191780000001192,1500,,,,-0.3125,0.23828125,-0.9765625,0.07130225394056096,3.8502119437408764,22.952039041970494,1.734453798425199,4057,0,39.80925129794919,30.28939115893304,76.08631202891631,0.1271142072000797,0.09671651232333585,0.431640625,,
4.199455000000074,1500,,,,0.5,-0.29296875,-0.90234375,0.07130225394056096,3.8502119437408764,22.95210168503199,1.7338114624647016,4051,0,39.794616989163856,30.24961736620014,76.01434479049557,0.12728134366562163,0.09675207942796121,0.431640625,,
4.2065849999990315,1500,,,,-0.3125,0.197265625,-0.998046875,0.07130225394056096,3.8502119437408764,22.95218374290633,1.7336410632580073,4055,0,39.79084822814528,30.279961568519333,76.097803683163,0.12715379228696785,0.09676124323023363,0.431640625,,
4.214330000000074,1500,,,,0.5,-0.359375,-0.91015625,0.07130225394056096,3.8502119437408764,22.952305580218017,1.7360102981327459,4057,0,39.84543885314817,30.294146508943626,76.02914506875887,0.12709425375638797,0.09662867456250072,0.43359375,,
4.222679999999702,1500,,,,-0.3125,0.248046875,-0.96875,0.07130225394056096,3.8502119437408764,22.95209489899356,1.7392133880673117,4051,0,39.918590732521054,30.25127374849464,75.78241915201029,0.12727437448588327,0.0964515999459913,0.431640625,,
4.23061999999918,1500,,,,0.125,-0.056640625,-0.861328125,0.07130225394056096,3.8502119437408764,22.951892942849803,1.7499953943922026,4054,0,40.165706942570054,30.271354745894882,75.36616942701303,0.127189944951605,0.09585818940635123,0.43359375,,
4.238535000000149,1500,,,,-0.375,0.2421875,-1.015625,0.07130225394056096,3.8502119437408764,22.95170443726367,1.754384790308541,4059,0,40.26612117639243,30.304457916947676,75.26043490554744,0.12705100861044136,0.09561914163210268,0.431640625,,
