Time (s),ESC signal (µs),Servo 1 (µs),Servo 2 (µs),Servo 3 (µs),AccX (g),AccY (g),AccZ (g),Torque (N·m),Thrust (N),Voltage (V),Current (A),Motor Electrical Speed (RPM),Motor Optical Speed (RPM),Electrical Power (W),Mechanical Power (W),Motor Efficiency (%),Propeller Mech. Efficiency (N/W),Overall Efficiency (N/W),Vibration (g),App message,90% settling time (s),Max acceleration (RPM/s),
0,1000,,,,-0.0625,0.046875,-0.953125,0.0010199699578620546,-0.010302372523817598,15.123855139585036,0.05378513234756423,0,0,0.8134385502879706,0,0,0,0,0.06640625,,
0,1200,,,,-0.0625,0.048828125,-0.955078125,0.0010199699578620546,-0.010302372523817598,15.123745753194374,0.05304801729422112,0,0,0.8022847262688584,0,0,0,0,0.06640625,,
0.007784999999974389,1200,,,,-0.0625,0.05078125,-0.95703125,0.0010199699578620546,-0.010302372523817598,15.123758142602147,0.05322511345085888,0,0,0.8049637429433502,0,0,0,0,0.06640625,,
0.015700000000011642,1200,,,,-0.0625,0.05078125,-0.953125,0.0010199699578620546,-0.010302372523817598,15.123681741126964,0.05196061182439467,0,0,0.7858357563063835,0,0,0,0,0.06640625,,
0.023255000000004657,1200,,,,-0.0625,0.048828125,-0.955078125,0.0010199699578620546,-0.010302372523817598,15.123568778838907,0.05208368388145926,0,0,0.7876911754365524,0,0,0,0,0.06640625,,
0.03019000000000233,1200,,,,-0.0625,0.048828125,-0.95703125,0.0010199699578620546,-0.010302372523817598,15.123410777772339,0.05171081167672281,0,0,0.7820438466391055,0,0,0,0,0.06640625,,
0.038350000000034926,1200,,,,-0.0625,0.05078125,-0.95703125,0.0010199699578620546,-0.010302372523817598,15.123133366835228,0.05163234276185345,0,0,0.7808428056296594,0,0,0,0,0.06640625,,
0.04653499999997439,1200,,,,-0.0625,0.05078125,-0.958984375,0.0010199699578620546,-0.010302372523817598,15.12297978546985,0.05134841430276588,0,0,0.7765410315166593,0,0,0,0,0.06640625,,
0.054455000000016296,1200,,,,0,0.01171875,-0.953125,0.0010199699578620546,-0.010302372523817598,15.121910562567937,0.07887925711159459,0,0,1.1928050712833342,0,0,0,0,0.06640625,,
0.06354000000003725,1200,,,,-0.03125,0.021484375,-0.962890625,0.0010199699578620546,-0.010302372523817598,15.120935195512017,0.11204530905642232,0,0,1.6942298572032777,0,0,0,0,0.064453125,,
0.0715350000000326,1200,,,,-0.09375,0.01171875,-1.09765625,0.0010199699578620546,-0.010302372523817598,15.120197425219192,0.14309972242969118,0,0,2.163696054630998,0,0,0,0,0.068359375,,
0.07940499999996974,1200,,,,-0.0625,0.099609375,-0.994140625,0.0010199699578620546,-0.010302372523817598,15.119205142103917,0.17391484148890546,0,0,2.629454165727247,0,0,0,0,0.068359375,,
0.0873299999999581,1200,,,,0,0.01953125,-0.95703125,0.0010199699578620546,-0.012017361299025971,15.118363465611058,0.2022778869966156,0,0,3.0581106166706356,0,0,0,0,0.068359375,,
0.09545999999996274,1200,,,,-0.03125,0.052734375,-0.9921875,0.0010199699578620546,-0.012017361299025971,15.117595018050563,0.22838664944448617,0,0,3.4526568738312244,0,0,0,0,0.068359375,,
0.10369999999995344,1200,,,,-0.0625,0.0703125,-0.9921875,0.0010199699578620546,-0.012017361299025971,15.116858259375983,0.2523779161067998,0,0,3.8151611855831757,0,0,0,0,0.068359375,,
0.11071000000002096,1200,,,,-0.0625,0.009765625,-1.033203125,0.0010631424291294338,-0.012017361299025971,15.11647479386729,0.26814547583527526,0,0,4.053414326553489,0,0,0,0,0.068359375,,
0.12235499999998137,1200,,,,-0.0625,0.025390625,-1.009765625,0.0010631424291294338,-0.012017361299025971,15.116184110429847,0.2911951368321575,0,0,4.401759300416704,0,0,0,0,0.0703125,,
0.12946500000002562,1200,,,,-0.0625,0.1015625,-0.92578125,0.0010631424291294338,-0.012017361299025971,15.11603818194904,0.29537027863115434,0,0,4.464828409601456,0,0,0,0,0.0703125,,
0.13771000000002095,1200,,,,-0.0625,0.10546875,-1.0234375,0.0010631424291294338,-0.012017361299025971,15.116036349289228,0.29988015812107593,0,0,4.532999370588785,0,0,0,0,0.0703125,,
0.14838500000000932,1200,,,,0,0.087890625,-0.95703125,0.0010631424291294338,-0.012017361299025971,15.116034436398866,0.30046186325008706,0,0,4.541791871712883,0,0,0,0,0.072265625,,
0.15615000000002327,1200,,,,-0.0625,0.0625,-0.982421875,0.0010631424291294338,-0.012017361299025971,15.116032528684073,0.2986175768333449,0,0,4.513913005049657,0,0,0,0,0.072265625,,
0.16518499999999767,1200,,,,-0.0625,0.08203125,-1.03515625,0.0010631424291294338,-0.012017361299025971,15.115560387697432,0.30391425370687797,0,0,4.593834254588312,0,0,0,0,0.072265625,,
0.17300500000000466,1200,,,,-0.03125,0.04296875,-1.037109375,0.0010631424291294338,-0.012017361299025971,15.115192124783952,0.3070941280428998,1,0,4.641786745761434,0.0001326691546480163,0.002858148422461691,90.58142663913974,0.002588951616529866,0.07421875,,
0.18075,1200,,,,-0.0625,0.078125,-1.05078125,0.0010631424291294338,-0.012017361299025971,15.115402184725571,0.3029840089035303,3,0,4.5797251501173335,0.0002833070314089333,0.006186114278095376,42.4181540403767,0.0026240354835962336,0.076171875,,
0.18972999999998139,1200,,,,0,0.029296875,-0.984375,0.0010631424291294338,-0.012017361299025971,15.115655035000717,0.2962382137504787,3,0,4.477834647237042,0.0003569349189343919,0.00797115005473977,33.66821418006143,0.00268374387304387,0.076171875,,
0.19725,1200,,,,-0.125,0.0859375,-0.9609375,0.0010631424291294338,-0.012017361299025971,15.115865134257755,0.2904262930668398,3,0,4.390044677440769,0.0003816100948861866,0.008692624401914992,31.49120387554237,0.002737412072542196,0.076171875,,
0.20453999999997904,1200,,,,-0.03125,0.02734375,-0.99609375,0.0010631424291294338,-0.012017361299025971,15.116132970788692,0.2847701753787454,4,0,4.304623837139931,0.0003909228891313582,0.009081464581376623,30.74100195496071,0.0027917332045000525,0.076171875,,
0.21255499999999303,1200,,,,-0.03125,0.033203125,-0.955078125,0.0010631424291294338,-0.012017361299025971,15.11642074080046,0.2777395206782336,4,0,4.198427450920429,0.0003952112738112071,0.009413316734211145,30.407435453793962,0.0028623482100164394,0.076171875,,
0.21963500000000932,1200,,,,-0.0625,0.02734375,-0.953125,0.0010631424291294338,-0.012017361299025971,15.11665598020549,0.2718280456038261,4,0,4.109131051164649,0.00039688328988899833,0.009658569779041481,30.279333005899613,0.0029245505070031523,0.076171875,,
0.2272399999999907,1200,,,,-0.03125,0.048828125,-0.990234375,0.0010631424291294338,-0.012017361299025971,15.116978578494404,0.2649567962359379,4,0,4.00534621292518,0.0003975235145482409,0.009924822809709674,30.230567146909298,0.003000330223701053,0.076171875,,
0.23600500000000466,1200,,,,0,0.02734375,-0.96484375,0.0010631424291294338,-0.012733544505835607,15.116996659383954,0.258246824610695,4,0,3.90391638493639,0.0003978216393353342,0.010190321720781841,32.0081746360262,0.0032617359723607618,0.076171875,,
0.24399499999999535,1200,,,,-0.0625,0.041015625,-0.974609375,0.0010631424291294338,-0.012733544505835607,15.117154109965353,0.2504172961846233,4,0,3.785596858223789,0.00039793808176900896,0.010511898035432184,31.998808581549742,0.0033636821306456326,0.076171875,,
0.2524349999999977,1200,,,,0,0.00390625,-0.96484375,0.0010631424291294338,-0.012733544505835607,15.117401274145207,0.24377649308657798,4,0,3.685267067193684,0.00039797806275416775,0.010799164768734833,31.995593972477714,0.003455256911823259,0.076171875,,
0.26059999999997674,1200,,,,-0.0625,0.03125,-0.97265625,0.004375583494233461,-0.012733544505835607,15.117554701666604,0.23695788462367104,4,0,3.582223782789551,0.0016380416324396892,0.04572694872691936,7.7736391149413855,0.0035546479723049954,0.07421875,,
0.2682700000000186,1200,,,,-0.0625,0.08984375,-1.015625,0.004375583494233461,-0.012733544505835607,15.118018835340767,0.2315551216904198,280,0,3.5006546911353897,0.12827712450289996,3.6643752617969585,0.09926590228133574,0.0036374751665968104,0.076171875,,
0.27547500000003494,1200,,,,-0.0625,0.109375,-1,0.004375583494233461,-0.012733544505835607,15.118219563155069,0.22634439017908944,396,0,3.421924187615914,0.1814705887648292,5.303173852348301,0.07016864050811684,0.0037211649959747305,0.076171875,,
0.28497999999998136,1200,,,,-0.03125,0.048828125,-0.978515625,0.004375583494233461,-0.012733544505835607,15.118306602924898,0.219645067548208,450,0,3.3206614750139583,0.206280436218541,6.212028469950371,0.061729288241107,0.003834640959835294,0.076171875,,
0.294375,1200,,,,-0.0625,0.05078125,-0.953125,0.004375583494233461,-0.012733544505835607,15.118571880510263,0.21330086661352204,474,0,3.2248044840716648,0.21720811709782653,6.735543756859881,0.0586237046569519,0.0039486252790613,0.07421875,,
0.30477000000001864,1200,,,,-0.0625,0.044921875,-0.984375,0.004375583494233461,-0.012733544505835607,15.11865381049421,0.20618423704470892,482,0,3.11722810105983,0.2206972634783098,7.0799202471989355,0.05769688443412468,0.004084893403054565,0.07421875,,
0.31349499999999536,1200,,,,-0.03125,0.02734375,-0.98828125,0.004375583494233461,-0.012733544505835607,15.118914970767426,0.1977295071240182,484,0,2.989455605419783,0.22197033609497702,7.425108962733957,0.05736597389476024,0.004259486069219465,0.07421875,,
0.3207199999999721,1200,,,,-0.0625,0.05859375,-0.962890625,0.004375583494233461,-0.012733544505835607,15.119131929944812,0.1936567498062751,485,0,2.9279219494453876,0.22228802481198187,7.592006503250132,0.05728398781988384,0.004349004080606595,0.07421875,,
0.32915999999997436,1200,,,,-0.0625,0.07421875,-1.05078125,0.004375583494233461,-0.012733544505835607,15.119178787217143,0.18848847436873437,485,0,2.849790943310691,0.22244649421126417,7.805712721959919,0.05724317908891014,0.004468238112597358,0.07421875,,
0.3378949999999604,1200,,,,-0.03125,0.03515625,-0.96875,0.004375583494233461,-0.012733544505835607,15.119219274793693,0.18424171259915134,486,0,2.7855908523500887,0.22250152330500483,7.987588095261349,0.05722902170148506,0.004571218524462356,0.07421875,,
0.3452200000000303,1200,,,,-0.0625,0.03515625,-1.00390625,0.004375583494233461,-0.012733544505835607,15.119389246929789,0.18041787826856948,503,0,2.727808128647697,0.23066993452907275,8.456237522960484,0.05520244557155636,0.004668049916013787,0.07421875,,
0.3526350000000093,1200,,,,-0.0625,0.04296875,-0.94921875,0.004375583494233461,-0.012733544505835607,15.119328853347497,0.17588188872558363,518,0,2.6592161149899707,0.2374673147686471,8.929974266854304,0.05362230384523142,0.004788457934673591,0.07421875,,
0.3605050000000047,1200,,,,0,0.00390625,-1.02734375,0.004375583494233461,-0.012733544505835607,15.119492129196313,0.17079691738716057,525,0,2.5823626481261672,0.24061161866042288,9.317499183742346,0.05292156952655957,0.004930966808660826,0.07421875,,
0.36753999999997905,1200,,,,-0.0625,0.033203125,-0.958984375,0.004375583494233461,-0.012733544505835607,15.119600581095257,0.16642974077516848,528,0,2.5163512053357704,0.24177144039174986,9.608016555045582,0.05266769509749806,0.005060320864128543,0.07421875,,
0.3835099999999511,1200,,,,0,0.00390625,-0.96484375,0.004375583494233461,-0.012733544505835607,15.119745803453096,0.1590511216442195,529,0,2.4048125290146958,0.24252559024484527,10.085010258334496,0.05250392130983073,0.005295025850124299,0.07421875,,
0.39153999999997907,1200,,,,-0.0625,0.04296875,-0.984375,0.004375583494233461,0.030481992260370964,15.120053107235535,0.15498149379892504,529,0,2.343328416878441,0.2426111888161138,10.353273022622126,0.12564132927716978,0.013007989849317054,0.07421875,,
0.399320000000007,1200,,,,-0.0625,0.0546875,-0.96484375,0.004375583494233461,0.030481992260370964,15.120245522381758,0.15135617566855014,530,0,2.288542537437222,0.242644792036509,10.602590428938665,0.12562392954959678,0.0133193907308822,0.07421875,,
0.40616500000003725,1200,,,,0,0.001953125,-0.958984375,0.007809893274071767,0.030481992260370964,15.119980593863511,0.14982486312409168,530,0,2.2653490229145232,0.43311392862218984,19.11908161793805,0.07037869310123422,0.013455759775663106,0.07421875,,
0.41332500000001166,1200,,,,-0.125,0.05078125,-0.9453125,0.007809893274071767,0.030481992260370964,15.119189798230174,0.1746498675874977,530,0,2.640564496291146,0.43312383370181656,16.402698525643615,0.07037708361566694,0.011543740856617975,0.07421875,,
0.42047000000003026,1200,,,,-0.125,0.150390625,-1.04296875,0.007809893274071767,0.030481992260370964,15.118708419665762,0.1925426092156381,530,0,2.910995567092882,0.4331280631632986,14.879035477056727,0.07037639638897883,0.010471328986190229,0.076171875,,
0.4278399999999674,1200,,,,0.0625,-0.078125,-0.9609375,0.007809893274071767,0.030481992260370964,15.117809430295242,0.2095383753047428,545,0,3.167761226190785,0.44583554540688475,14.074152487275674,0.0683704845304608,0.009622566249106278,0.076171875,,
0.4360299999999697,1200,,,,0,0.080078125,-0.85546875,0.007809893274071767,0.030481992260370964,15.116227313139113,0.26163845477511216,552,0,3.954986356239063,0.45184939748747666,11.424802939577175,0.06746051323708094,0.007707230699363871,0.078125,,
0.4439749999999767,1200,,,,0,-0.05859375,-0.98046875,0.007809893274071767,0.030481992260370964,15.115196362818152,0.30286272361143785,555,0,4.577829538364805,0.45404193517500663,9.918279642565937,0.06713475099744243,0.006658612341266665,0.078125,,
0.45122499999997673,1200,,,,0.03125,0.005859375,-0.955078125,0.007809893274071767,0.030481992260370964,15.114253231725833,0.32593962351677036,556,0,4.926334008085847,0.4549758552811923,9.235586838700275,0.06699694479728367,0.00618756101602922,0.078125,,
0.4605900000000256,1200,,,,-0.125,0.16796875,-0.88671875,0.007809893274071767,0.030481992260370964,15.113804460079924,0.34009677604712063,557,0,5.140156170679775,0.45532111878924103,8.858118385321855,0.06694614196992796,0.00593016851010186,0.080078125,,
0.4689650000000256,1200,,,,-0.09375,-0.001953125,-0.95703125,0.007809893274071767,0.030481992260370964,15.113364291448464,0.35566945104735226,557,0,5.3753619810181315,0.45549810706026145,8.473812715659884,0.06692012938780065,0.005670686433399498,0.080078125,,
0.4766199999999953,1200,,,,-0.03125,0.076171875,-1,0.007809893274071767,0.030481992260370964,15.113297772024284,0.36226035342141705,651,0,5.474948592256632,0.5322587904207539,9.721713025279213,0.05726911947527397,0.005567539447490424,0.080078125,,
0.485070000000007,1200,,,,-0.03125,0.046875,-0.96875,0.007809893274071767,0.030481992260370964,15.113138827339391,0.36667165680508756,734,0,5.541559653345833,0.6006009666825893,10.838121472173704,0.050752486178531814,0.005500616102177449,0.080078125,,
0.493484999999986,1200,,,,-0.125,0.09765625,-0.99609375,0.007809893274071767,0.030481992260370964,15.113149457730374,0.37036247012102924,770,0,5.597343364473315,0.6297358612198192,11.250620521456513,0.048404409114205973,0.005445796385092624,0.080078125,,
0.5010149999999558,1200,,,,-0.03125,0.013671875,-0.947265625,0.007809893274071767,0.030481992260370964,15.113274712773489,0.37231135964675677,781,0,5.626843857027645,0.6390940077764411,11.357948150244916,0.04769563145557413,0.005417245090656014,0.080078125,,
0.5097249999999767,1200,,,,-0.03125,0.015625,-0.958984375,0.007809893274071767,0.030481992260370964,15.113350658512775,0.3728516771545933,787,0,5.635038140451965,0.6436156414189713,11.421673205699888,0.04736055232151863,0.005409367514578369,0.080078125,,
0.5173450000000303,1200,,,,-0.0625,0.0078125,-0.96484375,0.007809893274071767,0.030481992260370964,15.113479062029782,0.37141357741622716,789,0,5.613351325633727,0.645150860095584,11.49314950499288,0.04724785185259588,0.0054302662513163935,0.080078125,,
0.5248499999999767,1200,,,,0,0.056640625,-0.9765625,0.007809893274071767,0.030481992260370964,15.11360124496734,0.3675186515528875,904,0,5.554530349658438,0.7390092814069218,13.304622261220794,0.04124710342248952,0.005487771304057305,0.080078125,,
0.5308899999999558,1200,,,,-0.0625,-0.03125,-0.953125,0.007809893274071767,0.030481992260370964,15.113616213106448,0.3651413966552303,943,0,5.518606932564822,0.7711855227279324,13.974278874207064,0.03952614690242927,0.0055234939963742236,0.080078125,,
0.5383599999999861,1200,,,,-0.0625,0.015625,-0.95703125,0.007809893274071767,0.05027481003439932,15.113720035717513,0.36134717976426,964,0,5.461300110653115,0.7881476972200459,14.431503144876459,0.0637885642649577,0.009205648657968912,0.080078125,,
0.5467149999999674,1200,,,,-0.03125,0.015625,-0.96484375,0.007809893274071767,0.05027481003439932,15.113994966975516,0.3577007400004529,973,0,5.406287184050263,0.7955254932555702,14.71482121043339,0.06319698169402102,0.009299322866665514,0.080078125,,
0.5549099999999744,1200,,,,-0.0625,0.056640625,-1.009765625,0.007809893274071767,0.05027481003439932,15.11399525757581,0.35161308773615957,977,0,5.314278540545903,0.7990947451785867,15.03674937400817,0.06291470484287015,0.009460326486619366,0.080078125,,
0.5626500000000233,1200,,,,-0.0625,0.03125,-0.9453125,0.028876733261401354,0.05027481003439932,15.114095546705807,0.34793261619748467,995,0,5.258686805024103,3.00818134940822,57.204040874505594,0.01671269255235877,0.009560335478881762,0.080078125,,
0.5698099999999977,1200,,,,-0.0625,0.048828125,-0.970703125,0.028876733261401354,0.05027481003439932,15.114179417938312,0.3438564627088071,1016,0,5.197108271398525,3.073248599653024,59.13381902328586,0.01635884908239296,0.009673612210674712,0.080078125,,
0.577695000000007,1200,,,,-0.03125,0.064453125,-0.95703125,0.028876733261401354,0.05027481003439932,15.114264893813493,0.3401552081239419,1026,0,5.141195920595517,3.1022215146795005,60.340464798318024,0.016206067102720535,0.009778816215308883,0.078125,,
0.584984999999986,1200,,,,-0.0625,0.01953125,-0.98046875,0.028876733261401354,0.05027481003439932,15.114457482539594,0.33563773012079834,1030,0,5.072982201446905,3.1136073123155423,61.376271169007566,0.01614680497297866,0.009910306805346181,0.078125,,
0.5928499999999767,1200,,,,0,0.05078125,-0.98046875,0.028876733261401354,0.05027481003439932,15.114532634244716,0.331722072410839,1031,0,5.013824088952915,3.1188236984881064,62.2044898894616,0.01611979864676889,0.010027238519430923,0.078125,,
0.6018400000000256,1200,,,,-0.0625,0.03125,-0.939453125,0.028876733261401354,0.05027481003439932,15.114614177922238,0.32645463040860934,1042,0,4.934235785222331,3.151310489399023,63.8662323117384,0.015953619995085624,0.010188976008193332,0.078125,,
0.6121799999999931,1200,,,,-0.0625,0.078125,-1.05078125,0.028876733261401354,0.05027481003439932,15.114812243314773,0.3210106067450828,1050,0,4.852015049064481,3.1763375753589718,65.46429768331825,0.015827917795770665,0.010361635222894213,0.078125,,
0.6236149999999907,1200,,,,-0.03125,0.025390625,-0.927734375,0.028876733261401354,0.05027481003439932,15.115096150262826,0.3128957401407271,1054,0,4.729449197234741,3.188216726172251,67.41200916242778,0.015768943692469388,0.01063016176678554,0.078125,,
0.6318249999999535,1200,,,,-0.0625,0.06640625,-0.970703125,0.028876733261401354,0.05027481003439932,15.115269224448076,0.3075220905074781,1055,0,4.648279190485619,3.1912099873710384,68.6535781650767,0.01575415288663482,0.010815789666271525,0.080078125,,
0.6397699999999604,1200,,,,-0.03125,0.05078125,-1.013671875,0.028876733261401354,0.05027481003439932,15.115501558954337,0.302235302855725,1059,0,4.568438191486747,3.200970864944758,70.06707173820902,0.015706112974966723,0.01100481344545409,0.080078125,,
0.6477399999999907,1200,,,,-0.03125,0.021484375,-0.994140625,0.028876733261401354,0.05027481003439932,15.115526432044637,0.29876390986200746,1063,0,4.515973776460175,3.213752754674562,71.16411462410322,0.015643645878256233,0.011132662084191064,0.080078125,,
0.6557650000000139,1200,,,,-0.0625,0.0390625,-0.9609375,0.028876733261401354,0.05027481003439932,15.115549230418301,0.2966731346941056,1064,0,4.484377372811273,3.218644239808879,71.77460709090812,0.015619871687771436,0.011211101532001945,0.080078125,,
0.6647999999999884,1200,,,,0,0.01953125,-0.9453125,0.028876733261401354,0.05027481003439932,15.115770691220918,0.29175076146510626,1065,0,4.410037609295639,3.2206418889041357,73.02980550813328,0.01561018323943677,0.011400086459223894,0.078125,,
0.6731900000000023,1200,,,,-0.03125,0.017578125,-0.94921875,0.028876733261401354,0.05027481003439932,15.116007664011674,0.2872131976130724,1065,0,4.341516896324502,3.2214690111287196,74.20146202485111,0.015606175276162076,0.011580010221073106,0.078125,,
0.6807849999999744,1200,,,,-0.0625,0.03125,-0.953125,0.028876733261401354,0.05027481003439932,15.11613604935726,0.2837352109780816,1066,0,4.2889800511377665,3.2233462511551805,75.1541441723447,0.015597086417998646,0.011721856813267897,0.078125,,
0.6888449999999721,1200,,,,0,0.009765625,-1.01171875,0.028876733261401354,0.1647832898226706,15.116129448596745,0.28058826439906054,1067,0,4.241408526413289,3.2273391903003508,76.0912128648339,0.051058559421928974,0.038851077135457684,0.078125,,
0.695875,1200,,,,-0.0625,0.068359375,-0.97265625,0.028876733261401354,0.1647832898226706,15.11620985391439,0.27852250201532097,1068,0,4.2102045895008855,3.22880728822841,76.69003298034932,0.051035343739292756,0.03913902194529826,0.078125,,
0.7038449999999721,1200,,,,-0.0625,0.12109375,-1.0546875,0.028876733261401354,0.1647832898226706,15.116199573835155,0.27561309842637927,1068,0,4.166222600976221,3.2295002499448,77.51626735422322,0.05102439296156957,0.03955220486395972,0.078125,,
0.7116849999999977,1200,,,,0,0.009765625,-0.966796875,0.022855935897489382,0.1647832898226706,15.116286682694824,0.27226560427639546,1068,0,4.115644928079136,2.5563631403526994,62.113306298894244,0.06446004764406656,0.04003826683357222,0.078125,,
0.7199700000000303,1200,,,,-0.0625,0.021484375,-0.982421875,0.022855935897489382,0.1647832898226706,15.116338861968526,0.26769659549981595,1069,0,4.046592449770537,2.5575924306292537,63.20360803258759,0.0644290653386585,0.04072149391570547,0.078125,,
0.7276550000000279,1200,,,,0,0.03125,-0.953125,0.022855935897489382,0.1647832898226706,15.116386897717785,0.26516001951363477,1070,0,4.008261444774501,2.560312243980645,63.875879337124545,0.064360622502228,0.04111091357014539,0.078125,,
0.7348449999999721,1200,,,,-0.0625,0.04296875,-0.98046875,0.022855935897489382,0.1647832898226706,15.116370173567267,0.2617671613529691,1070,0,3.956969310295393,2.5613363988039923,64.72975143223401,0.06433488779514304,0.04164381295400275,0.078125,,
0.7427299999999813,1200,,,,0,0.06640625,-0.98046875,0.022855935897489382,0.1647832898226706,15.116450250580817,0.2590499490430318,1070,0,3.915915667124486,2.5618136994652714,65.4205533835321,0.06432290133239037,0.042080398003993116,0.076171875,,
0.7509199999999837,1200,,,,-0.0625,0.076171875,-1.01953125,0.022855935897489382,0.1647832898226706,15.116558664852622,0.2564771574619816,1070,0,3.877051996968688,2.562001377650136,66.08117145844994,0.06431818938903522,0.042502213009138916,0.076171875,,
0.7587700000000186,1200,,,,-0.0625,0.046875,-0.8828125,0.022855935897489382,0.1647832898226706,15.11653132170055,0.2538098267684659,1070,0,3.836724196100906,2.5620757191032153,66.77768815665563,0.06431632312582412,0.04294895369078981,0.078125,,
0.7700750000000116,1200,,,,-0.03125,-0.015625,-0.97265625,0.022855935897489382,0.1647832898226706,15.116702098266796,0.25179935841053397,1070,0,3.806375889626752,2.560863622880962,67.27826407948577,0.06434676503284077,0.04329138650540081,0.078125,,
0.7796499999999651,1200,,,,-0.03125,0.0234375,-0.96484375,0.022855935897489382,0.1647832898226706,15.11696793297455,0.24840427956354968,1070,0,3.755119528575826,2.56027573996046,68.18093859535477,0.0643615401461467,0.0438823021660689,0.078125,,
0.7863499999999767,1200,,,,-0.0625,0.06640625,-0.95703125,0.022855935897489382,0.1647832898226706,15.1169280836477,0.24747922011509235,1070,0,3.7411255726770705,2.5601671757405837,68.43307250733586,0.0643642694055725,0.04404644715113242,0.076171875,,
0.7941699999999837,1200,,,,-0.03125,0.029296875,-1.00390625,0.022855935897489382,0.1647832898226706,15.117075062766169,0.24634578102282337,1070,0,3.7240276631177784,2.5601137712365447,68.74583120290792,0.0643656120575765,0.0442486750178201,0.078125,,
0.8013450000000303,1200,,,,-0.0625,0.02734375,-0.96875,0.022855935897489382,0.1647832898226706,15.117029214701606,0.24519757724712835,1070,0,3.7066589386188933,2.5608580869448305,69.08804207108977,0.06434690413448928,0.04445601619987975,0.076171875,,
0.808890000000014,1200,,,,-0.03125,0.0546875,-0.9765625,0.022855935897489382,0.1647832898226706,15.116806523781326,0.24319249296080261,1070,0,3.676293864124505,2.5615825093577733,69.67839362231734,0.06432870665719223,0.04482320943674427,0.076171875,,
0.8168649999999907,1200,,,,-0.0625,0.05078125,-1.03515625,0.022855935897489382,0.1647832898226706,15.116701720152452,0.24181777460462248,1070,0,3.6554871693291346,2.5619102675984387,70.08396279143848,0.06432047675781406,0.04507833899822225,0.076171875,,
0.8249349999999976,1200,,,,-0.0625,0.041015625,-0.943359375,0.022855935897489382,0.1647832898226706,15.117056842194222,0.2394610100226909,1070,0,3.619945700002259,2.562039230387058,70.77562600967907,0.06431723912274993,0.04552092862126848,0.076171875,,
0.832890000000014,1200,,,,-0.0625,0.1015625,-1.0625,0.022855935897489382,0.2310796545477651,15.117070491207574,0.23922479137689892,1070,0,3.616378034489007,2.562090635015884,70.8468697293674,0.09019183450796717,0.06389809150038613,0.078125,,
0.8407850000000326,1200,,,,-0.03125,0.03125,-0.994140625,0.022855935897489382,0.2310796545477651,15.117017982768735,0.23825441431248554,1070,0,3.6016962656358764,2.5621109433594436,71.13623010926227,0.09019111961044636,0.0641585623842071,0.076171875,,
0.8489150000000373,1200,,,,-0.0625,0.029296875,-0.98046875,0.022855935897489382,0.2310796545477651,15.117165606150563,0.23796803539824932,1070,0,3.597402200085634,2.5619631818842454,71.21703494325043,0.09019632139202449,0.06423514572328454,0.078125,,
0.8604500000000116,1200,,,,0,0.00390625,-1.01953125,0.02034137412382699,0.2310796545477651,15.11698269482259,0.23899541691236384,1070,0,3.6128895816061144,2.280040110973363,63.10849140204745,0.10134894269430891,0.06395978878630396,0.076171875,,
0.874765000000014,1200,,,,-0.0625,0.05078125,-0.9609375,0.02034137412382699,0.2310796545477651,15.117013250937928,0.23617931659087207,1070,0,3.5703258585016773,2.280021018978563,63.860306015188094,0.10134979135029536,0.06472228690205326,0.076171875,,
0.8833549999999813,1200,,,,-0.03125,0.0234375,-0.990234375,0.02034137412382699,0.2310796545477651,15.117337962386983,0.23540190246265594,1072,0,3.5586501165168265,2.2840538991909027,64.18315440986689,0.10117084129653077,0.06493463728711373,0.076171875,,
0.8919699999999721,1200,,,,-0.0625,0.060546875,-0.9765625,0.02034137412382699,0.2310796545477651,15.117492395818905,0.23347023941800402,1074,0,3.5294845690516947,2.2881743363709854,64.83026888500534,0.10098865758378114,0.06547121825492265,0.076171875,,
0.8996849999999976,1200,,,,0,0.03125,-1.0625,0.02034137412382699,0.2310796545477651,15.117484908232875,0.23114532950842553,1075,0,3.494336030452138,2.289449652220964,65.51887489551852,0.10093240282597954,0.06612977473659433,0.076171875,,
0.9078499999999767,1200,,,,-0.0625,0.03515625,-0.955078125,0.02034137412382699,0.2310796545477651,15.117510926329333,0.2330174151286748,1075,0,3.5226433192327593,2.289979974875711,65.0074324122737,0.10090902849938982,0.06559836849962285,0.076171875,,
0.9152299999999813,1200,,,,0,0.08203125,-1.02734375,0.02034137412382699,0.2310796545477651,15.117533303826397,0.23566804572518849,1075,0,3.562719529898219,2.290173859580025,64.28162083377502,0.10090048560336846,0.06486046757499507,0.076171875,,
0.9243400000000256,1200,,,,-0.03125,0.0234375,-0.951171875,0.02034137412382699,0.2310796545477651,15.117280492206769,0.2376043400778262,1075,0,3.5919314551221846,2.2909247412751412,63.77974551847934,0.10086741409896552,0.06433298002339095,0.076171875,,
0.9319349999999976,1200,,,,-0.0625,0.02734375,-0.998046875,0.02034137412382699,0.2310796545477651,15.117545257160662,0.23366460760657548,1076,0,3.5324352804890924,2.291273324326173,64.86384441299457,0.1008520686268287,0.06541652888139267,0.076171875,,
0.9507299999999814,1200,,,,-0.0625,0.064453125,-0.9765625,0.02034137412382699,0.2310796545477651,15.11776940763585,0.22836373737607607,1076,0,3.45235032271743,2.291439242605609,66.37331175597384,0.10084476614138942,0.06693401102060716,0.076171875,,
0.9645950000000303,1200,,,,-0.0625,0.05078125,-0.9921875,0.02034137412382699,0.2310796545477651,15.117711106888981,0.22655807602134814,1079,0,3.425039542223333,2.297601650660579,67.08248539428867,0.10057428992590071,0.06746773334995189,0.076171875,,
0.971890000000014,1200,,,,-0.0625,0.056640625,-0.9921875,0.02034137412382699,0.2310796545477651,15.117808652981786,0.22570057708182342,1079,0,3.4120981371905725,2.299338011753197,67.38780419857468,0.10049834055131882,0.06772362495353951,0.076171875,,
0.9799550000000163,1200,,,,0,0.02734375,-1,0.02034137412382699,0.2310796545477651,15.11791677143658,0.2253923782519313,1080,0,3.4074632153288498,2.3001665894211176,67.50378343260066,0.10046213852967967,0.06781574442483422,0.076171875,,
0.9882949999999837,1200,,,,-0.0625,0.03125,-0.9375,0.02034137412382699,0.2696250629310426,15.117822708452815,0.2247805685051237,1080,0,3.3981927829656926,2.300491270726411,67.69749150955208,0.11720325408837777,0.07934366298539829,0.076171875,,
0.9966750000000466,1200,,,,-0.0625,0.08203125,-0.96484375,0.02034137412382699,0.2696250629310426,15.11773386251398,0.2251556806700686,1080,0,3.4038436580032805,2.3006187716863713,67.58884963112351,0.11719675865002413,0.07921194097651556,0.076171875,,
1.0052150000000255,1200,,,,-0.03125,0.0234375,-0.94921875,0.02034137412382699,0.2696250629310426,15.117637389173794,0.22556299694904478,1076,0,3.409979596290974,2.2929277961141876,67.24168668364466,0.11758986191714138,0.0790694065220546,0.076171875,,
1.0140899999999673,1200,,,,-0.0625,0.05078125,-0.953125,0.018064050939618884,0.2696250629310426,15.117620821678962,0.2249896993537346,1075,0,3.401308963613308,2.0338192354899647,59.79519229941934,0.1325708097485309,0.0792709706220314,0.076171875,,
1.0219899999999906,1200,,,,-0.0625,0.0546875,-1.009765625,0.018064050939618884,0.2696250629310426,15.117346861566457,0.22503701392904635,1075,0,3.401962596256556,2.033006538300956,59.75981454170106,0.132623805113965,0.07925573997425252,0.076171875,,
1.0301300000000047,1200,,,,-0.0625,0.06640625,-0.9765625,0.018064050939618884,0.2696250629310426,15.117213191112425,0.22432539658560335,1075,0,3.391174844365409,2.032680400220911,59.94030073672852,0.13264508424528512,0.07950786240911077,0.07421875,,
1.037875,1200,,,,-0.0625,0.0546875,-0.96484375,0.018064050939618884,0.2696250629310426,15.117024714000657,0.2234552220704936,1074,0,3.377978114512157,2.032555247591159,60.17076424678665,0.13265325173846232,0.07981847536924659,0.076171875,,
1.0460750000000116,1200,,,,-0.03125,-0.0078125,-0.966796875,0.018064050939618884,0.2696250629310426,15.116974331114756,0.22389901487935393,1073,0,3.384675660693074,2.0297898919460096,59.969996993164564,0.13283397656126192,0.0796605317496897,0.07421875,,
1.0541949999999487,1200,,,,-0.0625,0.10546875,-1.0546875,0.018064050939618884,0.2696250629310426,15.116861927894657,0.2245280466580646,1072,0,3.394159480269852,2.0287090806770305,59.770588048966346,0.13290474494305612,0.0794379475974435,0.076171875,,
1.0622000000000116,1200,,,,-0.0625,0.041015625,-0.962890625,0.018064050939618884,0.2696250629310426,15.116815712664547,0.22460497824177578,1072,0,3.3953120642279546,2.0282584180051515,59.737025040328604,0.13293427530611526,0.07941098132679345,0.076171875,,
1.0692749999999651,1200,,,,-0.0625,0.064453125,-0.978515625,0.018064050939618884,0.2696250629310426,15.116866634556654,0.22410383011220292,1072,0,3.387747712099513,2.0281122352230554,59.866094159832194,0.13294385697613464,0.0795882945970454,0.076171875,,
1.078329999999958,1200,,,,0,0.02734375,-0.9609375,0.018064050939618884,0.2696250629310426,15.116770016486566,0.22370880175359953,1072,0,3.3817545067729506,2.0280474575240794,59.97027440821982,0.132948103325063,0.0797293423845639,0.076171875,,
1.086454999999958,1200,,,,-0.03125,0.072265625,-1.021484375,0.018064050939618884,0.2696250629310426,15.116726114016775,0.2242088737404898,1073,0,3.3893041366671524,2.0288112112739074,59.85922565417585,0.13289805450244077,0.07955174633462563,0.076171875,,
1.1010100000000094,1200,,,,-0.03125,0.013671875,-0.98046875,0.018064050939618884,0.2696250629310426,15.116728388873847,0.22402050821347305,1073,0,3.386457176200555,2.0291444257084956,59.91938832030647,0.1328762307477943,0.07961862468715733,0.076171875,,
1.1094700000000304,1200,,,,-0.0625,0.04296875,-0.9453125,0.018064050939618884,0.2696250629310426,15.116888930140238,0.22358299159502565,1073,0,3.379879250610481,2.0291882535280132,60.0373002426491,0.13287336079452639,0.07977357856270823,0.076171875,,
1.117,1200,,,,-0.03125,0.052734375,-1.00390625,0.018064050939618884,0.2696250629310426,15.117040617848616,0.2227473793457448,1073,0,3.367281181088958,2.029205472991069,60.262430247504206,0.1328722332557149,0.08007203688402628,0.076171875,,
1.1246950000000069,1200,,,,-0.03125,0.03125,-0.9609375,0.018064050939618884,0.2696250629310426,15.117120458425495,0.2217336370819034,1072,0,3.351974101451936,2.0276146933225387,60.49016585313891,0.1329764791205094,0.08043769276566076,0.076171875,,
1.1320850000000209,1200,,,,-0.0625,0.03515625,-0.98046875,0.018064050939618884,0.2696250629310426,15.117331150676806,0.22191614159194298,1072,0,3.3547798001258844,2.027030612668945,60.422165788433645,0.13301479575389022,0.08037042041356193,0.076171875,,
1.1401600000000327,1200,,,,-0.03125,0.087890625,-0.994140625,0.018064050939618884,0.2761541832892147,15.11746176102215,0.22115802915285984,1071,0,3.3433480488613805,2.026757599733693,60.62059857704407,0.13625417431541895,0.08259809605621601,0.076171875,,
1.148274999999965,1200,,,,-0.0625,0.03125,-0.9765625,0.018064050939618884,0.2761541832892147,15.117520826947011,0.2212869914936882,1071,0,3.3453107026382773,2.0266495799157704,60.58180420483678,0.1362614366222561,0.08254963674119292,0.076171875,,
1.1553949999999604,1200,,,,-0.03125,0.029296875,-0.998046875,0.016805567228782414,0.2761541832892147,15.117641417022135,0.22151426242872277,1071,0,3.3487731881535696,1.8854178208657508,56.30174738425099,0.14646842743981783,0.0824642840148512,0.076171875,,
1.1628850000000093,1200,,,,-0.03125,0.048828125,-1.015625,0.016805567228782414,0.2761541832892147,15.11765704847017,0.22170744013922136,1071,0,3.351697045118978,1.8850829369617743,56.24264101396008,0.14649444747205548,0.08239234619709246,0.076171875,,
1.1702000000000117,1200,,,,-0.0625,0.02734375,-0.98828125,0.016805567228782414,0.2761541832892147,15.117583619085261,0.22131840276663736,1071,0,3.345799460267031,1.8849358669402938,56.33738331674712,0.1465058775381465,0.08253757781022973,0.076171875,,
1.1770599999999978,1200,,,,0,0.01171875,-0.96875,0.016805567228782414,0.2761541832892147,15.11751710679696,0.2216047418540021,1071,0,3.3501134759252014,1.8848750487618853,56.26302100830597,0.14651060475897945,0.08243129233494072,0.07421875,,
1.1842949999999837,1200,,,,-0.0625,0.025390625,-0.9765625,0.016805567228782414,0.2761541832892147,15.117451157234065,0.22094458274963671,1071,0,3.3401189381730934,1.8848474285513577,56.43054823617422,0.14651275169866626,0.08267794901946203,0.07421875,,
1.192204999999958,1200,,,,0,0.0625,-1,0.016805567228782414,0.2761541832892147,15.117477777478712,0.2208722477785762,1071,0,3.3390312974543974,1.8848347230584017,56.448549149430185,0.14651373932729592,0.08270488015483667,0.07421875,,
1.2000950000000303,1200,,,,-0.03125,0.01953125,-0.970703125,0.016805567228782414,0.2761541832892147,15.11753623648306,0.2201626501775133,1071,0,3.328316841978701,1.8850581332983205,56.63697967461667,0.14649637505132146,0.08297112216186715,0.07421875,,
1.2082850000000327,1200,,,,-0.03125,0.0390625,-0.96484375,0.016805567228782414,0.2761541832892147,15.117559209391217,0.2201274500375916,1071,0,3.327789759555598,1.8853755913753312,56.6554899077251,0.14647170810552798,0.08298426380339996,0.07421875,,
1.217289999999979,1200,,,,-0.0625,0.0546875,-0.96484375,0.016805567228782414,0.2761541832892147,15.117581323502984,0.21878998659417978,1071,0,3.3075754151056405,1.8855008086865184,57.00552737438633,0.14646198082598003,0.0834914245728225,0.07421875,,
1.225070000000007,1200,,,,-0.03125,0.05859375,-0.97265625,0.016805567228782414,0.2761541832892147,15.117817463320264,0.21760799069135886,1071,0,3.2897578818318585,1.8855510736799503,57.315800779539614,0.1464580764445994,0.08394361932053246,0.07421875,,
1.2354400000000023,1200,,,,-0.0625,0.072265625,-0.96875,0.016805567228782414,0.2761541832892147,15.117925454765887,0.217699068990909,1071,0,3.291158296576498,1.8855688041862926,57.291951169522406,0.14645669926024663,0.08390790062467476,0.07421875,,
1.2434100000000325,1200,,,,-0.03125,0.029296875,-0.962890625,0.016805567228782414,0.2761541832892147,15.117805413070123,0.2172666210183023,1072,0,3.284594499309945,1.8864424649796794,57.43303976719193,0.14638887133628503,0.08407557868931201,0.07421875,,
1.2511199999999953,1200,,,,-0.0625,0.10546875,-1.0234375,0.016805567228782414,0.2761541832892147,15.117782998198622,0.21613363856342765,1072,0,3.2674614464129927,1.886940531628775,57.74943522899869,0.1463502313190777,0.08451643204310054,0.07421875,,
1.2585750000000115,1200,,,,-0.03125,0.03125,-0.951171875,0.016805567228782414,0.2761541832892147,15.11789097274039,0.2153442500688262,1072,0,3.255550894147057,1.8871444907097632,57.96697861804395,0.14633441405716205,0.08482563850735504,0.072265625,,
1.2658499999999768,1200,,,,-0.0625,0.11328125,-1.046875,0.016805567228782414,0.2761541832892147,15.117983011702666,0.21580706544511555,1072,0,3.2625675492046624,1.8872207095138764,57.84464784411703,0.1463285040785444,0.08464320787979841,0.07421875,,
1.2730750000000117,1200,,,,-0.03125,0.02734375,-0.974609375,0.016805567228782414,0.2761541832892147,15.118067781212064,0.21523009824637548,1072,0,3.2538632138456363,1.8872529807324587,58.0003785254997,0.1463260019237256,0.08486963499699084,0.072265625,,
1.2801649999999791,1200,,,,-0.0625,0.08984375,-1.046875,0.016805567228782414,0.2761541832892147,15.117977999809897,0.21456495147494853,1072,0,3.24378821592855,1.8871250883008874,58.17658128956143,0.14633591858918896,0.08513323463386595,0.07421875,,
1.288304999999993,1200,,,,-0.0625,0.05078125,-0.990234375,0.016805567228782414,0.28081702033608696,15.11807786988703,0.21609186857517737,1072,0,3.266893696168925,1.8869889278610879,57.760952860938,0.14881752414646895,0.08595841997105695,0.07421875,,
1.2962750000000234,1200,,,,-0.0625,0.048828125,-0.974609375,0.016805567228782414,0.28081702033608696,15.11817252226992,0.21529582215544057,1072,0,3.254879382669893,1.8869356515655957,57.972521550638575,0.1488217259041623,0.08627570712182277,0.072265625,,
1.3042550000000046,1200,,,,-0.0625,0.02734375,-0.96484375,0.016805567228782414,0.28081702033608696,15.118261977730874,0.2146497196966426,1072,0,3.245130695820342,1.8869147406593485,58.14603224115608,0.1488233751557638,0.08653488770044708,0.072265625,,
1.3123800000000048,1200,,,,-0.03125,0.025390625,-0.990234375,0.016054946617651975,0.28081702033608696,15.11834741223341,0.21328623289178436,1072,0,3.2245353671045205,1.802627791534999,55.90348953603424,0.1557820320172484,0.08708759196778397,0.072265625,,
1.320295000000042,1200,,,,-0.0625,0.01953125,-0.953125,0.016054946617651975,0.28081702033608696,15.118493262532912,0.2133753067492573,1072,0,3.22591313747954,1.8025701537392709,55.87782673986222,0.15578701320087718,0.08705039731959244,0.072265625,,
1.3293850000000094,1200,,,,-0.03125,0.052734375,-0.98828125,0.016054946617651975,0.28081702033608696,15.118581884150785,0.21334971185982968,1072,0,3.2255450887128108,1.8024854296766573,55.88157598491234,0.15579433581688476,0.08706033014970196,0.072265625,,
1.3391450000000187,1200,,,,0,0.048828125,-0.962890625,0.016054946617651975,0.28081702033608696,15.118705538351687,0.21266300833079627,1072,0,3.2151894018533405,1.8024587042711135,56.060731701594854,0.15579664580978297,0.08734073960750645,0.072265625,,
1.3469949999999953,1200,,,,-0.0625,0.05859375,-0.982421875,0.016054946617651975,0.28081702033608696,15.119065089115933,0.21350219965990022,1072,0,3.2279536533274573,1.8024481961822663,55.83872600910043,0.15579755408831197,0.08699536935625257,0.072265625,,
1.354304999999993,1200,,,,0,0.01171875,-0.9609375,0.016054946617651975,0.28081702033608696,15.119286610107384,0.21406101963525007,1072,0,3.2364499079171702,1.8024447589940853,55.69203325485904,0.1557978511878535,0.08676699109389518,0.072265625,,
1.362600000000035,1200,,,,-0.03125,0.087890625,-0.990234375,0.016054946617651975,0.28081702033608696,15.11912332341756,0.21368152005446356,1071,0,3.230677253638757,1.8003569929590004,55.72692199232322,0.15597852061248502,0.08692202850649933,0.072265625,,
1.370530000000028,1200,,,,-0.0625,0.041015625,-0.96484375,0.016054946617651975,0.28081702033608696,15.1190697225592,0.21333518642190788,1070,0,3.22542955778799,1.7995600727725225,55.792880933560575,0.15604759440091462,0.08706344854378782,0.072265625,,
1.3790050000000047,1200,,,,0,0.0859375,-0.9765625,0.016054946617651975,0.28081702033608696,15.119194452036462,0.21391112370992058,1070,0,3.2341638748239165,1.7992145086103741,55.63151955954403,0.15607756551106095,0.086828321385346,0.072265625,,
1.3892299999999813,1200,,,,-0.03125,0.01953125,-0.958984375,0.016054946617651975,0.28081702033608696,15.11910310832591,0.21439653719363108,1070,0,3.2414833518985393,1.7990978418102475,55.50230084496699,0.1560876867338853,0.08663225747299064,0.072265625,,
1.405405000000028,1200,,,,-0.03125,0.03515625,-0.947265625,0.016054946617651975,0.28081702033608696,15.119166157573328,0.2137886987605434,1070,0,3.2323068591720467,1.7990314897084096,55.657818644397835,0.15609344357924626,0.08687820574313235,0.0703125,,
1.414304999999993,1200,,,,-0.0625,0.0234375,-0.953125,0.016054946617651975,0.28081702033608696,15.119139775995697,0.21523746842006736,1070,0,3.254205370074458,1.799025526412895,55.283097463874334,0.1560939609878757,0.0862935765881493,0.0703125,,
1.421469999999972,1200,,,,-0.03125,0.107421875,-0.994140625,0.016054946617651975,0.28081702033608696,15.118919900379165,0.21486092079854743,1070,0,3.2484650512749504,1.7990235586822647,55.380726905964025,0.15609413171986347,0.08644606480401337,0.0703125,,
1.4305250000000234,1200,,,,0,0.00390625,-1.01953125,0.016054946617651975,0.28081702033608696,15.118758517036444,0.21463472696736588,1070,0,3.2450106063896547,1.7990225684411913,55.439651411270866,0.15609421763919726,0.08653809013232144,0.0703125,,
1.4379499999999534,1200,,,,-0.041015625,0.05078125,-0.96875,0.016054946617651975,0.2827854591011579,15.118818998904999,0.2142350247360707,1070,0,3.238980562210588,1.7991306966566278,55.54620233437678,0.15717894182266223,0.08730693305184833,0.0703125,,
1.4449749999999768,1200,,,,-0.0625,0.10546875,-0.9921875,0.016054946617651975,0.2827854591011579,15.11878456841157,0.21500204965764363,1070,0,3.2505696705408407,1.7993698614435079,55.355523610239146,0.15715805024893492,0.08699566161094067,0.072265625,,
1.4524499999999534,1200,,,,0,0.02734375,-0.94140625,0.016054946617651975,0.2827854591011579,15.118779423852668,0.21557990470954255,1070,0,3.2593050275187507,1.7994790002263117,55.21051221143981,0.15714851857987414,0.08676250204063818,0.0703125,,
1.460579999999958,1200,,,,-0.0625,0.03515625,-0.958984375,0.015813156790107235,0.2827854591011579,15.118946526895147,0.21443044474480358,1070,0,3.2419624278350296,1.772429041951848,54.67148621877982,0.15954684357335214,0.08722663059670341,0.0703125,,
1.4684099999999745,1200,,,,-0.03125,0.0625,-0.966796875,0.015813156790107235,0.2827854591011579,15.11881044308844,0.21375999713916002,1070,0,3.2317968770620875,1.7724469226812032,54.8440075321959,0.15954523403915796,0.08750100017369537,0.0703125,,
1.476365000000049,1200,,,,-0.0625,0.1171875,-1.046875,0.015813156790107235,0.2827854591011579,15.118606986325588,0.21382629811419665,1070,0,3.2327557645294314,1.7724545696665341,54.827976462506975,0.1595445457055413,0.08747504596664787,0.072265625,,
1.4843400000000255,1200,,,,-0.03125,0.015625,-0.9609375,0.015813156790107235,0.2827854591011579,15.118479654458568,0.21489708170985472,1070,0,3.248917157632959,1.7719228360702521,54.53887403399382,0.15959242318266853,0.08703991064739394,0.0703125,,
1.4932999999999883,1200,,,,0,0.07421875,-0.9921875,0.015813156790107235,0.2827854591011579,15.11856614269245,0.21466240744638682,1070,0,3.245387805327795,1.771695781682935,54.59118872556397,0.1596128759941731,0.08713456636427941,0.0703125,,
1.5004650000000257,1200,,,,-0.03125,0.04296875,-0.94140625,0.015813156790107235,0.2827854591011579,15.11868048023516,0.21450150264056012,1070,0,3.2429796809529465,1.7716292316995317,54.629674126695114,0.1596188717375591,0.08719926947493598,0.0703125,,
1.508429999999993,1200,,,,-0.0625,0.083984375,-1.009765625,0.015813156790107235,0.2827854591011579,15.118550517499951,0.21347902827622312,1070,0,3.2274934734208798,1.771596406560947,54.89078200003916,0.15962182924614632,0.08761767031597693,0.0703125,,
1.5161899999999442,1200,,,,0,0.015625,-0.94921875,0.015813156790107235,0.2827854591011579,15.11842434671895,0.2147419358994666,1070,0,3.246559711964056,1.7715831964853492,54.56801518101766,0.15962301949023736,0.08710311350783148,0.0703125,,
1.524570000000007,1200,,,,-0.03125,0.001953125,-0.9609375,0.015813156790107235,0.2827854591011579,15.118567135068437,0.21497285948997094,1071,0,3.2500816084167594,1.7728648832693772,54.548318992303955,0.15950762055801304,0.08700872567901877,0.0703125,,
1.5322449999999954,1200,,,,-0.03125,0.072265625,-0.974609375,0.015813156790107235,0.2827854591011579,15.118734398825746,0.21550846652803085,1071,0,3.258215266135527,1.7733687908495648,54.42761284931629,0.15946229603244813,0.08679152112517151,0.0703125,,
1.542625,1200,,,,-0.0625,0.01171875,-0.96484375,0.015813156790107235,0.2827854591011579,15.118731093036866,0.2157034446258944,1071,0,3.2611623751406658,1.7735701846098926,54.38460219367004,0.15944418865124202,0.08671308771890278,0.0703125,,
1.5498099999999977,1200,,,,-0.0625,0.021484375,-0.91796875,0.015813156790107235,0.2827854591011579,15.118806839311311,0.21411335750451693,1071,0,3.2371384938271985,1.7736566995586602,54.79088098766217,0.1594364113255533,0.08735661438038345,0.0703125,,
1.5574700000000303,1200,,,,-0.03125,0.03515625,-1,0.015813156790107235,0.2827854591011579,15.118771854816355,0.21434506009831555,1071,0,3.2406340618333336,1.7736811296178914,54.73253368862208,0.1594342153045734,0.0872623856027659,0.0703125,,
1.5660200000000186,1200,,,,-0.0625,0.04296875,-0.98046875,0.015813156790107235,0.2827854591011579,15.118765914489334,0.21389380694240978,1071,0,3.233810397721267,1.7728834359735375,54.82335752345949,0.1595059513576384,0.08744651798399349,0.0703125,,
1.574539999999979,1200,,,,-0.03125,0.033203125,-1.005859375,0.015813156790107235,0.2827854591011579,15.118568929643796,0.2139522671591764,1070,0,3.234652098699573,1.7726295368086213,54.80124238156158,0.1595287978842295,0.08742376319692807,0.0703125,,
1.5831300000000046,1200,,,,-0.0625,0.03125,-0.947265625,0.015813156790107235,0.283584832253801,15.118539653524527,0.21423568903353238,1070,0,3.238930759853609,1.7725239310948357,54.725588859915895,0.1599892826714272,0.0875550770546939,0.0703125,,
1.5903699999999954,1200,,,,-0.0625,0.10546875,-0.9921875,0.015813156790107235,0.283584832253801,15.118297568390387,0.2148814324834591,1070,0,3.248641438206923,1.7724860505563356,54.560839793223025,0.15999270186910153,0.08729336174764943,0.0703125,,
1.5985249999999651,1200,,,,-0.03125,0.013671875,-0.953125,0.015813156790107235,0.283584832253801,15.118478516884872,0.21510469618109487,1070,0,3.2520557280949305,1.7724700314796926,54.503064512920076,0.1599941478373312,0.08720171361267734,0.0703125,,
1.6100850000000209,1200,,,,-0.0625,0.03515625,-0.951171875,0.015895740250198253,0.283584832253801,15.11844326833436,0.21590635507467473,1070,0,3.2641679804693244,1.7818483748030471,54.58813349878066,0.15915205595714418,0.08687813677193996,0.0703125,,
1.6167050000000163,1200,,,,-0.0625,0.087890625,-1.0078125,0.015895740250198253,0.283584832253801,15.118343638846317,0.21605083695566643,1070,0,3.2663307965561224,1.781873373276993,54.55275305109094,0.1591498231618267,0.08682061001071924,0.0703125,,
1.6243300000000163,1200,,,,-0.0625,0.01953125,-0.9921875,0.015895740250198253,0.283584832253801,15.118416279427104,0.21648523064707284,1070,0,3.2729138352702374,1.7818852352134846,54.44338974070053,0.15914876370802028,0.08664598169306405,0.0703125,,
1.6312449999999954,1200,,,,-0.0625,0.046875,-1.009765625,0.015895740250198253,0.283584832253801,15.11857113546673,0.21661342891613475,1070,0,3.274885533965949,1.7818903043424994,54.410765990486276,0.1591483109609495,0.08659381505477363,0.0703125,,
1.6392549999999464,1200,,,,-0.0625,0.0546875,-0.9921875,0.015895740250198253,0.283584832253801,15.11864090684048,0.21654002296794084,1070,0,3.273790849211287,1.7818926693933481,54.42903201414461,0.15914809972833466,0.08662277015103806,0.0703125,,
1.6466450000000186,1200,,,,-0.03125,0.037109375,-0.974609375,0.015895740250198253,0.283584832253801,15.118787773929741,0.2178056161420854,1071,0,3.292956886422195,1.7819946314724042,54.11533442238733,0.15913899360038145,0.086118598583268,0.0703125,,
1.6562000000000117,1200,,,,-0.0625,0.03515625,-0.98828125,0.015895740250198253,0.283584832253801,15.119001871978776,0.21837499657921716,1071,0,3.3016119820745433,1.7820444740916925,53.97498203201814,0.15913454258673543,0.0858928407679247,0.0703125,,
1.664765000000014,1200,,,,-0.03125,-0.01171875,-0.95703125,0.015895740250198253,0.283584832253801,15.118982617488818,0.21768657373489314,1071,0,3.2911995243585475,1.7820626647617277,54.14629686144752,0.1591329181971937,0.08616458229133693,0.0703125,,
1.6722650000000139,1200,,,,-0.0625,0.099609375,-1.015625,0.015895740250198253,0.283584832253801,15.11884540200152,0.21776770311400495,1071,0,3.292396236929606,1.782068241003438,54.1267852579416,0.15913242025688168,0.08613326338820752,0.0703125,,
1.68025,1200,,,,0,-0.046875,-0.96484375,0.015895740250198253,0.283584832253801,15.118964479699363,0.2176405497652619,1071,0,3.290499741243236,1.782106056556674,54.15913073080346,0.1591290435327593,0.08618290671758427,0.0703125,,
1.6888150000000024,1200,,,,-0.09375,0.056640625,-0.98828125,0.015895740250198253,0.283584832253801,15.118615048315302,0.2177314232333695,1071,0,3.291797571787128,1.782194472828337,54.14046380320943,0.15912114899770327,0.08614892807635248,0.0703125,,
1.6990449999999837,1200,,,,-0.0625,0.072265625,-0.998046875,0.015895740250198253,0.283584832253801,15.118486932255571,0.21717782983706063,1071,0,3.283400182367225,1.78222824642408,54.279958196845534,0.1591181336188531,0.08636925641191429,0.0703125,,
1.7087549999999465,1200,,,,-0.03125,0.0234375,-0.982421875,0.015895740250198253,0.283584832253801,15.11838340861253,0.21710937121192722,1071,0,3.2823427155846994,1.7822439168451039,54.297922894612306,0.15911673456896844,0.0863970818486834,0.072265625,,
1.716539999999979,1200,,,,-0.03125,0.01953125,-0.970703125,0.015895740250198253,0.283584832253801,15.118466637552292,0.21745338464485775,1071,0,3.2875617409761078,1.7822478712725789,54.211844877578265,0.15911638152290952,0.08625992592601532,0.0703125,,
1.7244249999999883,1200,,,,-0.0625,0.02734375,-0.9609375,0.015895740250198253,0.283584832253801,15.118672321139291,0.2174449214935631,1070,0,3.2874785159570385,1.7816037011490462,54.19362263513964,0.15917391284655663,0.08626210966164895,0.0703125,,
1.7322849999999743,1200,,,,-0.0625,0.048828125,-0.97265625,0.015895740250198253,0.29111068923062283,15.119131739286681,0.21818545033946468,1070,0,3.2987745672779583,1.7813477168868124,54.00028648689149,0.16342159729453884,0.08824813072050508,0.0703125,,
1.739509999999951,1200,,,,-0.0625,0.05078125,-0.94921875,0.015895740250198253,0.29111068923062283,15.119255771793995,0.21767757133067495,1070,0,3.2911228767314062,1.7812543672456826,54.12299795426488,0.16343016167913252,0.08845330306224869,0.072265625,,
1.7475800000000163,1200,,,,-0.0625,0.09375,-0.9921875,0.015895740250198253,0.29111068923062283,15.119226926284522,0.21648663926682513,1070,0,3.2731106255838265,1.7812107151922958,54.41950850269781,0.16343416685498388,0.08894007032796127,0.072265625,,
1.755914999999979,1200,,,,-0.0625,0.08203125,-0.978515625,0.015895740250198253,0.29111068923062283,15.11916636342287,0.21663305928311535,1070,0,3.2753112631186703,1.7811934480915967,54.38241757809572,0.16343575120519568,0.08888031269230712,0.072265625,,
1.7647699999999604,1200,,,,-0.0625,0.06640625,-0.9921875,0.01578169385589798,0.29111068923062283,15.118994170064205,0.2171405109048457,1070,0,3.282946118455125,1.7684069399822973,53.86646250577108,0.16461747726093917,0.08867361166671003,0.072265625,,
1.7729899999999907,1200,,,,0,0.0234375,-0.96875,0.01578169385589798,0.29111068923062283,15.118978115256976,0.21682732152384782,1070,0,3.278207528908843,1.7684045130854462,53.94425146946272,0.1646177031762398,0.08880178776464452,0.072265625,,
1.7801750000000465,1200,,,,-0.0625,0.0625,-0.984375,0.01578169385589798,0.29111068923062283,15.119159311203534,0.2167430089496435,1070,0,3.2769720818992734,1.7684035582098117,53.96455978303231,0.16461779206400134,0.0888352668118858,0.072265625,,
1.7878649999999907,1200,,,,0,0.06640625,-0.9921875,0.01578169385589798,0.29111068923062283,15.119108850936188,0.21686095739182684,1070,0,3.278744420325265,1.7684032058871497,53.93537827848493,0.16461782486114765,0.0887872465526738,0.072265625,,
1.7954000000000232,1200,,,,-0.0625,0.06640625,-1,0.01578169385589798,0.29111068923062283,15.11915217730707,0.21804210048387218,1070,0,3.296611698275343,1.7684030438891662,53.643049462401805,0.16461783994128212,0.08830602930363939,0.072265625,,
1.8033499999999767,1200,,,,-0.03125,0.013671875,-0.970703125,0.01578169385589798,0.29111068923062283,15.1190955132881,0.2168303391655476,1070,0,3.2782786080225677,1.768510146887986,53.94630409264506,0.16460787049646555,0.08879986237845067,0.072265625,,
1.8118099999999977,1200,,,,-0.0625,0.1171875,-1.015625,0.01578169385589798,0.29111068923062283,15.119238338636983,0.21695923257862582,1070,0,3.2802583471240174,1.7685522798614501,53.9150302418112,0.16460394897312772,0.08874626886807728,0.072265625,,
1.820725000000035,1200,,,,-0.03125,0.01171875,-0.98828125,0.01578169385589798,0.29111068923062283,15.119279880917945,0.21543780208007168,1070,0,3.25726442657841,1.7685697689356057,54.29616811286635,0.1646023212337417,0.08937275305475269,0.072265625,,
1.8285599999999977,1200,,,,-0.0625,0.068359375,-0.982421875,0.01578169385589798,0.29111068923062283,15.11938111512322,0.21542165983197487,1070,0,3.2570421754520593,1.768575763196603,54.300057166165935,0.16460176334456622,0.08937885159261665,0.072265625,,
1.8366000000000349,1200,,,,-0.0625,0.0546875,-0.98828125,0.01578169385589798,0.29111068923062283,15.119313264726749,0.21689999712942826,1070,0,3.2793790037181583,1.7685781135837697,53.93027495689143,0.16460154459376905,0.08877006558270992,0.072265625,,
1.8446299999999465,1200,,,,-0.03125,0.046875,-0.982421875,0.01578169385589798,0.29111068923062283,15.119476601391295,0.21786879238194726,1070,0,3.2940621085922297,1.768259598589663,53.680214285496795,0.16463119412037028,0.08837437778458697,0.072265625,,
1.8546900000000024,1200,,,,-0.0625,0.033203125,-0.95703125,0.01578169385589798,0.29111068923062283,15.119403572198022,0.2160127287800758,1070,0,3.2659836231577204,1.7681319854131032,54.137809292000746,0.16464307621391072,0.08913415461317044,0.072265625,,
1.869625,1200,,,,0,0.037109375,-0.97265625,0.01578169385589798,0.29111068923062283,15.119262013063294,0.2143183140361102,1070,0,3.240334744109931,1.7680617560485883,54.564169929124006,0.16464961601862893,0.08983969627205488,0.072265625,,
1.880265000000014,1200,,,,-0.0625,0.052734375,-0.9765625,0.01578169385589798,0.29111068923062283,15.119303564648446,0.2146069497359509,1070,0,3.2447076201410923,1.7680540367953785,54.49039617068785,0.16465033487226716,0.08971861976826258,0.072265625,,
1.8894150000000371,1200,,,,-0.03125,0.033203125,-0.962890625,0.01578169385589798,0.2913252225075368,15.119285360621369,0.21509331230530584,1071,0,3.252057167905171,1.7695875989103085,54.41440625258741,0.16462887889072658,0.08958182696868008,0.072265625,,
1.8967949999999838,1200,,,,-0.03125,0.0546875,-0.96484375,0.01578169385589798,0.2913252225075368,15.119251955427188,0.2143897432299765,1071,0,3.2414125445533553,1.7700716273839443,54.60803285771969,0.16458386090177454,0.08987600883974473,0.072265625,,
1.9045849999999627,1200,,,,-0.0625,0.0078125,-0.94921875,0.01578169385589798,0.2913252225075368,15.11937293687076,0.2140393943363095,1071,0,3.2361414261526065,1.7702291284732,54.70184690221635,0.16456921752202838,0.09002240141707539,0.072265625,,
1.911609999999986,1200,,,,0,0.03515625,-1.01171875,0.01573636749054268,0.2913252225075368,15.119314200906919,0.21399233229979922,1071,0,3.235417308625547,1.7652113367603073,54.55900022708957,0.16503702216313998,0.09004254929676939,0.0703125,,
1.9194249999999884,1200,,,,-0.0625,0.048828125,-0.951171875,0.01573636749054268,0.2913252225075368,15.119250071473278,0.2136232456255909,1071,0,3.229823271693069,1.7649763015010318,54.64621909717783,0.16505899952298395,0.09019850251893953,0.0703125,,
1.9265900000000256,1200,,,,-0.0625,0.0703125,-0.958984375,0.01573636749054268,0.2913252225075368,15.119283295611822,0.21301638579885604,1071,0,3.2206550835002474,1.7646356695869327,54.79120315079208,0.16509086126301098,0.09045526917800864,0.0703125,,
1.9336749999999883,1200,,,,0,0.01953125,-0.95703125,0.01573636749054268,0.2913252225075368,15.119313888063427,0.2132908775465717,1071,0,3.224811727087117,1.764493122385966,54.71615932071121,0.1651041983737538,0.09033867622736623,0.0703125,,
1.9407050000000163,1200,,,,0,0.0625,-0.984375,0.01573636749054268,0.2913252225075368,15.119172560298704,0.2135536590231289,1071,0,3.2287546216538763,1.7644304304175764,54.64739929706322,0.1651100646901622,0.09022835633087231,0.0703125,,
1.9487999999999883,1200,,,,-0.0625,0.076171875,-0.943359375,0.01573636749054268,0.2913252225075368,15.119310922338878,0.21384215484218896,1071,0,3.233146027361989,1.764400667249539,54.57225415485365,0.16511284988441613,0.09010580408124556,0.0703125,,
1.9564049999999698,1200,,,,-0.0625,0.08984375,-0.98046875,0.01573636749054268,0.2913252225075368,15.119213502321601,0.21369066167537745,1071,0,3.230834737322404,1.764388853266519,54.610928652103674,0.16511395544592614,0.09017026440324098,0.0703125,,
1.9637350000000442,1200,,,,-0.03125,0.037109375,-0.962890625,0.01573636749054268,0.2913252225075368,15.119161519175146,0.2130998408632029,1070,0,3.2218909137212846,1.763394976042311,54.731678485215674,0.16520701627571535,0.09042057298304247,0.0703125,,
1.9717849999999744,1200,,,,-0.03125,0.05078125,-1.005859375,0.01573636749054268,0.2913252225075368,15.119105157738057,0.21340807328312159,1070,0,3.2265391014777847,1.762928105297205,54.63836171983063,0.1652507675339508,0.09029031210999648,0.0703125,,
1.9797399999999907,1200,,,,0,0.0703125,-0.97265625,0.01573636749054268,0.2913252225075368,15.118951908018444,0.2119921184241611,1070,0,3.205098643333842,1.7627407623847897,54.99801904852583,0.16526833027529614,0.09089430776598798,0.0703125,,
1.9878250000000117,1200,,,,-0.03125,0.046875,-0.978515625,0.01573636749054268,0.2913252225075368,15.11890459086014,0.21203931849818158,1070,0,3.205802225885013,1.762666997955602,54.98364757885179,0.16527524645632166,0.09087435904662267,0.0703125,,
2.0091000000000347,1200,,,,-0.0625,0.08984375,-0.978515625,0.01573636749054268,0.2913252225075368,15.118756174544405,0.2139487108827908,1070,0,3.234638393695009,1.762928351034623,54.50155895233735,0.16525074449938057,0.09006423193250626,0.0703125,,
2.0184649999999675,1200,,,,-0.03125,0.025390625,-0.955078125,0.01573636749054268,0.2913252225075368,15.118909526078449,0.21410223311568538,1070,0,3.2369922918074043,1.7632075100769464,54.47055016286255,0.16522458124898942,0.08999873841061039,0.0703125,,
2.026575000000012,1200,,,,-0.03125,0.03125,-0.951171875,0.01573636749054268,0.2913252225075368,15.119182251892385,0.21659757291415413,1070,0,3.274778180206646,1.763281271045613,53.84429643825054,0.16521766963178997,0.08896029180491043,0.0703125,,
2.034385000000009,1200,,,,-0.0625,0.12109375,-0.98046875,0.01573636749054268,0.29140849160784094,15.119027285424561,0.21990603419131236,1070,0,3.324765331167958,1.7633070114854865,53.035532912816244,0.1652624810709201,0.08764783754090456,0.0703125,,
2.0415950000000302,1200,,,,-0.03125,0.06640625,-1.001953125,0.01573636749054268,0.29140849160784094,15.118899458473757,0.221813182766748,1070,0,3.353571208814527,1.7640521831020646,52.6021984702585,0.16519267082870678,0.08689497656763714,0.0703125,,
2.049724999999977,1200,,,,-0.0625,0.025390625,-0.96875,0.01573636749054268,0.29140849160784094,15.118755585968094,0.2213727264338415,1071,0,3.346880144352628,1.765221656183585,52.74230268335539,0.16508322939900194,0.08706869652907955,0.0703125,,
2.057960000000021,1200,,,,-0.0625,0.0546875,-0.96875,0.015779452401839967,0.29140849160784094,15.11881805794233,0.2208403997607309,1071,0,3.338845823825741,1.7705143618467458,53.02773638760121,0.16458973611707137,0.08727821138920906,0.0703125,,
2.065994999999995,1200,,,,-0.03125,0.0703125,-0.970703125,0.015779452401839967,0.29140849160784094,15.118874934320027,0.21920924909661257,1072,0,3.3141972215378908,1.7706882229555079,53.42736429348201,0.16457357530816036,0.08792732361069878,0.0703125,,
2.0745650000000024,1200,,,,-0.0625,0.02734375,-0.94921875,0.015779452401839967,0.29140849160784094,15.118936634075524,0.21850795502789996,1072,0,3.303607926108244,1.770762785364677,53.60087592024555,0.16456664552492684,0.08820916347392635,0.0703125,,
2.0826749999999885,1200,,,,0,0.005859375,-0.994140625,0.015779452401839967,0.29140849160784094,15.118793194394204,0.21855398447920796,1074,0,3.3042724931519856,1.7745168309610038,53.703707386077916,0.16421849966338517,0.08819142253303172,0.0703125,,
2.0911650000000375,1200,,,,-0.09375,0.109375,-0.986328125,0.015779452401839967,0.29140849160784094,15.118985667831145,0.21838283274503778,1076,0,3.301726918372592,1.7778975466450895,53.84750436966507,0.16390623416840394,0.08825941660598478,0.0703125,,
2.100259999999951,1200,,,,-0.0625,0.05078125,-0.97265625,0.015779452401839967,0.29140849160784094,15.118970106983218,0.21694955475096842,1077,0,3.2800538330032105,1.779206550124722,54.24321187118092,0.16378564455454214,0.08884259419029959,0.0703125,,
2.1077150000000255,1200,,,,-0.03125,0.0390625,-0.955078125,0.015779452401839967,0.29140849160784094,15.119026669727674,0.21780133417089542,1077,0,3.292944180032037,1.7797556614232137,54.04755028085226,0.16373511146738584,0.08849481669774488,0.0703125,,
2.115760000000009,1200,,,,-0.0625,0.0546875,-0.9375,0.015779452401839967,0.29140849160784094,15.11881311634039,0.22022219705798438,1077,0,3.329498241389552,1.7799415546894437,53.45975356174366,0.16371801132463845,0.08752324539033929,0.0703125,,
2.1240449999999838,1200,,,,0,0.015625,-0.99609375,0.015779452401839967,0.29140849160784094,15.118871968354762,0.2224421128557872,1076,0,3.3630738246369676,1.777515770558573,52.8539028057301,0.16394143806457914,0.08664944833296886,0.0703125,,
2.1318249999999535,1200,,,,-0.0625,0.05078125,-0.97265625,0.015779452401839967,0.29140849160784094,15.118797340221432,0.221665425886984,1075,0,3.3513146513191847,1.7765767523526506,53.011338450519204,0.1640280901018997,0.08695348599784064,0.0703125,,
2.140025000000023,1200,,,,-0.0625,0.03515625,-0.98046875,0.015779452401839967,0.29140849160784094,15.118758332188666,0.2209195868087036,1075,0,3.340029843807765,1.7762010305196396,53.179196401871096,0.16406278715117475,0.08724727180150696,0.0703125,,
2.1471849999999977,1200,,,,0,0.06640625,-0.96875,0.015779452401839967,0.29140849160784094,15.118753925898885,0.22105911408629603,1075,0,3.3421383489479175,1.776053341055872,53.14122743048508,0.16407642995372942,0.0871922288015319,0.0703125,,
2.153945000000007,1200,,,,-0.03125,0.001953125,-0.99609375,0.015779452401839967,0.29140849160784094,15.118636983609635,0.22016106708187466,1075,0,3.328535251134992,1.7759988367795445,53.35676815121455,0.1640814653551564,0.08754856704866623,0.0703125,,
2.162820000000007,1200,,,,-0.0625,0.05859375,-0.9921875,0.015779452401839967,0.29140849160784094,15.118781900391298,0.2190085178395455,1075,0,3.311142015544045,1.7767115364011796,53.65857242185527,0.164015646680667,0.08800845455731997,0.0703125,,
2.170524999999965,1200,,,,-0.03125,0.015625,-0.962890625,0.015779452401839967,0.29140849160784094,15.118924527296429,0.21927577404884913,1076,0,3.315213878509055,1.777491361689833,53.616189688769666,0.16394368934136674,0.08790035946003445,0.0703125,,
2.179225000000035,1200,,,,-0.0625,0.05859375,-1.009765625,0.015779452401839967,0.29140849160784094,15.118879123802905,0.21864461582422745,1076,0,3.305661517716819,1.777749828700549,53.77894316077527,0.16391985357177433,0.08815436488159056,0.0703125,,
2.186905000000028,1200,,,,0,0.01171875,-0.97265625,0.015779452401839967,0.2914445254463863,15.118868712304828,0.21900474033270595,1076,0,3.3111039164625913,1.7778516221735616,53.69362203747819,0.16393073629512048,0.08802034994955708,0.0703125,,
2.1942850000000327,1200,,,,-0.0625,0.072265625,-0.9453125,0.015779452401839967,0.2914445254463863,15.11882652473219,0.22250650869806965,1076,0,3.364037305629929,1.7778914198986464,52.84993174490761,0.16392706674010546,0.08663534288357488,0.0703125,,
2.2018199999999486,1200,,,,0,0.0625,-1.0625,0.015779452401839967,0.2914445254463863,15.11876165284426,0.2248265583788031,1076,0,3.3990991493583995,1.777501957178219,52.29332476264287,0.16396298427094502,0.08574169585532632,0.072265625,,
2.2100650000000024,1200,,,,-0.03125,0.033203125,-0.986328125,0.016344353412931573,0.2914445254463863,15.118531271964274,0.22393641162250522,1075,0,3.385589642046309,1.8407285214323055,54.36951066283796,0.15833107492657736,0.08608383066479144,0.072265625,,
2.217655000000028,1200,,,,-0.0625,0.04296875,-0.93359375,0.016344353412931573,0.2914445254463863,15.118405449700125,0.22176948192911553,1075,0,3.3528009441743136,1.8405633793339045,54.8962914882254,0.15834528097144876,0.08692568699993601,0.072265625,,
2.226,1200,,,,-0.0625,0,-1.01171875,0.016344353412931573,0.2914445254463863,15.11841827511856,0.22038198403153042,1075,0,3.331827014889176,1.8404995740580528,55.239949908361965,0.15835077038555925,0.08747288624048821,0.072265625,,
2.233755000000005,1200,,,,-0.03125,0.099609375,-0.9921875,0.016344353412931573,0.2914445254463863,15.118300814105673,0.21970439065126038,1075,0,3.3215570680455406,1.840474443910052,55.409990140347574,0.15835293253364502,0.08774334430384396,0.072265625,,
2.2417700000000185,1200,,,,-0.0625,-0.03515625,-0.97265625,0.016344353412931573,0.2914445254463863,15.118253405827895,0.21905217271646754,1079,0,3.3116862562247356,1.8463164154607918,55.751549893665356,0.15785188443642229,0.08800487210966294,0.072265625,,
2.250109999999986,1200,,,,-0.0625,0.0625,-1,0.016344353412931573,0.2914445254463863,15.11814153604999,0.21799405903921018,1080,0,3.295665038572817,1.8486301056545458,56.092778969281795,0.15765432173527993,0.08843269022649097,0.072265625,,
2.2576450000000188,1200,,,,-0.03125,0.0625,-1.01171875,0.016344353412931573,0.2914445254463863,15.118329532605731,0.21838216199574131,1081,0,3.3015734890945048,1.8495248885762237,56.01949781476703,0.15757805004221503,0.08827443229995113,0.072265625,,
2.266,1200,,,,-0.03125,0.03515625,-0.955078125,0.016344353412931573,0.2914445254463863,15.118115794061566,0.21714919981256403,1081,0,3.282886747354155,1.8498824511387855,56.34926189975026,0.15754759188454023,0.08877690516776927,0.072265625,,
2.2739099999999746,1200,,,,-0.0625,0.046875,-0.96875,0.016344353412931573,0.2914445254463863,15.118077843651308,0.2174719487413784,1081,0,3.287757849882706,1.850021450668892,56.27000330133477,0.1575357547022019,0.08864537437171167,0.072265625,,
2.2819349999999976,1200,,,,-0.0625,0.0390625,-0.99609375,0.016344353412931573,0.2914445254463863,15.117974260304873,0.21562226015577954,1078,0,3.259771778983836,1.8458441855485863,56.62495139840706,0.15789226833345568,0.08940642020566174,0.072265625,,
2.290164999999979,1200,,,,0,0.02734375,-0.9609375,0.016344353412931573,0.2914445254463863,15.118137128806978,0.2162290056855549,1076,0,3.2689797591798024,1.8421584137834124,56.35270174464512,0.15820817757351252,0.08915458244364005,0.072265625,,
2.298015000000014,1200,,,,-0.0625,0.0234375,-0.962890625,0.016344353412931573,0.2914445254463863,15.118030779563648,0.21509281445829723,1075,0,3.2517797894435105,1.8406696643427765,56.60499122106227,0.15833613770695165,0.08962615684878905,0.072265625,,
2.3048249999999535,1200,,,,0,0,-0.97265625,0.016344353412931573,0.2914445254463863,15.11811437047164,0.21527780523291395,1075,0,3.254594480935311,1.8401387817084705,56.539725378617625,0.15838181790603623,0.08954864489373511,0.072265625,,
2.314664999999979,1200,,,,-0.03125,0.05078125,-0.966796875,0.016344353412931573,0.2914445254463863,15.118109468483064,0.21489527886736726,1075,0,3.2488103501770533,1.839901840239921,56.633094638462055,0.15840221422267955,0.08970807589014952,0.0703125,,
2.322960000000021,1200,,,,-0.0625,0.041015625,-0.931640625,0.016344353412931573,0.2914445254463863,15.11796940550833,0.21548623485815935,1074,0,3.2577143058938356,1.8377504802104,56.412266627725884,0.15858764755323013,0.08946288657636638,0.0703125,,
2.3378699999999952,1200,,,,-0.03125,0.0546875,-0.978515625,0.016344353412931573,0.2778329504793827,15.118201414061023,0.21568375508070467,1073,0,3.2607504510511007,1.8361778866440548,56.31151215672343,0.1513104762345071,0.08520521721919058,0.0703125,,
2.3457550000000045,1200,,,,-0.03125,0.0390625,-1.001953125,0.016344353412931573,0.2778329504793827,15.118191530555535,0.21586950116859682,1073,0,3.2635564642723285,1.835979796465518,56.25702562725184,0.15132680164250423,0.08513195758092416,0.072265625,,
2.3530299999999698,1200,,,,0,0.09375,-0.99609375,0.016344353412931573,0.2778329504793827,15.118381842555252,0.215837224452616,1073,0,3.263109575111952,1.8359080844016196,56.26253247528877,0.15133271259053108,0.08514361656698298,0.0703125,,
2.3607849999999746,1200,,,,-0.0625,0.064453125,-1.021484375,0.016072334990054383,0.2778329504793827,15.11836314142597,0.216014647700598,1072,0,3.265787887804837,1.804663474773071,55.259665868444095,0.1539527753307686,0.08507378924297915,0.072265625,,
2.367994999999995,1200,,,,-0.0625,0.11328125,-0.9765625,0.016072334990054383,0.2778329504793827,15.118433549768799,0.21532267123750184,1072,0,3.255341496862885,1.8038010888932163,55.41050272702594,0.15402637917790407,0.08534679103471185,0.072265625,,
2.3757849999999743,1200,,,,0,0.0078125,-0.986328125,0.016072334990054383,0.2778329504793827,15.118509992942984,0.21488892429814863,1071,0,3.2488003493743283,1.803396950249725,55.50962682569992,0.15406089626629896,0.0855186286017512,0.072265625,,
2.382960000000021,1200,,,,-0.0625,0.02734375,-0.8984375,0.016072334990054383,0.2778329504793827,15.118516783145143,0.21489845295697493,1071,0,3.2489458677019525,1.8032474433732675,55.502538878825405,0.15407366942367656,0.08551479827390901,0.072265625,,
2.3905900000000257,1200,,,,-0.0625,0.080078125,-1.017578125,0.016072334990054383,0.2778329504793827,15.118590318555423,0.21383299668319206,1071,0,3.2328534734422014,1.803176822012271,55.776633145464736,0.15407970371387794,0.08594047109210871,0.072265625,,
2.3988850000000093,1200,,,,0,0.00390625,-0.94140625,0.016072334990054383,0.2778329504793827,15.118594088014197,0.21283682851902475,1071,0,3.217793617359419,1.8032582686979066,56.04020901059818,0.15407274448823122,0.08634268803956968,0.072265625,,
2.4063699999999955,1200,,,,-0.0625,0.029296875,-0.97265625,0.016072334990054383,0.2778329504793827,15.118740545743085,0.2136809620229251,1071,0,3.2305870243893864,1.803389943178622,55.82236075251621,0.15406149486986687,0.08600076344697632,0.072265625,,
2.415735000000044,1200,,,,-0.03125,0.060546875,-1.0234375,0.016072334990054383,0.2778329504793827,15.118654872404745,0.21270963672535295,1072,0,3.2158835856852006,1.8034587301095346,56.07972683268869,0.15405561870689902,0.08639397014123743,0.072265625,,
2.423820000000007,1200,,,,-0.0625,0.068359375,-1.01171875,0.016072334990054383,0.2778329504793827,15.118720038300589,0.21209038282309617,1072,0,3.206535120718387,1.80347883749139,56.243851060247906,0.15405390110695388,0.08664584669109675,0.072265625,,
2.4312700000000187,1200,,,,-0.0625,0.01953125,-0.91015625,0.016072334990054383,0.2778329504793827,15.118587750703892,0.21118143950988585,1072,0,3.192765124550175,1.8034868767070578,56.48667554150727,0.15405321439691932,0.08701953937765038,0.072265625,,
2.441684999999998,1200,,,,-0.03125,0.029296875,-1.013671875,0.016072334990054383,0.2778329504793827,15.118421452074255,0.21031785286074106,1071,0,3.1796739384440245,1.802652952407326,56.693012783865996,0.15412448087046088,0.08737781164295748,0.072265625,,
2.4569500000000115,1200,,,,-0.0625,0.08984375,-1.05859375,0.016072334990054383,0.2778329504793827,15.118201933508432,0.2087702944159936,1071,0,3.156231468698999,1.8020033294763786,57.09351000860421,0.15418004280830863,0.08802679817203195,0.07421875,,
2.466419999999984,1200,,,,-0.03125,0,-0.96875,0.016072334990054383,0.2778329504793827,15.118290479232671,0.21025736381670976,1071,0,3.178731901578723,1.8019225620755395,56.68683669675355,0.15418695360546553,0.08740370659802939,0.07421875,,
2.473695000000007,1200,,,,-0.03125,0.01171875,-1.00390625,0.016072334990054383,0.2778329504793827,15.118238885812914,0.21556000295441036,1071,0,3.2588876188913134,1.8018892788327014,55.291543911714,0.15418980163940388,0.08525392188083572,0.07421875,,
2.492224999999977,1200,,,,-0.03125,0.005859375,-0.951171875,0.016072334990054383,0.27488335707698575,15.11817937848312,0.22215877228298408,1072,0,3.3586361698777374,1.8037688680885802,53.70539638278956,0.15239389144590043,0.08184374346417886,0.07421875,,
2.5002600000000093,1200,,,,0,0.0078125,-0.970703125,0.016072334990054383,0.27488335707698575,15.118137706251074,0.2233114694771186,1072,0,3.3760535469403625,1.8039295346389317,53.433084207855366,0.15238031852059314,0.08142150391130676,0.07421875,,
2.519174999999988,1200,,,,-0.0625,0.060546875,-0.982421875,0.015960451346339163,0.27488335707698575,15.118209723880572,0.22018001343164306,1077,0,3.328727620066421,1.8002831209225167,54.08322117045413,0.15268895979879413,0.08257910783084763,0.07421875,,
2.527375,1200,,,,-0.0625,0.04296875,-0.9921875,0.015960451346339163,0.27488335707698575,15.11816324587796,0.2201412608889704,1082,0,3.3281315192728638,1.8084597072255084,54.33858898763183,0.1519986074219506,0.08259389855393778,0.07421875,,
2.536719999999972,1200,,,,-0.0625,0.095703125,-1.0234375,0.015960451346339163,0.27488335707698575,15.118382705219311,0.21926187726981952,1084,0,3.3148849732299586,1.8113454685573518,54.642784989079495,0.15175644947284236,0.08292395039250633,0.07421875,,
2.544640000000014,1200,,,,0,0.0390625,-0.984375,0.015960451346339163,0.27488335707698575,15.118398094087578,0.216691791607644,1084,0,3.2760327692454276,1.812552662816095,55.32767192782331,0.15165537681531957,0.08390738934528423,0.07421875,,
2.5531950000000068,1200,,,,-0.0625,0.0703125,-0.962890625,0.015960451346339163,0.27488335707698575,15.118679708073623,0.21584870150974853,1085,0,3.2633473835294753,1.8129758824361204,55.55571225994627,0.15161997450711878,0.08423355676577879,0.07421875,,
2.5615650000000025,1200,,,,-0.0625,0.05078125,-0.97265625,0.015960451346339163,0.27488335707698575,15.118744650431355,0.21581239761517404,1081,0,3.2628125319411767,1.806719030224555,55.37305660493054,0.1521450499377431,0.08424736462362634,0.07421875,,
2.568835000000021,1200,,,,-0.03125,0.046875,-0.998046875,0.015960451346339163,0.27488335707698575,15.11900068836246,0.21567239060805068,1080,0,3.2607510220638956,1.8042668058090816,55.33286023988023,0.1523518341034494,0.08430062743735584,0.07421875,,
2.5769000000000233,1200,,,,0,0,-0.984375,0.015960451346339163,0.27488335707698575,15.119179242659456,0.21648973998354876,1079,0,3.2731471830080134,1.8032955653439477,55.09362899124884,0.15243388957403467,0.08398136157884861,0.07421875,,
2.584100000000035,1200,,,,-0.03125,0.017578125,-0.9921875,0.015960451346339163,0.27488335707698575,15.119040889762884,0.21690233547485938,1079,0,3.2793552791294656,1.8029330485315724,54.978277590288336,0.15246453954619607,0.08382237777846262,0.07421875,,
2.5921999999999534,1200,,,,-0.0625,0.033203125,-0.962890625,0.015960451346339163,0.27488335707698575,15.11908802576114,0.21574944708038904,1079,0,3.2619348819176968,1.8027651856411921,55.26674354030463,0.15247873614733556,0.08427003206004571,0.072265625,,
2.600585000000021,1200,,,,0,0.0703125,-1.0390625,0.015960451346339163,0.27488335707698575,15.11906735679296,0.2157180051455891,1076,0,3.261455049869172,1.7977704354135626,55.121729655163485,0.15290236821240807,0.08428243004238621,0.072265625,,
2.6090499999999883,1200,,,,-0.03125,0.01171875,-0.96875,0.015960451346339163,0.27488335707698575,15.118972052130259,0.21544574259231875,1074,0,3.2573181610037167,1.7956884145010181,55.1278176015723,0.1530796517130561,0.08438947118149571,0.072265625,,
2.620875,1200,,,,-0.0625,0.07421875,-0.9765625,0.015960451346339163,0.27488335707698575,15.118825994754475,0.2162822531939043,1074,0,3.2699337517920695,1.794984247887737,54.893596755714256,0.1531397043737053,0.08406389179179469,0.072265625,,
2.628875,1200,,,,-0.03125,0.080078125,-0.97265625,0.015960451346339163,0.27488335707698575,15.118700721571889,0.21806421393568773,1074,0,3.2968475885784887,1.7946610227575006,54.435668454158346,0.15316728540447536,0.08337763566301469,0.072265625,,
2.637039999999979,1200,,,,-0.03125,0.015625,-0.951171875,0.015960451346339163,0.27365866750624807,15.118768938743267,0.2181369133544563,1073,0,3.2979615900166857,1.7939574952312771,54.39594871758955,0.1525446774707268,0.08297812452838893,0.072265625,,
2.645844999999972,1200,,,,0,0.00390625,-0.9765625,0.015960451346339163,0.27365866750624807,15.118763899363442,0.21777034154610989,1073,0,3.2924183781193728,1.7930995523234055,54.46147319064665,0.15261766540048227,0.08311782892627446,0.072265625,,
2.653395000000019,1200,,,,-0.0625,0.0703125,-1.001953125,0.015960451346339163,0.27365866750624807,15.118951415181797,0.21764258486347784,1073,0,3.2905276664255028,1.7927710721634043,54.48278373270418,0.15264562874500975,0.08316558778657018,0.072265625,,
2.6617249999999766,1200,,,,-0.0625,0.046875,-0.955078125,0.01505581552968505,0.27365866750624807,15.119003696240721,0.2164360129713652,1073,0,3.272296880113675,1.69103036492703,51.677168266843985,0.1618295408421343,0.08362892412645076,0.072265625,,
2.6702200000000302,1200,,,,0,0.00390625,-0.9921875,0.01505581552968505,0.27365866750624807,15.118909669045902,0.21734021567459702,1073,0,3.2859470882351864,1.6909778063131704,51.46089577545082,0.16183457079363125,0.08328151980475877,0.072265625,,
2.6782150000000255,1200,,,,-0.0625,0.052734375,-1.0078125,0.01505581552968505,0.27365866750624807,15.1188660274551,0.21744156876655432,1072,0,3.2874699469812003,1.6906907400837325,51.42832534898915,0.16186204905380563,0.08324294120393155,0.072265625,,
2.6863099999999975,1200,,,,-0.03125,0.052734375,-0.998046875,0.01505581552968505,0.27365866750624807,15.118856159920325,0.21754147290907258,1072,0,3.2889782377294723,1.6900232411662055,51.38444583728543,0.16192597879151596,0.08320476686862081,0.072265625,,
2.6935499999999886,1200,,,,-0.0625,0.05078125,-0.9921875,0.01505581552968505,0.27365866750624807,15.118658596182557,0.21660806649304112,1072,0,3.2748234064874993,1.6897701905535163,51.59881864793208,0.1619502279280983,0.08356440440853209,0.072265625,,
2.7012399999999905,1200,,,,-0.0625,0.068359375,-0.9765625,0.01505581552968505,0.27365866750624807,15.118529218657045,0.2167464510927575,1072,0,3.2768875538860747,1.689665383353006,51.56311760985588,0.16196027343780597,0.08351176627398005,0.072265625,,
2.7082850000000325,1200,,,,0,0.015625,-0.984375,0.01505581552968505,0.27365866750624807,15.11859261962668,0.2171431576941868,1072,0,3.282898941317765,1.6896265309296625,51.46751578808703,0.16196399766265282,0.08335884606804275,0.072265625,,
2.7163699999999955,1200,,,,-0.0625,0.05078125,-0.984375,0.01505581552968505,0.27365866750624807,15.11874405263282,0.21985104062446933,1072,0,3.3238716129063324,1.6896092646283605,50.83256700011337,0.1619656527904047,0.08233129897185347,0.072265625,,
2.724419999999984,1200,,,,0,0.046875,-1,0.01505581552968505,0.27365866750624807,15.118740314714167,0.2187710599529228,1072,0,3.3075428438030037,1.6894994423364438,51.08019826566667,0.16197618102069322,0.08273775440852524,0.072265625,,
2.7322299999999813,1200,,,,-0.0625,0.02734375,-0.947265625,0.01505581552968505,0.27365866750624807,15.118802059185139,0.21816617265226107,1072,0,3.2984111803395453,1.689455932877372,51.22029487856198,0.16198035247961182,0.08296681418539124,0.072265625,,
2.740304999999993,1200,,,,-0.0625,0.029296875,-0.962890625,0.01505581552968505,0.27365866750624807,15.118860671831408,0.21918330047709977,1072,0,3.31380178150543,1.6894387684960601,50.981889681058824,0.16198199816964023,0.0825814836100207,0.072265625,,
2.7481199999999952,1200,,,,0,0.01171875,-1.04296875,0.01505581552968505,0.27365866750624807,15.118916610167673,0.2185566849722537,1072,0,3.30434029469019,1.6894319629081875,51.12766277804285,0.1619826506864308,0.08281794340189345,0.072265625,,
2.7551849999999978,1200,,,,-0.0625,0.068359375,-0.986328125,0.01505581552968505,0.27365866750624807,15.1189632236341,0.21859511393432418,1072,0,3.3049314884391534,1.6894294749820562,51.11844166488113,0.16198288922901305,0.08280312873762205,0.072265625,,
2.7632649999999557,1200,,,,-0.0625,0.1171875,-1.0390625,0.01505581552968505,0.27365866750624807,15.119013785913685,0.2190602237926342,1070,0,3.3119745434661736,1.6875954020548587,50.95435909627169,0.16215893168056417,0.08262704435519252,0.072265625,,
2.773484999999986,1200,,,,-0.03125,-0.009765625,-0.927734375,0.01505581552968505,0.27365866750624807,15.119261327882125,0.21940277520496815,1070,0,3.31720789438649,1.6868616687202838,50.85185259491446,0.1622294658659567,0.08249668884767339,0.072265625,,
2.789329999999958,1200,,,,-0.03125,0.046875,-1.00390625,0.01505581552968505,0.273179101731709,15.119278011325068,0.21850792914367506,1070,0,3.3036821284021425,1.6864527768820416,51.04767079082486,0.1619844358979145,0.08268928156954213,0.07421875,,
2.7984099999999743,1200,,,,0,0.00390625,-0.99609375,0.01505581552968505,0.273179101731709,15.119171057854327,0.21760353334398436,1070,0,3.2899850434212072,1.6862696283072154,51.25462900444339,0.1620020292993971,0.08303353909707566,0.07421875,,
2.8065050000000045,1200,,,,-0.0625,0.025390625,-0.970703125,0.01505581552968505,0.273179101731709,15.119112731270894,0.21802013992151764,1069,0,3.296271073160879,1.6859329312053897,51.14667130785166,0.16203438267048642,0.08287519311018025,0.072265625,,
2.8149949999999953,1200,,,,-0.03125,0.05859375,-1.01171875,0.015515643371403204,0.273179101731709,15.119088634553536,0.21950732050569652,1069,0,3.3187506346589766,1.737283245282862,52.34750773799488,0.1572449987493147,0.08231383788790746,0.07421875,,0.277515000000014,4428,
2.8219200000000417,1200,,,,-0.03125,0.01953125,-1.017578125,0.015515643371403204,0.273179101731709,15.118958401891453,0.21923031244241936,1069,0,3.3145339742506046,1.7372386417929986,52.41275712630996,0.15724903600449602,0.08241855532450021,0.072265625,,
2.838335000000021,1500,,,,-0.03125,0.05859375,-0.998046875,0.015515643371403204,0.273179101731709,15.118806667745401,0.22022366902138973,1069,0,3.3295190755959436,1.7374993478609668,52.18469419791432,0.15722544130334173,0.08204761574547015,0.072265625,,
2.8465050000000045,1500,,,,-0.0625,0.10546875,-1,0.015515643371403204,0.273179101731709,15.118547252890654,0.22059871213033158,1070,0,3.335132053269241,1.737735545621916,52.103950244444206,0.15720407079199225,0.08190953082770051,0.07421875,,
2.8553800000000047,1500,,,,-0.0625,0.037109375,-1.009765625,0.015515643371403204,0.273179101731709,15.118301513083141,0.22053665908955697,1070,0,3.33413970680395,1.7378381493813353,52.12253541250668,0.15719478930127057,0.08193390972017002,0.07421875,,
2.8633499999999765,1500,,,,-0.03125,0.03515625,-0.984375,0.015515643371403204,0.273179101731709,15.118253753243584,0.2206975151982259,1070,0,3.3365610374771113,1.737873779340429,52.08577813563679,0.15719156648728996,0.08187445056850184,0.072265625,,
2.871890000000014,1500,,,,-0.3125,0.29296875,-0.765625,0.015515643371403204,0.273179101731709,15.105577426057271,0.744871546010347,1070,0,11.251714810726277,1.7378882913475195,15.445541595942228,0.15719025387983485,0.024278886047777084,0.076171875,,
2.879969999999972,1500,,,,0,0.119140625,-0.79296875,0.015515643371403204,0.273179101731709,15.093961463671498,1.0789254395623855,1107,0,16.28525900692948,1.7994200501466369,11.049379376655738,0.1518150815922315,0.01677462431610511,0.083984375,,
2.887075000000012,1500,,,,-0.03125,0.017578125,-0.9296875,0.015515643371403204,0.273179101731709,15.084707767517504,1.3469198898705828,1122,0,20.3178929249546,1.8223705892165374,8.969289266104397,0.14990315545486962,0.013445247631765408,0.087890625,,
2.895599999999977,1500,,,,0.0625,0.05859375,-1.12109375,0.015515643371403204,0.273179101731709,15.077055307744246,1.5520784102541159,1128,0,23.400772033357068,1.8328508146885394,7.832437374612547,0.14904601047856203,0.011673935430091825,0.087890625,,
2.904315000000002,1500,,,,-0.21875,-0.046875,-0.923828125,0.015515643371403204,0.273179101731709,15.07022988001903,1.743595405955259,1344,0,26.276383585490855,2.1838637113600488,8.311127382711533,0.12508981229491686,0.010396373642625292,0.091796875,,
2.9113849999999513,1500,,,,0.0625,0.087890625,-1.02734375,0.015515643371403204,0.273179101731709,15.065739616401688,1.8526578899794786,1509,0,27.91166136870299,2.451211709244145,8.78203442233166,0.11144655547355654,0.009787274864190686,0.095703125,,
2.9192700000000187,1500,,,,-0.0625,0.10546875,-0.92578125,0.015515643371403204,0.273179101731709,15.062202544929796,1.9533622164955065,1583,0,29.421937348468326,2.5719120776897944,8.741477650599665,0.10621634545808059,0.009284878099501846,0.095703125,,
2.92775,1500,,,,0,-0.11328125,-1,0.015515643371403204,0.273179101731709,15.059507799821665,2.0299337411742546,1819,0,30.56980300833486,2.955882792179373,9.669289629944464,0.0924187868526052,0.008936240173259431,0.09765625,,
2.935415000000037,1500,,,,-0.03125,0.064453125,-0.83984375,0.015515643371403204,0.2744247789122533,15.05641733077844,2.1092842236275966,1937,0,31.758263540164094,3.1467205287149116,9.908351962428021,0.08720977169978472,0.008641051125644615,0.09765625,,
2.945460000000021,1500,,,,0.0625,-0.134765625,-1.0078125,0.015515643371403204,0.2744247789122533,15.053947072523771,2.169141189078452,2045,0,32.654136653218295,3.322349107952108,10.17435905053906,0.08259962153146765,0.008403982068997888,0.099609375,,
2.9531350000000094,1500,,,,-0.5,-0.150390625,-1,0.015515643371403204,0.2744247789122533,15.052715742815444,2.197340046516164,2138,0,33.07593511051268,3.474574874180359,10.504842455915988,0.07898082178384175,0.008296810898780352,0.10546875,,
2.9615,1500,,,,-0.15625,-0.1015625,-0.92578125,0.015783329990181186,0.2744247789122533,15.051878509760662,2.2172954460036127,2205,0,33.374461673491965,3.6445883154594236,10.920290943162023,0.07529650955314011,0.008222597913248687,0.109375,,
2.9684249999999883,1500,,,,0.125,-0.12109375,-0.96484375,0.015783329990181186,0.2744247789122533,15.05119691843463,2.2309624797878063,2259,0,33.57865560092551,3.734141514904139,11.120580762027938,0.07349072814111014,0.008172595775534548,0.111328125,,
2.9745599999999977,1500,,,,0.1875,-0.05859375,-1.24609375,0.015783329990181186,0.2744247789122533,15.050927659387987,2.2353513976802777,2279,0,33.64411217979769,3.766177612389242,11.194165541543766,0.07286559667539412,0.008156695514677228,0.11328125,,
2.981545000000042,1500,,,,-0.09375,0.06640625,-0.7734375,0.015783329990181186,0.2744247789122533,15.050714644427787,2.2360154422644043,2341,0,33.653630362055544,3.869128669720948,11.496913195086938,0.07092676474159376,0.008154388574424562,0.115234375,,
2.989014999999956,1500,,,,-0.125,0.03515625,-1.07421875,0.015783329990181186,0.2744247789122533,15.05050956420042,2.235521403915982,2368,0,33.64573627061223,3.9140786440034927,11.6332084770641,0.0701122291788086,0.008156301788287771,0.1171875,,
2.996695000000007,1500,,,,0,0.140625,-1.119140625,0.015783329990181186,0.2744247789122533,15.050575431223056,2.233174373237442,2390,0,33.61055935548439,3.9499794555989878,11.752197914416593,0.06947498892007241,0.008164838198905908,0.119140625,,
3.004244999999995,1500,,,,0,0.11328125,-0.9453125,0.015783329990181186,0.2744247789122533,15.050450525435094,2.2254981619310112,2420,0,33.494749980589425,4.000517837692502,11.943716074939644,0.06859731415934428,0.008193068438226453,0.119140625,,
3.0124249999999884,1500,,,,-0.125,-0.05078125,-0.869140625,0.015783329990181186,0.2744247789122533,15.050654439817118,2.21527848972211,2433,0,33.34139103676743,4.020584114864226,12.05883734853924,0.068254952781039,0.008230753738187756,0.119140625,,
3.0205750000000116,1500,,,,0,-0.021484375,-0.955078125,0.015783329990181186,0.2744247789122533,15.050916955467967,2.2051897149794075,2456,0,33.19012727120714,4.058525334616938,12.228110189073487,0.06761686974615246,0.008268265338961816,0.12109375,,
3.0285200000000185,1500,,,,-0.125,0.3984375,-1.11328125,0.015783329990181186,0.2744247789122533,15.050904530786347,2.1932147469053613,2469,0,33.00986577118533,4.0809026843867855,12.362675791154079,0.0672460972819031,0.008313416989165755,0.123046875,,
3.036415000000037,1500,,,,0.03125,-0.1015625,-0.94140625,0.015783329990181186,0.2744247789122533,15.050957682574722,2.1818066441232165,2483,0,32.8382794722589,4.104006596732122,12.49762978660043,0.06686752870494121,0.008356856184992326,0.125,,
3.044405000000028,1500,,,,0,0.00390625,-1.015625,0.015783329990181186,0.2744247789122533,15.051139953609715,2.1701504747206357,2489,0,32.66323851541285,4.11327358909376,12.592975393890669,0.06671687962597081,0.00840164023487016,0.123046875,,
3.052524999999965,1500,,,,0,0.05078125,-1.005859375,0.015783329990181186,0.2744247789122533,15.051774539591793,2.1564654027872248,2500,0,32.45863104518331,4.132157911066859,12.730536618487639,0.06641197766844324,0.008454601136143,0.125,,
3.0605050000000045,1500,,,,-0.125,-0.03125,-0.919921875,0.015783329990181186,0.2744247789122533,15.052178942687426,2.1427393829353654,2505,0,32.252896619486755,4.139556544447776,12.834681465312837,0.06629327947708032,0.008508531253792865,0.126953125,,
3.0682449999999952,1500,,,,0.125,0.078125,-0.91015625,0.015783329990181186,0.2744247789122533,15.052301210237355,2.131204172092184,2511,0,32.07952713884608,4.150343420254084,12.937670191616716,0.06612098111520925,0.008554514464146946,0.126953125,,
3.0802600000000093,1500,,,,-0.0625,0.05078125,-1.03125,0.015783329990181186,0.2744247789122533,15.052591941692068,2.1180300764239277,2516,0,31.88184246064025,4.15869445636696,13.044084454971758,0.0659882041807878,0.008607557083661165,0.12890625,,
3.0894100000000324,1500,,,,-0.09375,0.060546875,-0.951171875,0.015783329990181186,0.7634325005950778,15.052974171882608,2.0995702527253775,2523,0,31.60477678632815,4.169748922022502,13.19341361026883,0.18308836212248034,0.024155604887085604,0.12890625,,
3.1021550000000278,1500,,,,0,0.111328125,-1.04296875,0.015783329990181186,0.7634325005950778,15.053460454211898,2.0772595686064745,2528,0,31.269944769150833,4.177733959504524,13.360221741184656,0.1827384194386615,0.02441425804334127,0.12890625,,
3.1097299999999812,1500,,,,-0.0625,0,-0.98046875,0.03429408462718282,0.7634325005950778,15.053705974190795,2.0700924772914746,2530,0,31.162563492530094,9.087053700261151,29.160161045285598,0.08401320447497056,0.024498385724206498,0.130859375,,
3.118989999999991,1500,,,,0,0.087890625,-1.029296875,0.03429408462718282,0.7634325005950778,15.054051016394023,2.0614350427510013,2534,0,31.03294830055597,9.100887157377526,29.326530851129217,0.08388550340130416,0.024600708034608513,0.130859375,,
3.1263099999999975,1500,,,,-0.0625,-0.02734375,-0.984375,0.03429408462718282,0.7634325005950778,15.054329632137579,2.0536312779002097,2537,0,30.91604220037769,9.109706380906323,29.46595273050518,0.0838042927700952,0.02469373329377042,0.12890625,,
3.134710000000021,1500,,,,0.03125,0.03125,-0.982421875,0.03429408462718282,0.7634325005950778,15.054805968932028,2.04280915352027,2539,0,30.754095437805944,9.119977028848268,29.654512347116864,0.08370991485835894,0.024823767037433067,0.12890625,,
3.1430149999999557,1500,,,,-0.0625,0.056640625,-0.96875,0.03429408462718282,0.7634325005950778,15.05523459995816,2.0314266881939447,2541,0,30.58360536337589,9.124228741208245,29.83372507197788,0.08367090767323122,0.02496214856046025,0.130859375,,
3.1515800000000165,1500,,,,-0.125,0.09765625,-0.9609375,0.03429408462718282,0.7634325005950778,15.05560114480046,2.019552693292616,2543,0,30.405579841121167,9.130957451939869,30.030532223532745,0.08360924959001828,0.02510830263998436,0.130859375,,
3.1597299999999815,1500,,,,0.03125,-0.013671875,-0.99609375,0.03429408462718282,0.7634325005950778,15.055912874536038,2.006717319948656,2545,0,30.212961132969426,9.138812582777753,30.2479870892402,0.0835373844993582,0.025268377278054813,0.1328125,,
3.167459999999963,1500,,,,-0.1875,0,-0.99609375,0.03429408462718282,0.7634325005950778,15.056176620823106,1.9970424792644574,2545,0,30.067824287092137,9.140619899187827,30.40000437647834,0.0835208671857049,0.025390347279726954,0.1328125,,
3.174664999999979,1500,,,,-0.0625,0.09765625,-0.955078125,0.03429408462718282,0.7634325005950778,15.056519827843568,1.9896068125638968,2545,0,29.956554422980954,9.14006064565166,30.511054497776048,0.08352597758290337,0.025484656540119853,0.1328125,,
3.182304999999993,1500,,,,-0.03125,-0.013671875,-0.9609375,0.03429408462718282,0.7634325005950778,15.056593242963206,1.9812529474503324,2545,0,29.83091974118161,9.139802729807112,30.638689014973973,0.08352833460019213,0.025591986677539768,0.1328125,,
3.1895,1500,,,,-0.1875,0.10546875,-1.01953125,0.03429408462718282,0.7634325005950778,15.056737471877023,1.975568180088854,2545,0,29.74561144539174,9.13971035136944,30.72624803207864,0.08352917885200703,0.025665382673226256,0.134765625,,
3.197469999999972,1500,,,,0.0625,-0.0078125,-0.984375,0.03429408462718282,0.7634325005950778,15.05696082308797,1.9655265976467244,2545,0,29.59485697750412,9.139666253637422,30.88261673501156,0.08352958186971494,0.02579612062918176,0.134765625,,
3.2046900000000025,1500,,,,-0.0625,-0.02734375,-0.95703125,0.03429408462718282,0.7634325005950778,15.057492691707601,1.9582507778642064,2544,0,29.486346776221012,9.135744065489936,30.982963521467404,0.08356544306871803,0.025891050742533516,0.134765625,,
3.213190000000002,1500,,,,-0.0625,0.14453125,-0.962890625,0.03429408462718282,0.7634325005950778,15.057603935621117,1.9533199493570952,2543,0,29.412318156966638,9.134246593438387,31.055854029223596,0.08357914282098447,0.025956216593361253,0.134765625,,
3.221634999999951,1500,,,,-0.0625,-0.0390625,-1.046875,0.03429408462718282,0.7634325005950778,15.0577903441941,1.943206774352758,2545,0,29.260400203621522,9.13909469859155,31.23366268059593,0.0835348057737855,0.026090979456275133,0.134765625,,
3.231635000000009,1500,,,,-0.03125,-0.033203125,-0.94140625,0.03429408462718282,1.2895377463183275,15.057996559880804,1.9362604049340029,2545,0,29.15620251652963,9.140737195413312,31.35091818020924,0.14107590216743116,0.04422859066050338,0.134765625,,
3.2406900000000025,1500,,,,-0.09375,0.212890625,-1.01171875,0.03429408462718282,1.2895377463183275,15.05819853921124,1.9271834252112425,2545,0,29.019910638308048,9.138543325150097,31.490597745282734,0.1411097699530956,0.04443631003522317,0.13671875,,
3.257289999999979,1500,,,,0,0.0625,-1.0078125,0.03429408462718282,1.2895377463183275,15.058401765780882,1.915464694396306,2543,0,28.84383693638827,9.131772494554903,31.659354179175143,0.1412143969954632,0.04470756609678016,0.13671875,,
3.2653600000000442,1500,,,,-0.1875,0.296875,-0.90625,0.06280942539265928,1.2895377463183275,15.058480359263658,1.913700766677427,2543,0,28.81742540851984,16.72389137332296,58.03395388811715,0.07710751747498956,0.04474854113570733,0.13671875,,
3.272445000000007,1500,,,,0,-0.08984375,-0.970703125,0.06280942539265928,1.2895377463183275,15.058459227448214,1.9146358159479315,2543,0,28.83146536986397,16.72808807321318,58.020249261066624,0.07708817293850063,0.04472675008972017,0.138671875,,
3.280419999999984,1500,,,,-0.125,0.02734375,-1.0234375,0.06280942539265928,1.2895377463183275,15.058274061456348,1.9141969260085199,2544,0,28.824501919433573,16.72999582234568,58.04088434591913,0.077079382446464,0.04473755522030086,0.138671875,,
3.2876050000000396,1500,,,,-0.09375,0.1328125,-1.005859375,0.06280942539265928,1.2895377463183275,15.058436162878143,1.9104237705732543,2545,0,28.76799439322231,16.74197116414009,58.19651844789176,0.07702424843977812,0.04482543095260546,0.138671875,,
3.295089999999967,1500,,,,0.125,-0.11328125,-1.06640625,0.06280942539265928,1.2895377463183275,15.058701222265027,1.907404968270716,2546,0,28.723041527052615,16.7474339250149,58.306617386746574,0.07699912428925616,0.04489558479048204,0.140625,,
3.3026300000000046,1500,,,,-0.0625,-0.044921875,-0.900390625,0.06280942539265928,1.2895377463183275,15.058930030810993,1.903113068234123,2547,0,28.658846535259688,16.749519731972157,58.44450058855233,0.07698953563765806,0.044996149608874776,0.140625,,
3.310030000000028,1500,,,,0.125,0.1640625,-1.109375,0.06280942539265928,1.2895377463183275,15.059181151616043,1.8996922367682805,2547,0,28.60780952581221,16.750500696635758,58.55219597125093,0.07698502687608161,0.045076423805003506,0.142578125,,
3.317304999999993,1500,,,,-0.125,0.0078125,-0.978515625,0.06280942539265928,1.2895377463183275,15.059400377351883,1.8964097755190361,2547,0,28.558794089065174,16.754728600228688,58.667493270116324,0.07696560040374073,0.04515378843716922,0.142578125,,
3.3243899999999558,1500,,,,-0.0625,0.001953125,-0.91796875,0.06280942539265928,1.2895377463183275,15.05942502228165,1.894919828595872,2549,0,28.536403081974328,16.76366379790216,58.744838127448915,0.07692457698177547,0.04518921822816883,0.142578125,,
3.332719999999972,1500,,,,0.1875,0.0625,-0.94140625,0.06280942539265928,1.2895377463183275,15.059452978361778,1.8907059781227522,2549,0,28.472997773447098,16.768118212124314,58.89129885635598,0.07690414213479944,0.045289848177521526,0.142578125,,
3.340670000000042,1500,,,,-0.25,0.10546875,-0.9375,0.06280942539265928,1.2895377463183275,15.059348612124566,1.889197371993172,2548,0,28.450081821954754,16.757809401956457,58.902499848083245,0.07695145083627548,0.045326328211935024,0.14453125,,
3.3496199999999954,1500,,,,0,-0.029296875,-0.93359375,0.06280942539265928,1.2895377463183275,15.059530069936406,1.8866548394761418,2547,0,28.412135286682,16.75353624094535,58.966128634472824,0.07697107809196244,0.0453868649190471,0.14453125,,
3.3578399999999675,1500,,,,0,0.091796875,-0.98828125,0.06280942539265928,1.2895377463183275,15.059553474135207,1.8840364723874665,2548,0,28.37274800314011,16.7593647278935,59.06852845568108,0.07694430948042329,0.04544987134047114,0.14453125,,
3.365719999999972,1500,,,,-0.09375,-0.052734375,-0.970703125,0.06280942539265928,1.2895377463183275,15.059706118924032,1.8805241885915027,2548,0,28.320141629716105,16.76161629913243,59.1862022382847,0.0769339736278937,0.04553429722135378,0.14453125,,
3.3735450000000418,1500,,,,0,0.02734375,-0.92578125,0.06280942539265928,1.2895377463183275,15.060013519221519,1.8760256401764597,2547,0,28.252971503463687,16.755284119563704,59.304502245045555,0.07696304861895152,0.0456425528960816,0.14453125,,
3.384554999999993,1500,,,,-0.03125,0.111328125,-1.03515625,0.06280942539265928,1.5284974729868308,15.060012920286983,1.870319980929728,2547,0,28.167043077872606,16.752761584903272,59.476465238425625,0.09123853791151866,0.054265457284992186,0.14453125,,
3.3925950000000302,1500,,,,-0.09375,-0.03515625,-0.994140625,0.06280942539265928,1.5284974729868308,15.059923164379343,1.8658734619818234,2548,0,28.09991097190074,16.75719126030141,59.63432153595865,0.09121441948376602,0.054395100202107145,0.146484375,,
3.4002900000000373,1500,,,,-0.0625,0.1328125,-0.966796875,0.06280942539265928,1.5284974729868308,15.059926881659123,1.8645494614887865,2548,0,28.07997855725802,16.758335200958637,59.680726489112644,0.09120819309661471,0.05443371225765234,0.146484375,,
3.4091549999999695,1500,,,,-0.09375,-0.01171875,-0.931640625,0.06280942539265928,1.5284974729868308,15.059830742446078,1.8610790141183846,2548,0,28.027534950941288,16.756367578679498,59.7853775153949,0.09121890325034786,0.05453556567362329,0.146484375,,
3.416384999999951,1500,,,,0.0625,-0.09765625,-1.0625,0.07313445204592123,1.5284974729868308,15.05996801800546,1.8610304653876784,2547,0,28.027059289272252,19.51001239159611,69.61134306039678,0.0783442594657309,0.05453649122481731,0.146484375,,
3.424239999999991,1500,,,,-0.125,0.13671875,-0.91015625,0.07313445204592123,1.5284974729868308,15.059969598365736,1.859712925293614,2548,0,28.007220116609638,19.51526638702609,69.67941232929645,0.0783231672411599,0.05457512265133224,0.146484375,,
3.432530000000028,1500,,,,0.125,0.00390625,-1.01953125,0.07313445204592123,1.5284974729868308,15.059971117289125,1.8580196257486359,2549,0,27.981721899130807,19.51829719407792,69.7537387600304,0.07831100519622146,0.05462485398492614,0.1484375,,
3.439484999999986,1500,,,,-0.0625,-0.072265625,-0.90234375,0.07313445204592123,1.5284974729868308,15.060147764047862,1.8575389999747016,2549,0,27.974811817100704,19.52117692870154,69.78126271708628,0.07829945287466329,0.05463834691650996,0.1484375,,
3.447780000000028,1500,,,,-0.0625,0.0390625,-0.9609375,0.07313445204592123,1.5284974729868308,15.060140590653925,1.8570285803790643,2549,0,27.96711150137118,19.522490602099666,69.8051731268083,0.07829418408440361,0.05465339074833993,0.1484375,,
3.4558550000000396,1500,,,,-0.0625,0.078125,-0.9921875,0.07313445204592123,1.5284974729868308,15.060265062670029,1.8529033191474342,2550,0,27.90521512186144,19.52865875984265,69.9821114962255,0.07826945474258194,0.05477461708544145,0.1484375,,
3.463979999999981,1500,,,,-0.03125,-0.02734375,-0.935546875,0.07313445204592123,1.5284974729868308,15.060646754357192,1.8487599479380894,2550,0,27.843520509499356,19.53108241400769,70.14587974729807,0.07825974211703661,0.05489598459596207,0.150390625,,
3.471809999999998,1500,,,,-0.125,0.17578125,-0.97265625,0.07313445204592123,1.5284974729868308,15.060746176216798,1.8469680069484886,2549,0,27.81671634824421,19.5207614253333,70.17636870199976,0.07830111949440687,0.054948882314188374,0.150390625,,
3.4808000000000465,1500,,,,-0.0625,0.033203125,-1.0390625,0.07313445204592123,1.5284974729868308,15.060705517429291,1.844843042778556,2548,0,27.78463779316604,19.516485386693212,70.24200038876707,0.07831827517617466,0.05501232315372427,0.150390625,,
3.4886350000000093,1500,,,,0,0.0078125,-0.875,0.07313445204592123,1.5284974729868308,15.060606647397178,1.842635891022794,2548,0,27.751214349070512,19.51223857986762,70.31129641547076,0.07833532102072119,0.05507857976088984,0.150390625,,
3.4965900000000256,1500,,,,0.03125,0.048828125,-1,0.07313445204592123,1.5284974729868308,15.060839917324468,1.842211456886777,2548,0,27.745251846032833,19.510532767359763,70.32025831169193,0.07834216990444966,0.05509041624379357,0.1484375,,
3.503604999999981,1500,,,,-0.0625,0.044921875,-1.056640625,0.07313445204592123,1.5284974729868308,15.06080357317908,1.840728987153369,2547,0,27.722857706973766,19.509909707883917,70.37481458116831,0.0783446718038458,0.05513491751618134,0.150390625,,
3.5170650000000023,1500,,,,-0.0625,0.06640625,-0.986328125,0.07313445204592123,1.5284974729868308,15.06096013950493,1.8379796665182535,2547,0,27.68173849465198,19.509546648261917,70.47803970849264,0.07834612974581871,0.055216816432325275,0.1484375,,
3.523945000000007,1500,,,,-0.0625,0.109375,-1.001953125,0.07313445204592123,1.5284974729868308,15.060834857982751,1.8362980802737205,2547,0,27.65618213703326,19.50948188613275,70.54293246068988,0.07834638981741897,0.05526784085429067,0.1484375,,
3.531109999999986,1500,,,,0.0625,-0.16796875,-0.953125,0.07313445204592123,1.6706180764891856,15.060970505417167,1.8356427837336657,2547,0,27.646561824294604,19.509452997864624,70.56737514724367,0.08563121050457131,0.06042769755988676,0.150390625,,
3.5403399999999676,1500,,,,0,0.015625,-0.974609375,0.07313445204592123,1.6706180764891856,15.06092755971426,1.8341300127784759,2547,0,27.623699257554417,19.509440100733205,70.62573306650029,0.08563126711290911,0.06047771013262504,0.1484375,,
3.549414999999979,1500,,,,-0.09375,0.13671875,-0.966796875,0.07313445204592123,1.6706180764891856,15.060868278936644,1.8316250845111175,2547,0,27.585864134218138,19.509433481086152,70.72257510645173,0.08563129616802061,0.06056065774705649,0.1484375,,
3.556510000000009,1500,,,,0.0625,-0.1953125,-1.015625,0.07313445204592123,1.6706180764891856,15.060828545888317,1.8311392400613367,2053,0,27.57847413821202,15.725020286780593,57.0191817283771,0.10623948624687043,0.060576885730397254,0.150390625,,
3.5653450000000304,1500,,,,-0.0625,0.08203125,-0.970703125,0.07674263715690952,1.6706180764891856,15.060784897062728,1.8316349601670827,2365,0,27.58586014501649,19.00876483170897,68.90763866626428,0.08788672442842724,0.06056066650475606,0.150390625,,
3.57275,1500,,,,-0.0625,0.091796875,-0.9921875,0.07674263715690952,1.6706180764891856,15.060931275775078,1.8329285325180413,2472,0,27.605610661661483,19.865032402324285,71.96012667784498,0.08409843199116639,0.06051733819492464,0.150390625,,
3.580679999999993,1500,,,,0.0625,-0.07421875,-1.04296875,0.07674263715690952,1.6706180764891856,15.060950997658399,1.8355370552980907,2518,0,27.64493364423074,20.235477452062923,73.19777906678353,0.08255886625096027,0.06043125651841921,0.150390625,,
3.5878699999999952,1500,,,,-0.125,0.109375,-0.953125,0.07674263715690952,1.6706180764891856,15.060996297627531,1.836034304632344,2535,0,27.65250586438487,20.37528427865387,73.68331961877017,0.08199238124198374,0.060414708333571425,0.150390625,,
3.59590499999997,1500,,,,0.125,0.1171875,-1.09375,0.07674263715690952,1.6706180764891856,15.06081679474276,1.8350853416456778,2544,0,27.637884133243478,20.44262305364584,73.96594817132541,0.08172229523115132,0.060446670535090924,0.15234375,,
3.6045400000000374,1500,,,,-0.15625,0.0078125,-0.966796875,0.07674263715690952,1.6706180764891856,15.060661916337546,1.8343118530525402,2547,0,27.625950667954946,20.46665354507331,74.08488414052607,0.08162634271450465,0.06047278142818951,0.15234375,,
3.6122449999999953,1500,,,,-0.0625,0.052734375,-0.953125,0.07674263715690952,1.6706180764891856,15.0606332187269,1.8328875961027529,2547,0,27.604447816057615,20.47240612514466,74.16343286981376,0.08160340637426568,0.06051988750585985,0.15234375,,
3.6195449999999836,1500,,,,0.0625,0.015625,-0.9453125,0.07674263715690952,1.6706180764891856,15.060796632342736,1.832521693555534,2548,0,27.599236550996192,20.477021360989998,74.19415867954827,0.08158501410130954,0.06053131482105742,0.150390625,,
3.6267700000000187,1500,,,,-0.09375,0,-0.982421875,0.07674263715690952,1.6706180764891856,15.060935746804185,1.831174166454484,2548,0,27.579196462178697,20.479666420215036,74.25766174261187,0.08157447695730799,0.060575299167262626,0.15234375,,
3.63540499999997,1500,,,,0,0.20703125,-0.8828125,0.07674263715690952,1.6706180764891856,15.061020435365238,1.8306776612678881,2548,0,27.571873666922304,20.48089141816053,74.28182671071517,0.08156959784513276,0.06059138731994877,0.15234375,,
3.6449899999999906,1500,,,,-0.0625,0.037109375,-0.96875,0.07674263715690952,1.6706180764891856,15.060964430440812,1.8319343269537351,2549,0,27.590697737153736,20.481405712566783,74.23301109557097,0.08156754960740531,0.06055004815045054,0.15234375,,
3.6522999999999883,1500,,,,-0.03125,-0.072265625,-0.939453125,0.07674263715690952,1.6706180764891856,15.060839252264946,1.8313392198436205,2549,0,27.581505606433062,20.483666478330964,74.26594751793894,0.08155854706267947,0.06057022775796306,0.15234375,,
3.6599799999999814,1500,,,,-0.125,0.1796875,-0.9453125,0.07674263715690952,1.6706180764891856,15.060802634576273,1.832878912342553,2549,0,27.604627551868017,20.488078607890944,74.21972482474051,0.08154098334266201,0.060519493456311246,0.15234375,,
3.667679999999993,1500,,,,-0.03125,0.05859375,-1.015625,0.07674263715690952,1.6706180764891856,15.060764058483313,1.8331431637184643,2550,0,27.60853667418544,20.4900940650137,74.21651609725613,0.08153296276671185,0.060510924436326545,0.15234375,,
3.6755100000000094,1500,,,,-0.09375,0,-1.04296875,0.07674263715690952,1.6706180764891856,15.06072647065669,1.8325464622094247,2551,0,27.599481012105752,20.50275273258508,74.2867328686076,0.08148262324961213,0.060530778667773316,0.154296875,,
3.683890000000014,1500,,,,-0.0625,0.2265625,-0.97265625,0.07674263715690952,1.7087152420798148,15.060624248012825,1.8313268703613435,2552,0,27.58092586980149,20.507759544948453,74.35486263861254,0.08332042504861102,0.061952787594802855,0.154296875,,
3.694179999999993,1500,,,,-0.03125,-0.013671875,-0.96484375,0.07674263715690952,1.7087152420798148,15.060199537131554,1.8298569445486483,2550,0,27.558010709308515,20.491940666337797,74.35928842068435,0.08338474475903246,0.06200430285422042,0.154296875,,
3.710110000000044,1500,,,,-0.09375,0.125,-1.009765625,0.07818978024551283,1.7087152420798148,15.060480032468341,1.8265808891130602,2549,0,27.50918500817551,20.872105511341537,75.87322381647625,0.08186597375867656,0.06211435349945839,0.15625,,
3.7173499999999766,1500,,,,0.125,-0.05078125,-0.96484375,0.07818978024551283,1.7087152420798148,15.060553227189049,1.8263129868113113,2549,0,27.505283947378363,20.872571899514096,75.88568050941188,0.08186414450054394,0.062123163147446044,0.15625,,
3.7245250000000234,1500,,,,-0.03125,0.03125,-1.00390625,0.07818978024551283,1.7087152420798148,15.060878336927615,1.8255126797937253,2548,0,27.493824372891996,20.86148172944043,75.87697312131361,0.08190766428965676,0.06214905641735865,0.158203125,,
3.731960000000021,1500,,,,-0.1875,0.17578125,-0.99609375,0.07818978024551283,1.7087152420798148,15.060669662814627,1.825876977586909,2547,0,27.498930004374824,20.85674337512747,75.84565425567233,0.08192627254154781,0.06213751741642218,0.158203125,,
3.74,1500,,,,-0.03125,0.041015625,-0.955078125,0.07818978024551283,1.7087152420798148,15.060636621452558,1.8243511370234808,2547,0,27.47588954464445,20.858509050531655,75.915682426367,0.08191933747231382,0.06218962408126562,0.158203125,,
3.7478000000000464,1500,,,,-0.0625,0.05859375,-0.8984375,0.07818978024551283,1.7087152420798148,15.06086701008439,1.8222704234576343,2548,0,27.444972504105596,20.86120263343007,76.0110167000873,0.08190876010866216,0.062259681325029625,0.15625,,
3.755469999999972,1500,,,,-0.03125,0.083984375,-1.044921875,0.07818978024551283,1.7087152420798148,15.060921742415845,1.8218955076918877,2548,0,27.439425664206507,20.859278522329703,76.01937000284846,0.08191631557393741,0.06227226702885246,0.15625,,
3.7644150000000374,1500,,,,-0.0625,0.05078125,-1.017578125,0.07818978024551283,1.7087152420798148,15.061074784055254,1.819910263016731,2547,0,27.409804571564653,20.85547398393742,76.0876420314693,0.08193125907355749,0.06233956311576413,0.15625,,
3.7718950000000184,1500,,,,0.0625,-0.12109375,-0.8828125,0.07818978024551283,1.7087152420798148,15.061218338745837,1.8176201088249297,2547,0,27.375573315907236,20.85099452437702,76.16642137047425,0.08194886052471723,0.06241751441555837,0.15625,,
3.7806350000000095,1500,,,,-0.03125,0.08984375,-1.041015625,0.07818978024551283,1.7087152420798148,15.061159081306304,1.817468523078402,2546,0,27.37318255135063,20.84625526258849,76.15576019880781,0.0819674910700313,0.06242296594027224,0.15625,,
3.7881549999999695,1500,,,,-0.125,0.021484375,-0.94921875,0.07818978024551283,1.7087152420798148,15.061024036239981,1.8186014775447517,2547,0,27.39000056564305,20.8526868550804,76.13248055656194,0.08194220984350108,0.06238463697672064,0.15625,,
3.795125,1500,,,,0.0625,0.1015625,-0.890625,0.07818978024551283,1.7087152420798148,15.060633675434781,1.8218062776366617,2547,0,27.437556975093194,20.8584890472672,76.02167010059156,0.08191941603285423,0.06227650820482755,0.15625,,
3.8022700000000187,1500,,,,-0.03125,0.091796875,-1.017578125,0.07818978024551283,1.7087152420798148,15.060431292748737,1.8251843796414815,2548,0,27.48806394618876,20.861025065025526,75.89121265820513,0.08190945731351212,0.062162080436979246,0.15625,,
3.810169999999984,1500,,,,-0.1875,0.05078125,-0.91015625,0.07818978024551283,1.7087152420798148,15.060587232557227,1.8282727158171928,2546,0,27.53486072146914,20.848043725420126,75.71508690859201,0.081960459436123,0.06205643309274183,0.15625,,
3.818039999999979,1500,,,,0,0.01953125,-1.005859375,0.07818978024551283,1.7087152420798148,15.060755120276543,1.8300495935024994,2545,0,27.561928785702772,20.8420618688537,75.61902518108647,0.08198398281473832,0.061995488609134584,0.154296875,,
3.8256749999999884,1500,,,,-0.1875,0.14453125,-1.00390625,0.07818978024551283,1.723765642196328,15.06104530646237,1.8296061445632694,2548,0,27.555781036249343,20.866750136424535,75.72548972200985,0.08260824665683618,0.06255549933165502,0.154296875,,
3.8340199999999602,1500,,,,-0.0625,0.021484375,-0.912109375,0.07818978024551283,1.723765642196328,15.06099393743271,1.828222646722431,2550,0,27.534850198563717,20.87649400086817,75.81844045026669,0.08256969020395107,0.06260305139725234,0.15625,,
3.844719999999972,1500,,,,0.125,-0.11328125,-1.046875,0.07818978024551283,1.723765642196328,15.061010557648544,1.8274452492661064,2550,0,27.523172192721503,20.87831724356859,75.85723439644015,0.08256247963313812,0.06262961369882275,0.158203125,,
3.853195000000007,1500,,,,-0.0625,0.0546875,-0.939453125,0.07818978024551283,1.723765642196328,15.061121481175235,1.8267242453531485,2550,0,27.512515771871925,20.877990435402687,75.88542832112721,0.08256377200333173,0.06265387202280719,0.15625,,
3.860704999999958,1500,,,,-0.25,0.23828125,-0.94140625,0.07848028392618533,1.723765642196328,15.061194916594735,1.8276897170490765,2549,0,27.52719107553202,20.952508125516655,76.11567801460362,0.08227013357398819,0.06262046997336115,0.158203125,,
3.8688099999999976,1500,,,,0,0.021484375,-0.986328125,0.07848028392618533,1.723765642196328,15.061034634493309,1.8234371813552708,2549,0,27.46285054221459,20.95123729335926,76.28937593770178,0.08227512380582391,0.06276717850343458,0.16015625,,
3.876094999999972,1500,,,,-0.0625,-0.033203125,-0.97265625,0.07848028392618533,1.723765642196328,15.06116323838118,1.821920866719906,2549,0,27.440247581081426,20.950782941966718,76.35056090532927,0.08227690807408615,0.06281888081012693,0.16015625,,
3.8839500000000116,1500,,,,-0.25,0.140625,-0.9921875,0.07848028392618533,1.723765642196328,15.06110673129734,1.8212435918193768,2549,0,27.42994412008296,20.950572556829655,76.37847333961791,0.08227773429678414,0.06284247735431095,0.16015625,,
3.8915899999999675,1500,,,,0.0625,0.03515625,-1,0.07848028392618533,1.723765642196328,15.06124880463165,1.8227241070125555,2549,0,27.45250127791614,20.94746916921492,76.30441014154829,0.0822899238219016,0.06279084097823144,0.16015625,,
3.8987999999999885,1500,,,,-0.125,0.00390625,-1.0234375,0.07848028392618533,1.723765642196328,15.061367958284887,1.8243411570415333,2549,0,27.477073447645726,20.946328670011965,76.23202197978867,0.08229440439670821,0.06273468844783478,0.16015625,,
3.9059799999999814,1500,,,,-0.09375,0.0234375,-0.9453125,0.07848028392618533,1.723765642196328,15.061051008401602,1.8247578700717477,2549,0,27.482771359132855,20.945834362756514,76.21441844072237,0.08229634648793609,0.06272168187374233,0.162109375,,
3.9180750000000115,1500,,,,0.1875,-0.0234375,-1.078125,0.07848028392618533,1.723765642196328,15.060874217985491,1.8244800344966703,2549,0,27.47826431278018,20.94555514948452,76.2259031759248,0.08229744353368217,0.06273196962424596,0.162109375,,
3.9262149999999676,1500,,,,-0.125,0.08984375,-0.962890625,0.07848028392618533,1.723765642196328,15.060976391760711,1.8243136274837555,2548,0,27.475944474700185,20.944001193139357,76.22668335359523,0.0823035496560697,0.06273726618510127,0.1640625,,
3.9421149999999905,1500,,,,0.03125,0.087890625,-1.041015625,0.07848028392618533,1.723765642196328,15.061365673525053,1.8252478186252716,2548,0,27.49072484111915,20.944041853755046,76.18584804438504,0.08230338987253671,0.0627035355436686,0.162109375,,
3.94902999999997,1500,,,,-0.0625,-0.10546875,-1.0234375,0.07848028392618533,1.723765642196328,15.06114163597913,1.8263397162731863,2549,0,27.506761142204397,20.944820847174856,76.14426409163319,0.08230032879125047,0.0626669797030922,0.162109375,,
3.9570100000000092,1500,,,,-0.0625,0.07421875,-0.9140625,0.07848028392618533,1.723765642196328,15.061085599308326,1.827037202773531,2548,0,27.517163704092994,20.943189987209117,76.10955188704263,0.08230673757193169,0.06264328913884135,0.162109375,,
3.9650349999999746,1500,,,,0.0625,-0.0234375,-1.0703125,0.07848028392618533,1.723765642196328,15.061032605801445,1.8290732577347413,2548,0,27.547731973142408,20.941546497936894,76.01913115153654,0.08231319699173835,0.06257377717617221,0.162109375,,
3.9724400000000024,1500,,,,-0.03125,0.033203125,-0.939453125,0.07848028392618533,1.723765642196328,15.06090361852949,1.8295612560250947,2548,0,27.55484574118971,20.940944209775186,75.99731969637598,0.08231556442386577,0.06255762265508161,0.162109375,,
3.9805200000000185,1500,,,,-0.03125,0.037109375,-0.984375,0.07848028392618533,1.7305690490613435,15.060856684539496,1.8291167999424212,2548,0,27.548065983216308,20.940648063984444,76.01494811556847,0.08264161852935809,0.06281998344695756,0.16015625,,
3.987954999999958,1500,,,,0.0625,0.0078125,-1.07421875,0.07848028392618533,1.7305690490613435,15.061003800742013,1.8267077912391807,2548,0,27.512052986698347,20.940542695044094,76.11406791477366,0.08264203436670768,0.06290221416402646,0.16015625,,
3.997724999999977,1500,,,,-0.0625,0.15234375,-0.84375,0.07848028392618533,1.7305690490613435,15.060959277126033,1.8241422398804015,2549,0,27.473331990524194,20.946213151433028,76.24198316628494,0.08261966191931676,0.06299086873256701,0.16015625,,
4.0184099999999745,1500,,,,-0.0625,0.06640625,-0.9765625,0.07839669426789635,1.7305690490613435,15.060534303856112,1.8205940654544839,2548,0,27.419119376174116,20.920550500322808,76.2991335108368,0.08272100913571277,0.06311541320196898,0.158203125,,
4.025955000000017,1500,,,,-0.0625,-0.048828125,-1.00390625,0.07839669426789635,1.7305690490613435,15.06041625334029,1.8212198441567864,2548,0,27.428328941844736,20.922076482260273,76.27907819911512,0.0827149757591549,0.0630942210417049,0.158203125,,
4.033359999999986,1500,,,,-0.0625,0.171875,-0.94140625,0.07839669426789635,1.7305690490613435,15.060035771220637,1.821505043830503,2549,0,27.43193111754619,20.92269334358708,76.2713104445074,0.08271253708317491,0.06308593593523663,0.158203125,,
4.041854999999981,1500,,,,-0.03125,0.0546875,-1.005859375,0.07839669426789635,1.7305690490613435,15.060033933151436,1.8246370256523512,2549,0,27.479095522008915,20.922973082767555,76.14141835931119,0.0827114312203873,0.06297765687648901,0.15625,,
4.054234999999986,1500,,,,-0.03125,-0.021484375,-0.978515625,0.07839669426789635,1.7305690490613435,15.060031627334522,1.8239397547308571,2549,0,27.46859039259948,20.92309225377418,76.17097184357601,0.08271096012345772,0.06300174214719037,0.15625,,
4.067335000000021,1500,,,,-0.0625,0.09765625,-1.015625,0.07839669426789635,1.7305690490613435,15.06002926613529,1.821932956329348,2548,0,27.43836364325637,20.920365635229775,76.2449463358266,0.08272174010893363,0.06307114635411838,0.154296875,,
4.074690000000002,1500,,,,-0.041015625,0.0078125,-0.9609375,0.07839669426789635,1.7305690490613435,15.06006962080022,1.8197035072611276,2549,0,27.40486150856692,20.9236653672242,76.35019560556195,0.08270869461390772,0.06314825012052541,0.154296875,,
