Time (s),ESC signal (µs),Servo 1 (µs),Servo 2 (µs),Servo 3 (µs),AccX (g),AccY (g),AccZ (g),Torque (N·m),Thrust (N),Voltage (V),Current (A),Motor Electrical Speed (RPM),Motor Optical Speed (RPM),Electrical Power (W),Mechanical Power (W),Motor Efficiency (%),Propeller Mech. Efficiency (N/W),Overall Efficiency (N/W),Vibration (g),App message,90% settling time (s),Max acceleration (RPM/s),
0,1000,,,,-0.0625,0.048828125,-0.953125,0.0018316082857027815,-0.00539118955118029,15.12542513232686,0.053809180992711064,0,0,0.8138867385370767,0,0,0,0,0.05859375,,
0,1200,,,,-0.0625,0.05078125,-0.95703125,0.0018316082857027815,-0.00539118955118029,15.125053516725451,0.05473940833579438,0,0,0.8279364805527772,0,0,0,0,0.05859375,,
0.008075000000011642,1200,,,,-0.0625,0.048828125,-0.955078125,0.0018316082857027815,-0.00539118955118029,15.12513192491807,0.055572406838532734,0,0,0.8405399848180267,0,0,0,0,0.05859375,,
0.019174999999988358,1200,,,,-0.0625,0.046875,-0.95703125,0.0018316082857027815,-0.00539118955118029,15.125207897841824,0.05530551845683254,0,0,0.8365074645575203,0,0,0,0,0.05859375,,
0.027300000000046565,1200,,,,-0.0625,0.046875,-0.955078125,0.0018316082857027815,-0.00539118955118029,15.125040596870113,0.054967698839348086,0,0,0.83138867646167,0,0,0,0,0.05859375,,
0.035175000000046565,1200,,,,-0.0625,0.046875,-0.953125,0.0018316082857027815,-0.00539118955118029,15.124839616929176,0.05517865047037729,0,0,0.8345682386430501,0,0,0,0,0.05859375,,
0.04338500000000931,1200,,,,-0.0625,0.013671875,-0.98046875,0.0017640999359069573,-0.010581700671952373,15.124978158355118,0.055530275909165164,0,0,0.8398942102535565,0,0,0,0,0.05859375,,
0.05062000000005355,1200,,,,0,0.046875,-1.01171875,0.0017640999359069573,-0.010581700671952373,15.124282292414524,0.08398971060335025,0,0,1.2702840928232706,0,0,0,0,0.05859375,,
0.05794000000000233,1200,,,,-0.125,0.09375,-0.99609375,0.0017640999359069573,-0.010581700671952373,15.123576442067408,0.10678120440888736,0,0,1.6149137074538333,0,0,0,0,0.05859375,,
0.06492499999998835,1200,,,,0.0625,-0.0625,-0.9765625,0.0017640999359069573,-0.010581700671952373,15.123021098811954,0.11844410306307002,0,0,1.7912326696526655,0,0,0,0,0.060546875,,
0.07217499999998836,1200,,,,-0.0625,0.033203125,-1.01953125,0.0017640999359069573,-0.010581700671952373,15.122367668934052,0.12992667256376106,0,0,1.964798912510401,0,0,0,0,0.060546875,,
0.07966500000003725,1200,,,,-0.0625,0.07421875,-0.8984375,0.0017640999359069573,-0.010581700671952373,15.122189522762216,0.1414464314364948,0,0,2.1389797435010656,0,0,0,0,0.060546875,,
0.08682500000001164,1200,,,,-0.03125,0.0625,-0.984375,0.0017640999359069573,-0.010581700671952373,15.12173774580741,0.14980756825806837,0,0,2.265350759535653,0,0,0,0,0.0625,,
0.09457000000000698,1200,,,,-0.03125,0.029296875,-0.919921875,0.0017640999359069573,-0.010581700671952373,15.121561184707527,0.1577174221293869,0,0,2.384933648623869,0,0,0,0,0.0625,,
0.10293499999999767,1200,,,,-0.125,0.046875,-0.921875,0.0017640999359069573,-0.010581700671952373,15.121549802679379,0.16614059608760723,0,0,2.5123032979855915,0,0,0,0,0.0625,,
0.11110499999998137,1200,,,,-0.0625,0.080078125,-1.041015625,0.0017640999359069573,-0.010581700671952373,15.121276023430964,0.1723008167756094,0,0,2.605408209526594,0,0,0,0,0.0625,,
0.11911999999999534,1200,,,,-0.03125,0.06640625,-0.966796875,0.0017640999359069573,-0.010581700671952373,15.121213789353229,0.1726957471775765,0,0,2.6113693135842286,0,0,0,0,0.064453125,,
0.12716500000003725,1200,,,,-0.0625,0.01953125,-0.98046875,0.0017640999359069573,-0.010581700671952373,15.121418257848287,0.17372332385252587,0,0,2.6269430411176753,0,0,0,0,0.064453125,,
0.13467499999998836,1200,,,,-0.03125,0.0625,-0.98046875,0.0017640999359069573,-0.010581700671952373,15.121251787431687,0.17214411722284997,1,0,2.60303454025187,0.00020857785802372997,0.008012873236924007,50.73261741305488,0.004065140323081724,0.064453125,,
0.1420800000000163,1200,,,,-0.0625,0.05859375,-1,0.0017640999359069573,-0.010581700671952373,15.12125529799479,0.17212548999534893,1,0,2.602753477512119,0.0002669766624730517,0.010257470205293717,39.63530210443198,0.004065579304140264,0.0625,,
0.14988000000000465,1200,,,,-0.0625,0.08203125,-0.96875,0.0017640999359069573,-0.010581700671952373,15.12119400047714,0.17157485882391135,2,0,2.5944167258808406,0.0002947096017360074,0.011359377959450573,35.90551719258595,0.004078643406201345,0.064453125,,
0.15820000000001164,1200,,,,-0.0625,0.0390625,-1.0078125,0.0017640999359069573,-0.010581700671952373,15.121200882725335,0.16966213952424128,2,0,2.5654952939390263,0.000305718149392099,0.011916535185792665,34.61260214021774,0.004124622912757472,0.064453125,,
0.16994500000006518,1200,,,,-0.0625,0.052734375,-0.990234375,0.0017640999359069573,-0.010581700671952373,15.121208310362958,0.16880804120563955,2,0,2.5525815555348093,0.00031033659040139653,0.012157754165718546,34.097496071171484,0.0041454897489985685,0.064453125,,
0.17832500000001164,1200,,,,-0.0625,0.072265625,-0.96875,0.0017640999359069573,-0.010581700671952373,15.121327515416963,0.1643833686513764,2,0,2.4856947554649884,0.00031210289818623966,0.012555962372292806,33.90452550568116,0.004257039464997744,0.064453125,,
0.19521999999997205,1200,,,,-0.03125,0.03125,-0.96484375,0.0019503024472499295,-0.008226398635069706,15.121595736047393,0.15753753961638417,2,0,2.382218987330512,0.0003457777418509655,0.014514943575294066,23.791001095193067,0.003453250384964867,0.064453125,,
0.21343499999999768,1200,,,,-0.0625,0.048828125,-0.990234375,0.0019503024472499295,-0.008226398635069706,15.122002194620057,0.15194167081616528,2,0,2.2976622795362895,0.00034587567930156806,0.015053373264732887,23.78426448393653,0.0035803341110382607,0.064453125,,
0.22056000000005588,1200,,,,-0.0625,0.0546875,-1.03125,0.0019503024472499295,-0.008226398635069706,15.12203067040369,0.14963226343279404,284,0,2.262743676912636,0.05790757142402425,2.5591750411180154,0.14206084684215922,0.0036355857355854296,0.064453125,,
0.22918000000005123,1200,,,,-0.03125,0.029296875,-0.955078125,0.0019503024472499295,-0.008226398635069706,15.122129571203445,0.14692715313067112,419,0,2.2218514471700583,0.0855239465168654,3.8492198308665544,0.09618824867310645,0.0037024971428884484,0.064453125,,
0.2381050000000396,1200,,,,-0.0625,0.068359375,-1.0078125,0.0019503024472499295,-0.008226398635069706,15.122085893786835,0.1439997960242568,474,0,2.1775772841665955,0.09671169243774189,4.4412518968186925,0.08506105547026226,0.0037777757395270227,0.064453125,,
0.24589500000001863,1200,,,,-0.0625,0.03515625,-0.96875,0.0019503024472499295,-0.008226398635069706,15.12224552071998,0.1423736906916814,492,0,2.153009906330651,0.10050780556227501,4.668246312603793,0.08184835584707498,0.0038208828537579093,0.064453125,,
0.25326500000001395,1200,,,,-0.03125,0.01953125,-0.951171875,0.0019503024472499295,-0.008226398635069706,15.122321447970643,0.14035673799792692,499,0,2.1225197093932464,0.10189890675601948,4.800846197331604,0.08073098031136382,0.0038757701983466353,0.064453125,,
0.2610650000000023,1200,,,,-0.0625,0.05078125,-0.94921875,0.0019503024472499295,-0.008226398635069706,15.122209371471017,0.1378896292069003,502,0,2.085195843021251,0.10254248826238091,4.917643040847739,0.08022429311467831,0.003945144367423269,0.064453125,,
0.269109999999986,1200,,,,-0.03125,0.01953125,-0.95703125,0.0019503024472499295,-0.008226398635069706,15.122397783828056,0.13547042593053998,503,0,2.048637668866241,0.10280371473528407,5.018150173533507,0.08002044144272794,0.00401554592112053,0.064453125,,
0.2769200000000419,1200,,,,-0.0625,0.02734375,-0.94921875,0.0019503024472499295,-0.008226398635069706,15.122345743579443,0.13363346493272743,504,0,2.020851459625203,0.10290480691591401,5.092150955765904,0.07994183052878855,0.004070758687328466,0.064453125,,
0.28415499999996974,1200,,,,-0.03125,0.029296875,-0.95703125,0.0019503024472499295,-0.008226398635069706,15.122417583469225,0.1314252048486021,504,0,1.9874668287135453,0.1029421827224007,5.179567338441241,0.07991280559159547,0.004139137577654324,0.064453125,,
0.292125,1200,,,,-0.0625,0.072265625,-1.017578125,0.0019503024472499295,-0.008226398635069706,15.122591797380377,0.12905604276536856,504,0,1.9516618537259336,0.10295948882611615,5.275477851327336,0.07989937332500666,0.004215073743110068,0.064453125,,
0.2992050000000163,1200,,,,-0.0625,0.0546875,-0.96484375,0.0019503024472499295,-0.008226398635069706,15.122537460543994,0.12752455822008768,514,0,1.9284949088225993,0.10500574978595267,5.444958620609564,0.07834236364997801,0.004265709283148771,0.064453125,,
0.3070650000000023,1200,,,,-0.0625,0.05859375,-0.98828125,0.0019503024472499295,-0.008226398635069706,15.122609083565717,0.12628716905340615,524,0,1.9097914898648392,0.10705466494172347,5.605568226157506,0.07684297213529039,0.004307485230050904,0.064453125,,
0.31514000000001396,1200,,,,-0.0625,0.00390625,-0.95703125,0.0019503024472499295,-0.008226398635069706,15.122677117305484,0.12532534296022868,528,0,1.8952546962031123,0.1078636204936797,5.691246707356534,0.07626666523354586,0.004340524073914808,0.064453125,,
0.32616499999997906,1200,,,,0,0.001953125,-0.95703125,0.0019503024472499295,-0.008226398635069706,15.122749506715303,0.12263944140277508,530,0,1.8546455519776572,0.10820234414713925,5.8341252338895835,0.07602791510582262,0.004435563779988948,0.064453125,,
0.33467499999998834,1200,,,,-0.0625,0.044921875,-0.931640625,0.0019503024472499295,-0.008226398635069706,15.122698926703254,0.11971893986220547,530,0,1.810473483360226,0.10833624180992794,5.9838623876919,0.07593394876575678,0.004543782999683358,0.064453125,,
0.34448499999998605,1200,,,,-0.03125,0.025390625,-0.984375,0.004817367223750013,0.02974425300723648,15.122878531900525,0.11841513717074292,531,0,1.790777735771484,0.2676863851795073,14.948051890101565,0.11111604718816886,0.01660968439191722,0.064453125,,
0.35178999999997906,1200,,,,-0.03125,0.0234375,-0.95703125,0.004817367223750013,0.02974425300723648,15.12299647843809,0.11784749554043739,531,0,1.782207260050783,0.2677166812624274,15.021635657280344,0.11110347277194835,0.01668955888238775,0.064453125,,
0.36140500000002795,1200,,,,-0.0625,0.05078125,-0.9609375,0.004817367223750013,0.02974425300723648,15.123180325923098,0.11891474982378367,531,0,1.7983692049971123,0.2677290901636635,14.887326218650045,0.11109832326794876,0.01653956980834992,0.064453125,,
0.377679999999993,1200,,,,-0.0625,0.076171875,-0.88671875,0.004817367223750013,0.02974425300723648,15.121587890857443,0.17676693748330516,541,0,2.672996781351502,0.2728324950675807,10.206989285248337,0.10902019937129856,0.01112768006858482,0.06640625,,
0.3849899999999907,1200,,,,0,0.025390625,-1.01953125,0.004817367223750013,0.02974425300723648,15.120418735734965,0.21101630639129584,550,0,3.1906549127045394,0.2776092311027123,8.700697464878724,0.10714432257561148,0.00932230335809771,0.068359375,,
0.39286000000004423,1200,,,,0.0625,0.08984375,-0.96875,0.004817367223750013,0.02974425300723648,15.119052164987142,0.24721579218210907,554,0,3.7376684580099275,0.27965959003006596,7.482193596672484,0.10635878070206248,0.007957969879188648,0.068359375,,
0.4009949999999953,1200,,,,-0.125,0.029296875,-0.96875,0.004817367223750013,0.02974425300723648,15.11849533492036,0.27337136120753525,556,0,4.13296364911695,0.2805019929386106,6.786945561414331,0.1060393642684249,0.007196833926567839,0.068359375,,
0.40919500000000697,1200,,,,-0.0625,0.17578125,-0.94921875,0.004817367223750013,0.02974425300723648,15.117581664271647,0.2973876910304586,557,0,4.495782705102142,0.2808236829437637,6.2463802493182,0.10591789373118118,0.006616034394518341,0.0703125,,
0.4167700000000186,1200,,,,0,0.0234375,-0.994140625,0.004817367223750013,0.02974425300723648,15.116950956774113,0.3167596211044646,557,0,4.788439657322542,0.2809456522138282,5.867164928855324,0.1058719107160202,0.006211679615039358,0.0703125,,
0.42364000000001395,1200,,,,-0.1875,-0.01171875,-0.953125,0.004817367223750013,0.02974425300723648,15.116450133306536,0.3281889133387906,557,0,4.961051342789888,0.28099390253518275,5.663999082443753,0.1058537311268249,0.00599555435975584,0.0703125,,
0.44272000000003026,1200,,,,-0.03125,0.0546875,-1.005859375,0.004817367223750013,0.02974425300723648,15.115959731524548,0.34647177228069376,724,0,5.23725335790491,0.3653878381939872,6.976707316297477,0.08140460600509924,0.005679361102960895,0.072265625,,
0.45730000000004656,1200,,,,-0.0625,0.06640625,-0.96875,0.004817367223750013,0.02974425300723648,15.115820497267961,0.350178343838886,769,0,5.293232987499181,0.38812940691685927,7.332558529607315,0.07663488639913328,0.005619297899314523,0.072265625,,
0.46340500000002793,1200,,,,0,0,-1.05078125,0.004817367223750013,0.02974425300723648,15.115604321929906,0.35185318329197707,774,0,5.318473498053004,0.3905836028984652,7.343904280832662,0.07615335817097446,0.005592629730716023,0.072265625,,
0.47112000000005355,1200,,,,-0.0625,0.0625,-0.95703125,0.004817367223750013,0.02974425300723648,15.115621953500941,0.3508878384657831,777,0,5.3038879143298825,0.3919093989147352,7.389096550398177,0.07589573786595435,0.005608009348552477,0.072265625,,
0.4813000000000466,1200,,,,-0.03125,0.0390625,-0.931640625,0.004817367223750013,0.02974425300723648,15.115509662762147,0.349443099580259,896,0,5.28201054829096,0.4522075103709798,8.561276170061708,0.06577567228557314,0.005631236957082657,0.072265625,,
0.4964250000000466,1200,,,,0,-0.0390625,-0.94140625,0.0250162931427043,0.04591386233318646,15.115644640225934,0.3461052318202227,963,0,5.2316036923175036,2.523325901680313,48.23235952267872,0.01819577181949104,0.008776250081903178,0.072265625,,
0.5041950000000069,1200,,,,-0.03125,0.025390625,-0.98828125,0.0250162931427043,0.04591386233318646,15.115853335431304,0.3428445922591262,970,0,5.182388573434698,2.540549540317345,49.022752815958015,0.018072413705993415,0.00885959469896647,0.072265625,,
0.5107950000000419,1200,,,,-0.0625,0.07421875,-0.98046875,0.0250162931427043,0.04591386233318646,15.115915534279956,0.3401229746870422,972,0,5.14127015663737,2.546972069551363,49.53974391451161,0.01802684170826968,0.00893045121815117,0.072265625,,
0.5190599999999976,1200,,,,-0.03125,0.03125,-0.96484375,0.0250162931427043,0.04591386233318646,15.115919836806555,0.33635024893937193,1009,0,5.084243400057475,2.6420280161076426,51.965018356079796,0.017378264747104716,0.00903061846580111,0.072265625,,
0.5271500000000233,1200,,,,0,0.1015625,-0.9609375,0.0250162931427043,0.04591386233318646,15.116120908511517,0.33251430045881875,1022,0,5.0263263695446305,2.678425850603661,53.287941404535545,0.01714210692927655,0.009134675895975714,0.072265625,,
0.5352750000000233,1200,,,,-0.0625,-0.001953125,-0.984375,0.0250162931427043,0.04591386233318646,15.116309337533004,0.32907640165583596,1028,0,4.974420683111874,2.6926166961286055,54.12925177940864,0.017051763215759807,0.009229991843887213,0.072265625,,
0.543195000000007,1200,,,,-0.03125,0.03125,-0.990234375,0.0250162931427043,0.04591386233318646,15.11622923096899,0.3239411893385625,1030,0,4.896769275394439,2.6982743381367813,55.10315447565034,0.01701600970822374,0.009376358115114185,0.072265625,,
0.5494550000000163,1200,,,,-0.0625,0.0390625,-0.88671875,0.0250162931427043,0.04591386233318646,15.11621950662597,0.3207355587134498,1031,0,4.8483091090928285,2.7003519692563676,55.696778165236104,0.017002917714400906,0.009470077361007504,0.072265625,,
0.5573649999999907,1200,,,,0,0.0703125,-0.99609375,0.0250162931427043,0.04591386233318646,15.116299946439343,0.3167527746662045,1038,0,4.7881299507212605,2.718914867666243,56.78448362197604,0.016886833375771057,0.009589101132535097,0.072265625,,
0.5654800000000396,1200,,,,-0.0625,0.03125,-0.955078125,0.0250162931427043,0.04591386233318646,15.116476251655813,0.3127352095573153,1048,0,4.727454368329761,2.7451314124420425,58.06785636752565,0.01672556079650188,0.009712174619975889,0.072265625,,
0.5743250000000116,1200,,,,-0.03125,0.029296875,-1.033203125,0.0250162931427043,0.04591386233318646,15.11666898825019,0.30787010737322745,1052,0,4.653970504538123,2.7565021140983186,59.22904134030139,0.01665656706677527,0.009865524993855351,0.072265625,,
0.582445000000007,1200,,,,-0.0625,0.03515625,-0.94921875,0.0250162931427043,0.04591386233318646,15.116702343081949,0.3038809553676963,1054,0,4.593677950024836,2.7604117463120343,60.09153833470433,0.016632976002412793,0.009995011150692054,0.072265625,,
0.5904199999999837,1200,,,,-0.03125,0.037109375,-0.98046875,0.0250162931427043,0.04591386233318646,15.116862633235728,0.30009211220402215,1054,0,4.536451237505766,2.7619060134973026,60.882524001643525,0.01662397710450957,0.010121096850680763,0.072265625,,
0.5983800000000047,1200,,,,-0.03125,0.001953125,-0.95703125,0.0250162931427043,0.04591386233318646,15.117016774086615,0.29666311661227834,1057,0,4.484661310080625,2.770323063957115,61.77329506979671,0.016573468607521655,0.01023797766622448,0.072265625,,
0.6063950000000187,1200,,,,-0.125,0.109375,-0.953125,0.0250162931427043,0.04591386233318646,15.117294445669332,0.2940423409532576,1062,0,4.445124647684289,2.7814582529668703,62.57323412552414,0.016507118984874922,0.01032903820978463,0.072265625,,
0.6140599999999977,1200,,,,-0.03125,0.03125,-0.962890625,0.0250162931427043,0.04591386233318646,15.117231326661953,0.29040196278683056,1063,0,4.390073649165194,2.785828844835734,63.45745122898976,0.01648122152884585,0.010458563113609116,0.072265625,,
0.6223950000000186,1200,,,,-0.0625,0.0390625,-1.01953125,0.0250162931427043,0.04591386233318646,15.117366159071551,0.28663308330684717,1064,0,4.333137273653268,2.787557601352041,64.33116297286958,0.016471000387908392,0.010595986102807329,0.072265625,,
0.6330399999999791,1200,,,,-0.03125,0.013671875,-0.9375,0.0250162931427043,0.04591386233318646,15.117431849259296,0.2825848280507029,1064,0,4.271956879691158,2.7882568229158053,65.26884286148,0.01646686989370379,0.010747735435125883,0.072265625,,
0.6411149999999907,1200,,,,-0.041015625,0.048828125,-0.99609375,0.02172974491397934,0.16623787070376164,15.11751314716801,0.2787168795773812,1066,0,4.2135060913487035,2.4257900366182454,57.571770018297826,0.06852937319155254,0.039453573128821674,0.072265625,,
0.6498099999999977,1200,,,,-0.0625,0.02734375,-0.98046875,0.02172974491397934,0.16623787070376164,15.117637155239864,0.27543603534845446,1067,0,4.163942041875756,2.4283941322271314,58.319594936849754,0.06845588551612147,0.03992319514343564,0.072265625,,
0.6584200000000419,1200,,,,-0.03125,0.02734375,-0.990234375,0.02172974491397934,0.16623787070376164,15.117834539975824,0.271522117512632,1068,0,4.1048264464998425,2.429443106199897,59.185038341181674,0.06842632794302755,0.04049814842854356,0.072265625,,
0.6665650000000606,1200,,,,-0.0625,0.076171875,-1.01953125,0.02172974491397934,0.16623787070376164,15.11787728373111,0.2679575151374742,1068,0,4.050948831101856,2.429820934890145,59.981526210224565,0.06841568788741935,0.04103677376209787,0.072265625,,
0.6742900000000372,1200,,,,-0.0625,0.01171875,-0.94921875,0.02172974491397934,0.16623787070376164,15.117725595693823,0.265050340431639,1068,0,4.00695831569075,2.43072654132591,60.6626360900109,0.06839019851779889,0.04148729724808837,0.072265625,,
0.6828500000000349,1200,,,,-0.03125,0.03515625,-0.990234375,0.02172974491397934,0.16623787070376164,15.117837859366027,0.2615154509500875,1069,0,3.9535481851824117,2.4326748911644644,61.53143397320764,0.06833542423097379,0.042047766440992965,0.072265625,,
0.6904000000000233,1200,,,,-0.03125,0.0234375,-0.939453125,0.02172974491397934,0.16623787070376164,15.117944665791878,0.2592229840442429,1069,0,3.9189187288823146,2.43344003397994,62.09467974024465,0.06831393762840184,0.042419320788306604,0.072265625,,
0.6981450000000187,1200,,,,-0.0625,0.07421875,-0.99609375,0.02172974491397934,0.16623787070376164,15.118139707943541,0.2573104468134491,1070,0,3.8900552832390995,2.433736055616834,62.563019762288704,0.06830562842675576,0.042734063811386704,0.072265625,,
0.7064900000000489,1200,,,,-0.03125,0.02734375,-0.966796875,0.02172974491397934,0.16623787070376164,15.117965973611888,0.25606854885035807,1070,0,3.8712356084318866,2.433857179132192,62.87029324257713,0.06830222912382841,0.04294181174136784,0.072265625,,
0.7154799999999814,1200,,,,-0.0625,-0.03125,-0.9453125,0.02172974491397934,0.16623787070376164,15.117857450883047,0.25476452443127606,1070,0,3.8514937638940427,2.433906542930572,63.19383314981087,0.06830084383749638,0.04316192129458034,0.072265625,,
0.7237000000000117,1200,,,,-0.0625,0.041015625,-0.97265625,0.02172974491397934,0.16623787070376164,15.118100132744182,0.25298416134274165,1070,0,3.8246398831778783,2.4349687003069183,63.66530639961094,0.06827105033539364,0.04346497337826098,0.072265625,,
0.7309350000000558,1200,,,,-0.03125,0.013671875,-0.96875,0.02172974491397934,0.16623787070376164,15.118188177206306,0.2502245167389676,1070,0,3.782941330610222,2.435360580570697,64.37743458680211,0.06826006466147443,0.04394407847634951,0.072265625,,
0.7375550000000513,1200,,,,-0.0625,0.02734375,-0.953125,0.02172974491397934,0.16623787070376164,15.118266175540086,0.24871171064460293,1070,0,3.7600898424990135,2.4355157488617594,64.77280732321753,0.06825571576839652,0.04421114326174649,0.072265625,,
0.7451700000000419,1200,,,,0,0.03515625,-0.94140625,0.02172974491397934,0.16623787070376164,15.118428189592795,0.24800764631704356,1070,0,3.749485791314151,2.435583739163251,64.95780687595584,0.06825381038258738,0.0443361783338022,0.0703125,,
0.7524850000000443,1200,,,,-0.0625,0.068359375,-0.97265625,0.02172974491397934,0.16623787070376164,15.11866993441886,0.2464852638963276,1070,0,3.7265293485467064,2.4356132953637304,65.35875791005336,0.06825298212166968,0.04460930135129409,0.0703125,,
0.7604349999999976,1200,,,,-0.03125,0.01953125,-0.958984375,0.02172974491397934,0.16623787070376164,15.118928656749823,0.24422656736142143,1073,0,3.6924440480202354,2.4416589170959107,66.1258203331489,0.06808398566229047,0.04502109403469304,0.0703125,,
0.7692200000000302,1200,,,,0,0.078125,-1.0625,0.02172974491397934,0.16623787070376164,15.118915713648118,0.24192221081734014,1074,0,3.6576015146067764,2.4440914329469225,66.8222446646073,0.06801622413254937,0.04544996770147982,0.0703125,,
0.7771199999999954,1200,,,,-0.03125,0.01953125,-0.9453125,0.02172974491397934,0.16623787070376164,15.119046988920076,0.23881757103028559,1075,0,3.6106940781866457,2.445087326322428,67.71793105081875,0.06798852086554892,0.046040419682203945,0.072265625,,
0.7858850000000093,1200,,,,-0.0625,0.056640625,-1.017578125,0.02172974491397934,0.16623787070376164,15.119088684777878,0.23683124754979804,1075,0,3.58067263503198,2.445408938529022,68.29468057493006,0.06797957923706541,0.046426436496135294,0.072265625,,
0.7946500000000233,1200,,,,0,0,-0.97265625,0.02037180731314163,0.2193877621217925,15.119144641264262,0.23469776650726995,1075,0,3.5484294788050814,2.292744728712228,64.61294334315755,0.0956878275083928,0.061826721774296156,0.072265625,,
0.802875,1200,,,,-0.03125,0.005859375,-0.96484375,0.02037180731314163,0.2193877621217925,15.119188138452184,0.2339236203845055,1073,0,3.5367352266212073,2.2896775631543567,64.73986364373062,0.09581600730696538,0.06203115247939635,0.0703125,,
0.8106199999999953,1200,,,,-0.0625,0.03515625,-0.96875,0.02037180731314163,0.2193877621217925,15.119353406396547,0.23302962885085687,1073,0,3.5232573127575257,2.2885421934646097,64.95529535063821,0.09586354262914538,0.06226844724834635,0.0703125,,
0.8184349999999977,1200,,,,0,0,-1.01171875,0.02037180731314163,0.2193877621217925,15.11944959770727,0.23173780199369093,1073,0,3.5037480171270774,2.2880773230018625,65.30370653988946,0.09588301930022403,0.06261516554540388,0.0703125,,
0.8262850000000326,1200,,,,-0.0625,0.0390625,-0.9375,0.02037180731314163,0.2193877621217925,15.119572195985274,0.2305215682148553,1072,0,3.485387493356249,2.2878934506503117,65.64244162267272,0.09589072518190637,0.06294501329909041,0.0703125,,
0.834359999999986,1200,,,,-0.0625,0.072265625,-1.0078125,0.02037180731314163,0.2193877621217925,15.119661021596093,0.2299634197291118,1072,0,3.4769689536711934,2.2878178823061512,65.79920363943818,0.09589389252462992,0.06309741762006522,0.072265625,,
0.8425349999999744,1200,,,,0,0.015625,-0.94921875,0.02037180731314163,0.2193877621217925,15.119482513539957,0.23056205268069124,1071,0,3.4859789237915897,2.2853052911510074,65.55705989941421,0.0959993235789064,0.06293433406165615,0.072265625,,
0.850530000000028,1200,,,,-0.03125,0.041015625,-0.9609375,0.02037180731314163,0.2193877621217925,15.119507778809725,0.2300197666407921,1071,0,3.477785651005454,2.2843093346425665,65.68286731478564,0.09604117918474507,0.06308260029147163,0.072265625,,
0.859445000000007,1200,,,,-0.03125,0.048828125,-0.9765625,0.02037180731314163,0.2193877621217925,15.119535070119957,0.22943475034687738,1071,0,3.4689467541738295,2.2838888759953107,65.83810700603404,0.09605886014317754,0.06324333512984182,0.0703125,,
0.867570000000007,1200,,,,-0.0625,0.05859375,-1.0234375,0.02037180731314163,0.2193877621217925,15.119557731957197,0.22926563070791928,1071,0,3.4663949394419644,2.2837485326819986,65.88252558000926,0.09606476325313582,0.06328989222362254,0.0703125,,
0.8755850000000209,1200,,,,-0.03125,0.037109375,-0.91015625,0.02037180731314163,0.2193877621217925,15.11931685138131,0.22814091973792192,1070,0,3.4493348522831937,2.2836925117089466,66.2067502723697,0.0960671198057303,0.06360291810363806,0.0703125,,
0.8849800000000396,1200,,,,-0.0625,0.037109375,-0.955078125,0.02037180731314163,0.2193877621217925,15.119500167899089,0.22766582922765483,1072,0,3.4421935432324124,2.286302658693803,66.41993339360101,0.09595744521730636,0.06373487119953607,0.0703125,,
0.8925599999999977,1200,,,,0,0.08203125,-0.98046875,0.02037180731314163,0.2193877621217925,15.119456829990279,0.22746400619661175,1072,0,3.4391322220663127,2.2872195760415086,66.5057179647281,0.09591897709335234,0.06379160438035705,0.0703125,,
0.9011650000000373,1200,,,,-0.0625,0.04296875,-0.962890625,0.02037180731314163,0.2193877621217925,15.119482225007113,0.22769760621931354,1072,0,3.44266990990958,2.2875442382923428,66.44680722098111,0.09590536368624109,0.06372605212317745,0.0703125,,
0.9086500000000233,1200,,,,-0.03125,0.046875,-0.986328125,0.02037180731314163,0.2193877621217925,15.119507148680313,0.22824123962159773,1072,0,3.450895054082403,2.287679865690968,66.29236270122577,0.09589967784042584,0.06357416226328214,0.0703125,,
0.9168499999999767,1200,,,,-0.0625,0.046875,-0.953125,0.02037180731314163,0.2193877621217925,15.119465899732752,0.22716958549597416,1072,0,3.4346828013628055,2.2866954069019427,66.57661097539001,0.09594096417896912,0.06387424248747056,0.0703125,,
0.9246450000000186,1200,,,,-0.0625,0.041015625,-0.96875,0.02037180731314163,0.2193877621217925,15.119690322300475,0.22920287145348525,1071,0,3.4654764373587406,2.2852627768517184,65.94368243904329,0.09600110951968116,0.06330666679961669,0.0703125,,
0.9326700000000419,1200,,,,-0.03125,0.041015625,-0.98828125,0.02037180731314163,0.2193877621217925,15.119509393673091,0.2322367738318337,1071,0,3.5113060835067427,2.2847044878105724,65.06708425512245,0.0960245682941829,0.062480386757593584,0.0703125,,
0.943195000000007,1200,,,,0,0.0234375,-0.98828125,0.018061007023895233,0.26142345933826994,15.119536018904665,0.23201378453594385,1071,0,3.507940772173589,2.0253418863767,57.73592024251192,0.12907621231591263,0.07452333899477066,0.0703125,,
0.9603549999999814,1200,,,,0,-0.021484375,-0.94921875,0.018061007023895233,0.26142345933826994,15.11965673333192,0.22814575085714947,1074,0,3.4494854381283666,2.030444872660279,58.86225377898578,0.12875181338745445,0.07578621914116963,0.0703125,,
0.9689450000000069,1200,,,,-0.0625,0.01953125,-0.951171875,0.018061007023895233,0.26142345933826994,15.119772947220174,0.22577649244808726,1075,0,3.4136893026348494,2.034084132045611,59.586094448478576,0.1285214584882313,0.07658091764135967,0.0703125,,
0.9765750000000116,1200,,,,-0.03125,0.0625,-0.97265625,0.018061007023895233,0.26142345933826994,15.119653690089942,0.22461834686619805,1076,0,3.396151617057414,2.035495454781829,59.935352843448086,0.1284323473796654,0.07697638056712543,0.0703125,,
0.9847000000000117,1200,,,,-0.0625,0.05859375,-1.01171875,0.018061007023895233,0.26142345933826994,15.119670585810404,0.22436613738967312,1077,0,3.3923420879425366,2.036053046279416,60.01909576030663,0.1283971750225184,0.07706282343029382,0.0703125,,
0.997320000000007,1200,,,,-0.03125,0.044921875,-0.9609375,0.018061007023895233,0.26142345933826994,15.119696904509528,0.22293622129321713,1077,0,3.370728094990106,2.036325635337781,60.41204089894882,0.12837998736626696,0.07755697047377452,0.0703125,,
1.0059100000000325,1200,,,,-0.041015625,0.044921875,-0.998046875,0.018061007023895233,0.26142345933826994,15.119713059825663,0.22240518669094225,1076,0,3.3627026057840044,2.0343217771343083,60.49663070517091,0.12850644488824664,0.07774206939638655,0.0703125,,
1.013560000000056,1200,,,,-0.0625,0.06640625,-0.98046875,0.018061007023895233,0.26142345933826994,15.11972561366172,0.22284430506559103,1075,0,3.3693447471588627,2.033656582003085,60.35762839994121,0.1285484784657085,0.07758881294611078,0.0703125,,
1.0202550000000046,1200,,,,0,0.0078125,-0.98046875,0.018061007023895233,0.26142345933826994,15.119652815979398,0.22242624329177316,1075,0,3.363007575734177,2.0333743439932026,60.46297244957284,0.1285663213517677,0.07773501945834858,0.0703125,,
1.027655000000028,1200,,,,-0.03125,0.046875,-0.986328125,0.018061007023895233,0.26142345933826994,15.119580014019236,0.22114647600001888,1075,0,3.34364183870067,2.0332460081141828,60.80932426973986,0.12857443629299822,0.07818524589339938,0.0703125,,
1.0357050000000163,1200,,,,-0.03125,0.060546875,-1.005859375,0.018061007023895233,0.26142345933826994,15.119797073719209,0.21978448795004457,1075,0,3.3230968577559588,2.0326940011084274,61.16866549839529,0.1286093525123387,0.07866862463792451,0.0703125,,
1.0437350000000443,1200,,,,0,0.01953125,-0.953125,0.018061007023895233,0.26142345933826994,15.119806983859515,0.220192334908547,1074,0,3.3292656031425825,2.031491441571775,61.01920614727152,0.12868548396935667,0.0785228607448758,0.0703125,,
1.0509000000000233,1200,,,,-0.0625,0.029296875,-0.943359375,0.018061007023895233,0.26142345933826994,15.11968812899122,0.22057408587638644,1074,0,3.3350113877882896,2.0310200805374103,60.89994438922564,0.12871534941648483,0.07838757621503671,0.0703125,,
1.058390000000014,1200,,,,0,0.04296875,-0.9609375,0.018061007023895233,0.26142345933826994,15.119701911216968,0.22109808340414197,1074,0,3.3429371142120137,2.03084014558204,60.75017495687302,0.12872675375606474,0.07820172812311242,0.0703125,,
1.0654150000000373,1200,,,,-0.0625,0.025390625,-1.001953125,0.018061007023895233,0.26142345933826994,15.119714672965735,0.22047186560846807,1074,0,3.3334717014164843,2.030764267365189,60.92039918929749,0.12873156354944795,0.07842378239694787,0.0703125,,
1.0737950000000418,1200,,,,-0.0625,0.09375,-0.9296875,0.018061007023895233,0.26142345933826994,15.119826308197128,0.21915027526781228,1074,0,3.3135140974429107,2.0307283127801607,61.28624333746776,0.12873384277602806,0.07889613614138971,0.0703125,,
1.0818000000000465,1200,,,,-0.0625,0.0546875,-1.009765625,0.018061007023895233,0.26142345933826994,15.119971957439496,0.21849797183565192,1073,0,3.3036832069124618,2.0293278694040384,61.42622468031965,0.1288226822682149,0.07913091024928799,0.0703125,,
1.089640000000014,1200,,,,-0.03125,0.017578125,-0.9765625,0.018061007023895233,0.2792228150290734,15.119879655042707,0.21823785916061286,1073,0,3.299730166682626,2.028820595232252,61.48443941620598,0.13762814498494827,0.08461989342291865,0.0703125,,
1.0996699999999837,1200,,,,-0.0625,0.0859375,-0.984375,0.01665250788894639,0.2792228150290734,15.119885580171434,0.21829718779980958,1073,0,3.3006285020063166,1.8704055703629772,56.6681639338094,0.14928463615240758,0.08459686234283723,0.0703125,,
1.107780000000028,1200,,,,-0.0625,0.087890625,-0.994140625,0.01665250788894639,0.2792228150290734,15.120084693019097,0.2175387373183146,1073,0,3.289204132265351,1.870317435175922,56.862309542575915,0.14929167090976175,0.0848906920339925,0.0703125,,
1.121664999999979,1200,,,,-0.03125,0.0546875,-0.962890625,0.01665250788894639,0.2792228150290734,15.120077448984453,0.21658983191816208,1073,0,3.2748550332651356,1.870429500189287,57.11487932106749,0.14928272624058597,0.08526264893951024,0.0703125,,
1.128530000000028,1200,,,,-0.041015625,0.05078125,-0.95703125,0.01665250788894639,0.2792228150290734,15.119956284255368,0.21836892294162127,1073,0,3.301728568717243,1.8706480557387521,56.65662748484256,0.14926528492223695,0.08456867644258065,0.068359375,,
1.136850000000035,1200,,,,-0.0625,0.0546875,-0.9921875,0.01665250788894639,0.2792228150290734,15.120023484840313,0.22053861047157625,1073,0,3.334548969644283,1.8707634066704744,56.10244215037095,0.14925608125189138,0.08373630664025301,0.068359375,,
1.1447399999999908,1200,,,,-0.0625,0.068359375,-1.017578125,0.01665250788894639,0.2792228150290734,15.120022368150565,0.22048498864096433,1073,0,3.3337379600928037,1.8708093818762004,56.117469467339944,0.14925241327849553,0.08375667745082774,0.068359375,,
1.1528100000000558,1200,,,,-0.0625,0.0390625,-0.96484375,0.01665250788894639,0.2792228150290734,15.119693538012827,0.21936656389998258,1073,0,3.3167552186546443,1.8708274090414496,56.40535058237738,0.14925097509242607,0.08418553574849967,0.0703125,,
1.160875,1200,,,,-0.03125,0.056640625,-0.9765625,0.01665250788894639,0.2792228150290734,15.119611642441349,0.21874099059458463,1075,0,3.307278828073035,1.8742230536536948,56.6696414509961,0.14898056796641354,0.0844267536982241,0.0703125,,
1.1694650000000255,1200,,,,-0.03125,0.005859375,-0.990234375,0.01665250788894639,0.2792228150290734,15.1198548324178,0.21878030696992473,1076,0,3.3079264815770664,1.8756740078293408,56.70240914589814,0.1488653219395034,0.08441022392249567,0.0703125,,
1.1767200000000302,1200,,,,0,0.0078125,-0.97265625,0.01665250788894639,0.2792228150290734,15.119975788320746,0.21787549771373033,1076,0,3.2942722502999344,1.8761252060849405,56.95112800449703,0.14882952061165997,0.08476009079202575,0.0703125,,
1.1846500000000233,1200,,,,-0.03125,0.041015625,-0.9609375,0.01665250788894639,0.2792228150290734,15.12007436990937,0.21605043868751297,1076,0,3.2666987006067405,1.8763367431532623,57.43831663461221,0.1488127416616208,0.08547553374824925,0.0703125,,
1.1927600000000094,1200,,,,0,0.01171875,-0.98828125,0.01665250788894639,0.2792228150290734,15.120070683633541,0.21557430243638925,1076,0,3.2594986904131997,1.8764213558586973,57.56778983767064,0.1488060313091534,0.0856643433698318,0.0703125,,
1.2015550000000512,1200,,,,-0.0625,0.072265625,-0.9921875,0.01665250788894639,0.2792228150290734,15.120212227222895,0.21483950537272245,1075,0,3.248418916027157,1.8748934035575526,57.71710644545078,0.14892730141311325,0.0859565290829439,0.0703125,,
1.2102100000000209,1200,,,,0,0.0078125,-0.94921875,0.01665250788894639,0.2792228150290734,15.120097255983726,0.21237123309910402,1075,0,3.211073698831643,1.8743538002316493,58.37155967219431,0.14897017574513657,0.08695621502884511,0.0703125,,
1.2185750000000117,1200,,,,-0.03125,0.0078125,-0.96875,0.01665250788894639,0.2792228150290734,15.11996956577646,0.2126983119615134,1075,0,3.2159920035501095,1.8741634621346241,58.276371958193586,0.148985305001649,0.08682323050581016,0.0703125,,
1.2274199999999837,1200,,,,-0.03125,0.041015625,-0.9765625,0.01665250788894639,0.2792228150290734,15.119810359812327,0.2133687098834339,1075,0,3.2260944301553347,1.8740733681939261,58.091088428049844,0.148992467300341,0.08655134593057433,0.0703125,,
1.2364249999999883,1200,,,,0,0,-0.97265625,0.01665250788894639,0.27715240670635044,15.11990656670195,0.21306371743511815,1074,0,3.2215035003731716,1.8728732177520813,58.13661905179156,0.14798247103933868,0.08603200545156811,0.068359375,,
1.2448150000000022,1200,,,,-0.0625,0.03515625,-0.939453125,0.016103393975311457,0.27715240670635044,15.119588663350454,0.2121345382362629,1073,0,3.207386959422084,1.8091864226359717,56.406864700913914,0.15319173482550313,0.08641065459600437,0.0703125,,
1.2546200000000536,1200,,,,-0.0625,0.06640625,-1.017578125,0.016103393975311457,0.27715240670635044,15.119412077768693,0.21313555766076683,1073,0,3.2224843246981636,1.8086139413708309,56.12483286602911,0.15324022466413367,0.08600581997627255,0.0703125,,
1.2614000000000234,1200,,,,0,-0.05078125,-0.9609375,0.016103393975311457,0.27715240670635044,15.11955773825033,0.2140404083941321,1072,0,3.236196313033761,1.8083733981175607,55.87959515417368,0.15326060812156064,0.0856414073491527,0.0703125,,
1.2704250000000465,1200,,,,-0.03125,0.0078125,-0.94921875,0.016103393975311457,0.27715240670635044,15.119577865322999,0.21487760202508413,1072,0,3.2488586353321462,1.8082977973008205,55.659479228647626,0.15326701559889397,0.08530762271163449,0.0703125,,
1.2789400000000024,1200,,,,-0.03125,0.013671875,-0.966796875,0.016103393975311457,0.27715240670635044,15.119828168999245,0.21538178534876903,1072,0,3.256535585205667,1.8082622895758238,55.5271773411812,0.15327002520821462,0.08510651870823849,0.0703125,,
1.2876700000000418,1200,,,,0,0.025390625,-0.947265625,0.016103393975311457,0.27715240670635044,15.119837592164078,0.21536688458159525,1072,0,3.256312317604066,1.8082499856352285,55.53060668841818,0.15327106810897512,0.08511235399873253,0.0703125,,
1.2956500000000233,1200,,,,-0.0625,0.02734375,-0.9453125,0.016103393975311457,0.27715240670635044,15.11971233482288,0.21426772207087424,1072,0,3.239666320349398,1.8082458367463765,55.815805022517175,0.1532714197783184,0.08554967681871001,0.0703125,,
1.3039150000000372,1200,,,,-0.0625,0.060546875,-0.97265625,0.016103393975311457,0.27715240670635044,15.1199216168032,0.21356703295246762,1072,0,3.2291167981745366,1.808244182072755,55.99810397366177,0.15327156003270315,0.08582916754916653,0.0703125,,
1.3117600000000675,1200,,,,0,0.01953125,-0.984375,0.016103393975311457,0.27715240670635044,15.119925492636934,0.21353638097700484,1072,0,3.228654170339648,1.8082435925576072,56.00610957869742,0.15327161000158274,0.08584146585052017,0.0703125,,
1.3199000000000234,1200,,,,-0.03125,0.05078125,-0.994140625,0.016103393975311457,0.27715240670635044,15.119929172167865,0.2136142727856768,1072,0,3.229832674683579,1.8075830643493813,55.96522316830135,0.15332761861547325,0.0858101439367916,0.0703125,,
1.327710000000021,1200,,,,-0.03125,0.021484375,-0.94921875,0.016103393975311457,0.27715240670635044,15.119932678367176,0.21262635838265379,1072,0,3.2148962243920973,1.8073260763012335,56.217244668386755,0.15334942063888887,0.08620881899811773,0.0703125,,
1.336625,1200,,,,-0.0625,0.02734375,-0.953125,0.016103393975311457,0.27715240670635044,15.120065123710013,0.21190606811410004,1072,0,3.2040335499945223,1.8072249767374784,56.404683301164816,0.1533579992938589,0.08650109381870369,0.0703125,,
1.3445950000000302,1200,,,,-0.03125,0.025390625,-0.958984375,0.016103393975311457,0.27715240670635044,15.120282369303442,0.21328092080846262,1072,0,3.224867746609001,1.807181890788677,56.03894586650746,0.15336165558044498,0.08594225515070518,0.0703125,,
1.3519899999999907,1200,,,,-0.03125,0.03125,-0.951171875,0.016103393975311457,0.27715240670635044,15.120270121903157,0.2124158303504962,1072,0,3.2117847330678573,1.8071683265508491,56.2667948428992,0.1533628066818335,0.08629233580097938,0.068359375,,
1.359984999999986,1200,,,,-0.0625,0.05078125,-0.96875,0.016103393975311457,0.27715240670635044,15.120322301264181,0.21318655278091317,1071,0,3.2234493883428748,1.8068339612284685,56.052810004171775,0.15339118737723645,0.08598007082370546,0.068359375,,
1.3688150000000605,1200,,,,-0.0625,0.0390625,-0.99609375,0.016103393975311457,0.27715240670635044,15.120087094935878,0.2128189709082108,1071,0,3.2178413755867723,1.8066948181643305,56.14617401191444,0.15340300083881772,0.08612991579046117,0.068359375,,
1.3768550000000397,1200,,,,-0.03125,0.0234375,-0.98828125,0.016103393975311457,0.27715240670635044,15.120082789301389,0.212932094255515,1071,0,3.219550893642713,1.8066468897181833,56.11487283166006,0.15340707045945381,0.08608418250309764,0.068359375,,
1.3845100000000092,1200,,,,-0.0625,0.03515625,-0.9140625,0.016103393975311457,0.2762554855016542,15.12017627616158,0.21325002514599606,1071,0,3.22437797110335,1.8066282787587498,56.030288475781255,0.15291218938046097,0.08567714082450524,0.068359375,,
1.3928999999999652,1200,,,,-0.03125,0.001953125,-0.966796875,0.015723337684263386,0.2762554855016542,15.120167609388105,0.21532525646546619,1071,0,3.2557539682923284,1.763982713636852,54.18046728395992,0.156608952778279,0.08485146242378769,0.068359375,,
1.400905000000028,1200,,,,0,0.0390625,-0.98046875,0.015723337684263386,0.2762554855016542,15.120094134316469,0.21786593071498053,1071,0,3.2941533810709753,1.764193372994869,53.55528929321758,0.15659025236711263,0.08386236266018665,0.068359375,,
1.4106599999999745,1200,,,,-0.0625,0.029296875,-0.966796875,0.015723337684263386,0.2762554855016542,15.120024130510833,0.2181566811263699,1072,0,3.29853428286287,1.7642766660957547,53.48668574590349,0.1565828595993349,0.08375098204584552,0.068359375,,
1.4182949999999837,1200,,,,-0.03125,0.052734375,-0.9609375,0.015723337684263386,0.2762554855016542,15.119950252880917,0.21680962876707968,1072,0,3.2781508013038243,1.7643112602233906,53.82032027085722,0.15657978936589437,0.084271744116158,0.068359375,,
1.4258250000000117,1200,,,,-0.03125,0.017578125,-0.984375,0.015723337684263386,0.2762554855016542,15.119952751901291,0.21629684905227564,1072,0,3.2703981380555334,1.7643231634606749,53.94826834477349,0.15657873297983918,0.08447151503881,0.068359375,,
1.4343450000000302,1200,,,,0,0,-0.96875,0.015723337684263386,0.2762554855016542,15.119955073320789,0.21837733375017648,1072,0,3.301855475334248,1.7643278239009204,53.43443518594092,0.15657831937992941,0.08366674058430396,0.068359375,,
1.4429850000000441,1200,,,,-0.0625,0.044921875,-0.9609375,0.015723337684263386,0.2762554855016542,15.12010581395602,0.21867793776492472,1074,0,3.306433558183351,1.768211912655536,53.47792059148596,0.15623437639144067,0.08355089574321792,0.068359375,,
1.450445000000007,1200,,,,-0.0625,0.044921875,-0.9765625,0.015723337684263386,0.2762554855016542,15.120100722125331,0.21808346735476722,1075,0,3.297443992234412,1.7694997165788156,53.66276791193558,0.15612067236482627,0.08377867407369007,0.068359375,,
1.458725000000035,1200,,,,0,0.01953125,-0.9453125,0.015723337684263386,0.2762554855016542,15.120095713609112,0.21772020955990404,1075,0,3.2919504073327825,1.7700182052728934,53.76807017900992,0.1560749401778398,0.08391848336666864,0.068359375,,
1.4669699999999721,1200,,,,-0.0625,0.060546875,-1.005859375,0.015723337684263386,0.2762554855016542,15.119994061866548,0.21685677069066236,1075,0,3.2788730851183705,1.7702182622803055,53.988617928357506,0.1560573017396148,0.08425318038550464,0.068359375,,
1.4760350000000326,1200,,,,0,0.041015625,-0.98046875,0.015723337684263386,0.2762554855016542,15.119994433582105,0.2155707330064221,1075,0,3.2594282831003163,1.7696966535841607,54.294695261736315,0.15610329880104304,0.084755810377544,0.068359375,,
1.4840050000000047,1200,,,,-0.03125,0.05078125,-0.998046875,0.015723337684263386,0.2762554855016542,15.119994699497518,0.2151251600720738,1074,0,3.2526912800183108,1.7683785082866539,54.36662615816091,0.1562196578431122,0.0849313573651229,0.068359375,,
1.4919799999999814,1200,,,,-0.0625,-0.046875,-0.94921875,0.015723337684263386,0.2762554855016542,15.119863720133285,0.21533832150101712,1074,0,3.255886074817626,1.7678528729210055,54.29713547394404,0.1562661066049009,0.08484801960312087,0.068359375,,
1.4991350000000092,1200,,,,-0.03125,0.041015625,-1,0.015723337684263386,0.2762554855016542,15.119967630050866,0.21490540772196068,1074,0,3.2493628082789288,1.767647870007507,54.39983080694417,0.1562842295623511,0.08501835645985523,0.068359375,,
1.5059849999999861,1200,,,,0,-0.03515625,-0.953125,0.015723337684263386,0.2762554855016542,15.119969006124101,0.2141729775806054,1074,0,3.2382887829680658,1.7675720894329559,54.583522591610276,0.15629092988805796,0.08530909502408589,0.068359375,,
1.5127849999999743,1200,,,,-0.0625,0.0625,-1.04296875,0.015723337684263386,0.2762554855016542,15.120121313951042,0.21338915704272599,1073,0,3.226469941567767,1.7675411746179026,54.78250864345695,0.1562936634623935,0.08562158969546126,0.068359375,,
1.5208750000000582,1200,,,,-0.03125,0.037109375,-0.982421875,0.015723337684263386,0.2762554855016542,15.120115387541679,0.21304680640881682,1073,0,3.2212922958485644,1.7665581003272868,54.84004362485007,0.1563806395331537,0.08575921094080101,0.068359375,,
1.5292350000000443,1200,,,,-0.0625,0.056640625,-0.97265625,0.015723337684263386,0.2762554855016542,15.12010975608458,0.2120807743036985,1073,0,3.2066845846273235,1.7661712469107214,55.077797653615605,0.15641489237516656,0.08614987792251484,0.068359375,,
1.5405400000000373,1200,,,,0,0.00390625,-0.94921875,0.015723337684263386,0.27587489912590657,15.120003347008137,0.21134385430515604,1073,0,3.1955197844635594,1.7659889702732061,55.264529384526014,0.15621552782587736,0.08633177627852441,0.068359375,,
1.5484800000000396,1200,,,,-0.041015625,0.0625,-0.98046875,0.015468817983076942,0.27587489912590657,15.11994087288274,0.21091073818410974,1073,0,3.188957890799791,1.7373623354868757,54.48056684910144,0.15878950147068535,0.08650942049809165,0.068359375,,
1.5562600000000093,1200,,,,0,0.0234375,-0.94921875,0.015468817983076942,0.27587489912590657,15.120205953954672,0.21069044004943518,1073,0,3.1856828460767996,1.7378731781781307,54.55261123430222,0.15874282576540785,0.08659835660214867,0.068359375,,
1.5662000000000116,1200,,,,-0.03125,0.02734375,-0.986328125,0.015468817983076942,0.27587489912590657,15.120372853229869,0.21050303875887852,1073,0,3.1828844327721417,1.7380620952924493,54.606509661385324,0.15872557135508292,0.08667449445710242,0.068359375,,
1.5746200000000536,1200,,,,-0.0625,0.0390625,-0.9765625,0.015468817983076942,0.27587489912590657,15.120684583049366,0.2113251333490472,1073,0,3.1953806858417897,1.7381621401549738,54.39608957569552,0.15871643545366237,0.08633553440072515,0.068359375,,
1.5823699999999954,1200,,,,-0.03125,0.013671875,-0.984375,0.015468817983076942,0.27587489912590657,15.12065578349323,0.21166737875056338,1073,0,3.2005495746815584,1.7381857579605613,54.30897779902389,0.1587142788752306,0.08619610247822986,0.068359375,,
1.589469999999972,1200,,,,0,-0.03125,-0.94921875,0.015468817983076942,0.27587489912590657,15.120556734681209,0.21475611963571728,1073,0,3.247232091071848,1.738197268505825,53.5285812580178,0.15871322785074443,0.08495693913730866,0.068359375,,
1.5970800000000163,1200,,,,-0.0625,0.0625,-1.05078125,0.015468817983076942,0.27587489912590657,15.12036443973901,0.21646572240008333,1073,0,3.273040611400636,1.737942574966355,53.09871710460187,0.15873648709667365,0.08428703822524558,0.068359375,,
1.6048750000000582,1200,,,,0,0.041015625,-0.9453125,0.015468817983076942,0.27587489912590657,15.120346520890973,0.21693366397609268,1073,0,3.2801121713650443,1.7376790929148587,52.97620941395154,0.15876055610656048,0.0841053246697655,0.068359375,,
1.613024999999965,1200,,,,-0.0625,0.03125,-1.001953125,0.015468817983076942,0.27587489912590657,15.120427745076341,0.2157778335697795,1073,0,3.262653141480959,1.7375757623137353,53.256527340354296,0.1587699973200333,0.08455538703102332,0.068359375,,
1.6210100000000094,1200,,,,-0.0625,0.02734375,-0.96484375,0.015468817983076942,0.27587489912590657,15.120537292176264,0.21426063886444305,1073,0,3.2397359801953223,1.7375351451539776,53.631998279354306,0.15877370877666994,0.08515351275917063,0.068359375,,
1.6291550000000279,1200,,,,0,0.041015625,-1.001953125,0.015468817983076942,0.27587489912590657,15.120510934936059,0.21291626854891618,1073,0,3.2194027668196696,1.7375190864606875,53.970230266563355,0.15877517621280438,0.08569132820819227,0.068359375,,
1.6380400000000372,1200,,,,-0.03125,0.0078125,-0.95703125,0.015468817983076942,0.27587489912590657,15.120336103761327,0.21232020452387007,1077,0,3.2103528540202615,1.7439148612735262,54.3215945589799,0.15819287125315495,0.0859328901433479,0.068359375,,
1.6459500000000116,1200,,,,-0.0625,0.046875,-0.98046875,0.015468817983076942,0.27587489912590657,15.12038480878567,0.2130923119596824,1078,0,3.2220377566241987,1.7460687409662186,54.19144258556467,0.15799773093311675,0.08562124964511493,0.068359375,,
1.653960000000021,1200,,,,-0.0625,0.037109375,-0.982421875,0.015468817983076942,0.27587489912590657,15.120365943425984,0.21244508868384004,1078,0,3.2122474837832478,1.7469242123148443,54.38323856222284,0.157920359212576,0.08588220568889446,0.068359375,,
1.6624400000000024,1200,,,,0,0.037109375,-0.984375,0.015468817983076942,0.27587489912590657,15.120347685018858,0.21192887281493247,1079,0,3.2044382414559203,1.7472635947824042,54.5263619744016,0.15788968530547487,0.08609150132990681,0.068359375,,
1.6695349999999745,1200,,,,-0.0625,0.02734375,-0.94140625,0.015468817983076942,0.27587489912590657,15.120457887205282,0.21269830155265285,1079,0,3.216095711306977,1.7473925387238634,54.33272811441756,0.15787803427807956,0.08577944311669593,0.068359375,,
1.6770400000000372,1200,,,,-0.03125,0.02734375,-0.962890625,0.015468817983076942,0.27587489912590657,15.120790305726437,0.21213508561253144,1077,0,3.207650146034413,1.744039343071362,54.371245730383066,0.15818158014719647,0.08600529564203505,0.068359375,,
1.6867150000000257,1200,,,,-0.0625,0.12109375,-0.9921875,0.015468817983076942,0.28327227150317574,15.12063475672545,0.2118167513855402,1076,0,3.202803733056873,1.7424111591510427,54.40268291082644,0.1625748721910131,0.0884450922107582,0.068359375,,
1.6951450000000186,1200,,,,-0.0625,0.048828125,-0.966796875,0.015249981037661493,0.28327227150317574,15.120673029010565,0.21128439494499737,1075,0,3.194762252095638,1.7171977537720773,53.75040827046404,0.16496193922972854,0.08866771582685389,0.068359375,,
1.707304999999993,1200,,,,-0.0625,0.021484375,-0.958984375,0.015249981037661493,0.28327227150317574,15.120621150863276,0.21141218027570405,1075,0,3.1966834846269303,1.7169643233623113,53.71080157354678,0.1649843666806349,0.08861442581520863,0.068359375,,
1.7245499999999883,1200,,,,-0.03125,0.021484375,-0.98046875,0.015249981037661493,0.28327227150317574,15.12063553642923,0.2110103551744318,1073,0,3.190610675005067,1.7131256256330496,53.69271904759515,0.16535405650621704,0.08878308899368485,0.068359375,,
1.7321600000000326,1200,,,,-0.03125,0.013671875,-0.951171875,0.015249981037661493,0.28327227150317574,15.12060659230939,0.2119890426713973,1072,0,3.2054029161144864,1.7122126009361467,53.41645483406655,0.16544223033301914,0.08837337424230952,0.068359375,,
1.746375,1200,,,,-0.03125,0.015625,-0.99609375,0.015249981037661493,0.28327227150317574,15.121057350371277,0.2121061833075712,1072,0,3.207269762162147,1.7116726696444218,53.368528267809815,0.16549441755240618,0.08832193501310309,0.068359375,,
1.7537200000000304,1200,,,,-0.03125,0.013671875,-0.970703125,0.015249981037661493,0.28327227150317574,15.121191128153594,0.21243978773795907,1072,0,3.2123426336100596,1.7114400736152147,53.27700898742184,0.16551690933869312,0.08818245866407838,0.068359375,,
1.7629650000000257,1200,,,,-0.0625,0.09765625,-1.0390625,0.015249981037661493,0.28327227150317574,15.12123661018658,0.2113706165284222,1071,0,3.1961851049672867,1.7109615039716783,53.531364666978206,0.16556320574461317,0.08862824342148828,0.068359375,,
1.770890000000014,1200,,,,-0.03125,0.041015625,-0.955078125,0.015249981037661493,0.28327227150317574,15.121241069522977,0.21035023525104754,1071,0,3.18075661626196,1.710809997910404,53.78625919266202,0.16557786770545332,0.08905814108973815,0.068359375,,
1.7825900000000257,1200,,,,-0.0625,0.048828125,-0.970703125,0.015249981037661493,0.28327227150317574,15.120910804940111,0.2101030161532077,1071,0,3.176948967101545,1.7107360829877303,53.84839670712438,0.16558502174599157,0.0891648793973597,0.068359375,,
1.8019300000000513,1200,,,,-0.03125,0.056640625,-0.98046875,0.015249981037661493,0.28327227150317574,15.120773460925074,0.20957672944542793,1071,0,3.1689622486259013,1.7099175253993208,53.95828006915389,0.1656642892393436,0.08938960116233821,0.068359375,,
1.809594999999972,1200,,,,-0.03125,0.037109375,-0.982421875,0.015249981037661493,0.28327227150317574,15.120560263686956,0.20904834876413836,1071,0,3.1609281555124027,1.7096804153907554,54.08792390327542,0.16568726468006745,0.08961680163757339,0.068359375,,
1.8174949999999954,1200,,,,-0.0625,0.015625,-0.9609375,0.015249981037661493,0.28327227150317574,15.120631680422752,0.20988637376845745,1071,0,3.173614552492389,1.709573834458239,53.86835125001649,0.16569759421531172,0.08925856206473112,0.068359375,,
1.825780000000028,1200,,,,-0.03125,0.09765625,-0.998046875,0.015249981037661493,0.28327227150317574,15.120600337099447,0.21014568604482345,1070,0,3.177528931249352,1.7095321150305092,53.80067820053961,0.16570163789998196,0.08914860497959268,0.068359375,,
1.833125,1200,,,,0,0.01953125,-0.95703125,0.015249981037661493,0.2864446341844211,15.120574383201774,0.20970326414959467,1070,0,3.170833803974156,1.709484854477366,53.91278635716535,0.16756196080601993,0.09033732194522666,0.068359375,,
1.8413800000000047,1200,,,,-0.0625,0.06640625,-0.99609375,0.015157570654466062,0.2864446341844211,15.120447792193424,0.2101827536456708,1070,0,3.1780573533188172,1.6990352154703123,53.46143969667586,0.16859252331925914,0.09013199018742991,0.068359375,,
1.8502250000000349,1200,,,,-0.03125,0.076171875,-0.990234375,0.015157570654466062,0.2864446341844211,15.120496927584524,0.20997457379063433,1070,0,3.1749198978721562,1.6989973470276676,53.51307754776246,0.1685962810274809,0.09022105860887936,0.068359375,,
1.8581900000000022,1200,,,,-0.0625,0.05078125,-0.96484375,0.015157570654466062,0.2864446341844211,15.120343006191257,0.2112811247308905,1070,0,3.194643076664943,1.6989847303152115,53.182302045738126,0.16859753302860894,0.08966404925693791,0.068359375,,
1.8687999999999882,1200,,,,-0.03125,0.01953125,-0.9296875,0.015157570654466062,0.2864446341844211,15.12022814670616,0.21168177644049638,1070,0,3.2006767542803543,1.6989797095781238,53.081889863011966,0.16859803125933068,0.08949502126428441,0.068359375,,
1.8847449999999955,1200,,,,0,0.0078125,-0.955078125,0.015157570654466062,0.2864446341844211,15.120363222460922,0.21233887417560915,1071,0,3.210640903783638,1.700049619345776,52.95047531919006,0.1684919257207637,0.08921727554360104,0.068359375,,
1.8917850000000327,1200,,,,-0.0625,0.03515625,-0.9609375,0.015157570654466062,0.2864446341844211,15.120284830339294,0.2112630395782646,1071,0,3.194357332546604,1.7002172699101394,53.225644250472534,0.16847531151095788,0.08967206995469786,0.068359375,,
1.9002750000000233,1200,,,,-0.03125,0.095703125,-0.994140625,0.015157570654466062,0.2864446341844211,15.120270445135501,0.21233732029083008,1071,0,3.210597708392709,1.7002899978392394,52.95867474752667,0.1684681051752585,0.08921847587308632,0.068359375,,
1.9081700000000419,1200,,,,-0.03125,0.017578125,-0.982421875,0.015157570654466062,0.2864446341844211,15.12051418262665,0.21205306408919286,1071,0,3.2063513630300786,1.700317218791728,53.02965976831957,0.16846540811247748,0.08933663274935785,0.068359375,,
1.916280000000028,1200,,,,-0.0625,0.04296875,-0.9609375,0.015157570654466062,0.2864446341844211,15.120488761630796,0.21241939054895936,1071,0,3.2118850075480028,1.699914864881434,52.92576978586081,0.1685052822950637,0.08918271778450028,0.068359375,,
1.9240950000000303,1200,,,,-0.03125,0.056640625,-0.990234375,0.015157570654466062,0.2864446341844211,15.120465021933084,0.215612347029363,1071,0,3.2601589515543807,1.6993488501719207,52.12472383782711,0.1685614075976465,0.08786216820742739,0.06640625,,
1.9323099999999978,1200,,,,-0.0625,0.03515625,-0.953125,0.015157570654466062,0.2864446341844211,15.120573338470434,0.21953753877013213,1070,0,3.319533455521079,1.6991230586895845,51.185598261213094,0.168583807228969,0.08629063030167801,0.06640625,,
1.940100000000035,1200,,,,-0.0625,0.03515625,-0.98828125,0.015157570654466062,0.2864446341844211,15.120643340098429,0.2219264877223065,1070,0,3.3556712685697296,1.699034277137388,50.631725850236776,0.1685926164285728,0.08536135135385622,0.068359375,,
1.9482150000000256,1200,,,,-0.03125,0.0625,-0.998046875,0.015157570654466062,0.2864446341844211,15.120676823813758,0.22033270567951585,1070,0,3.3315796362964334,1.6989994702735025,50.996813996684274,0.16859607033209353,0.08597862439297674,0.06640625,,
1.9564349999999977,1200,,,,-0.0625,0.05078125,-0.9453125,0.015157570654466062,0.2864446341844211,15.120643220730045,0.21899701582064435,1073,0,3.3113757426285364,1.7024505069480864,51.4121815000281,0.16825430931200386,0.0865032108851061,0.06640625,,
1.9643599999999861,1200,,,,-0.0625,0.078125,-1.0078125,0.015157570654466062,0.2864446341844211,15.12070999776081,0.21805797153128753,1074,0,3.2971913502245815,1.70551626075155,51.72633552600404,0.167951863477512,0.0868753444245541,0.068359375,,
1.97225,1200,,,,-0.0625,0.033203125,-0.96875,0.015157570654466062,0.2864446341844211,15.120773297224721,0.21716839861737938,1075,0,3.2837541228147242,1.706720735614736,51.97468116619499,0.16783333571045406,0.08723084112609818,0.068359375,,
1.980335000000021,1200,,,,0,0,-0.98046875,0.015157570654466062,0.2864446341844211,15.12093176363742,0.21621486320822875,1076,0,3.269370192855826,1.7071961958818411,52.217891984590125,0.1677865935241614,0.08761462217106988,0.068359375,,
1.9880200000000186,1200,,,,-0.03125,0.068359375,-0.97265625,0.015399492683053519,0.2878217886894234,15.12098354857378,0.2151106956386921,1076,0,3.2526852898749246,1.734632803206097,53.32925409678349,0.16592663770536709,0.08848743823614458,0.068359375,,
1.995554999999993,1200,,,,-0.0625,0.0625,-0.97265625,0.015399492683053519,0.2878217886894234,15.120854335628973,0.21586280814396033,1075,0,3.2640300784246477,1.734211420318822,53.13098772532826,0.16596695496129849,0.08817988246858857,0.068359375,,
2.003375,1200,,,,0,0.0390625,-0.98046875,0.015399492683053519,0.2878217886894234,15.120748202154111,0.21477233087986478,1075,0,3.247518336024163,1.7340164293619453,53.39512359720341,0.16598561802285303,0.08862822589688431,0.068359375,,
2.011054999999993,1200,,,,-0.0625,0.0546875,-0.986328125,0.015399492683053519,0.2878217886894234,15.120513549954547,0.21371631533520152,1075,0,3.2315004418722735,1.7339380973201006,53.657368411668486,0.16599311655604557,0.08906753808848764,0.068359375,,
2.022309999999998,1200,,,,-0.0625,0.046875,-0.9921875,0.015399492683053519,0.2878217886894234,15.120422468348577,0.21271492471156161,1075,0,3.216339526961772,1.7339074236802452,53.90934038976084,0.16599605305254259,0.08948737727366315,0.068359375,,
2.030110000000044,1200,,,,-0.03125,0.06640625,-0.98046875,0.015399492683053519,0.2878217886894234,15.120261744148744,0.21272987193759346,1075,0,3.216531344495656,1.7338935964253912,53.90569563056011,0.1659973768187385,0.08948204070262314,0.068359375,,
2.0378750000000583,1200,,,,-0.03125,0.0078125,-0.92578125,0.015399492683053519,0.2878217886894234,15.12025004945865,0.21128019563733597,1075,0,3.194609388535062,1.733188659921929,54.25353929472766,0.16606489261381865,0.09009608176898538,0.068359375,,
2.0452750000000233,1200,,,,-0.03125,0.0625,-0.998046875,0.015399492683053519,0.2878217886894234,15.120333447662938,0.21042883139672008,1075,0,3.181754097720452,1.7328797700709628,54.463032555296266,0.16609449406731594,0.09046009837643693,0.068359375,,
2.053625,1200,,,,0,0.0625,-0.98828125,0.015399492683053519,0.2878217886894234,15.120317298027706,0.20876322095071304,1074,0,3.1565661409330463,1.7327538891233791,54.893634784132736,0.16610656048507608,0.09118192866516221,0.068359375,,
2.061975000000035,1200,,,,-0.03125,0.0078125,-0.978515625,0.015399492683053519,0.2878217886894234,15.120299762999297,0.20935509011624312,1074,0,3.1655117194673275,1.7327002033457906,54.73681214604249,0.16611170711104462,0.09092425307395678,0.068359375,,
2.071164999999979,1200,,,,-0.0625,0.11328125,-0.97265625,0.015399492683053519,0.2878217886894234,15.120350488675838,0.208572564907792,1074,0,3.1536902837279057,1.7326822267071953,54.94142007689579,0.16611343052580532,0.09126507766932515,0.068359375,,
2.0791050000000397,1200,,,,-0.0625,0.041015625,-0.9765625,0.015399492683053519,0.2878217886894234,15.120623753307216,0.21012054563982874,1073,0,3.177153713459467,1.730230171604461,54.4584973737543,0.1663488438781085,0.09059108077463036,0.068359375,,
2.086390000000014,1200,,,,-0.03125,0.025390625,-0.994140625,0.015399492683053519,0.2878217886894234,15.120593966829938,0.20994394728566346,1072,0,3.1744771827000653,1.7294092104906724,54.47855224524613,0.16642781069019624,0.09066746179747788,0.068359375,,
2.0934099999999742,1200,,,,-0.0625,0.04296875,-0.95703125,0.015399492683053519,0.2878217886894234,15.120684765683993,0.20979011783689344,1072,0,3.1721702387673645,1.7290949511806508,54.50826472202637,0.16645805858891355,0.09073339922679073,0.068359375,,
2.1010599999999977,1200,,,,-0.0625,0.0625,-0.986328125,0.015399492683053519,0.2878217886894234,15.120567368397253,0.20935863173745636,1072,0,3.1656212953416802,1.728959314996857,54.616745140711544,0.1664711171586745,0.09092110579144858,0.068359375,,
2.108945000000007,1200,,,,-0.03125,0.048828125,-1.0078125,0.015399492683053519,0.2878217886894234,15.120443882036435,0.20984452444209714,1072,0,3.172942355779353,1.7288975624483847,54.48877945416455,0.1664770631533678,0.09071131978340881,0.068359375,,
2.1169550000000164,1200,,,,-0.0625,-0.015625,-0.9453125,0.015399492683053519,0.2878217886894234,15.12042208066269,0.20946396046501628,1072,0,3.167183492918289,1.7287677830755117,54.5837583121084,0.16648956066116802,0.09087625940618306,0.068359375,,
2.1236450000000184,1200,,,,-0.125,0.12109375,-0.98828125,0.015399492683053519,0.2878217886894234,15.120490375727329,0.20961445292935427,1072,0,3.1694733181316503,1.7287201081490777,54.542819409760114,0.16649415213755517,0.09081060472819798,0.0703125,,
2.1312000000000118,1200,,,,0,0.0390625,-0.9765625,0.015399492683053519,0.2878217886894234,15.120556215180377,0.20919210143926778,1072,0,3.1631009295841643,1.7286992759840252,54.652042867670616,0.16649615852102845,0.0909935519279373,0.068359375,,
2.138205000000016,1200,,,,-0.0625,0.046875,-0.96875,0.015399492683053519,0.2835824213721324,15.120532254868213,0.20935380040344997,1072,0,3.165540891679607,1.7286903070601345,54.60963437887884,0.16404466445722232,0.08958419147814772,0.068359375,,
2.1462350000000443,1200,,,,-0.0625,0.033203125,-0.955078125,0.015505486761120091,0.2835824213721324,15.12050622445251,0.21016776757136926,1072,0,3.1778430377421776,1.740584585080532,54.77251596155605,0.16292366587804283,0.08923739089820326,0.068359375,,
2.153244999999995,1200,,,,0,0.044921875,-0.99609375,0.015505486761120091,0.2835824213721324,15.120484557548554,0.21056573922768132,1071,0,3.183856008340951,1.7398013125643164,54.644472237640386,0.16299701542020134,0.08906885883947434,0.068359375,,
2.161280000000028,1200,,,,-0.125,0.05078125,-0.890625,0.015505486761120091,0.2835824213721324,15.120526575378511,0.21036116752015038,1071,0,3.1807716239160846,1.7390062587913044,54.67246518787427,0.16307153579150213,0.08915522863694093,0.0703125,,
2.171320000000007,1200,,,,-0.03125,0.064453125,-1.009765625,0.015505486761120091,0.2835824213721324,15.120500980162952,0.21143759231198384,1071,0,3.197042321796646,1.7386976369611142,54.38456742055313,0.16310048127043877,0.08870149119976843,0.0703125,,
2.1796600000000326,1200,,,,-0.0625,0.08203125,-0.9765625,0.015505486761120091,0.2835824213721324,15.120347824623241,0.21212790547985613,1071,0,3.2074477141642275,1.738560676887898,54.20386649516807,0.16311332997578074,0.08841373161589515,0.0703125,,
2.1894100000000325,1200,,,,-0.0625,0.10546875,-1,0.015505486761120091,0.2835824213721324,15.120478395007426,0.21083036669780797,1071,0,3.1878560046656985,1.7385177890382604,54.53564359537544,0.16311735385175946,0.08895709873880295,0.0703125,,
2.1975250000000233,1200,,,,-0.03125,0.0625,-1.015625,0.015505486761120091,0.2835824213721324,15.120452548085206,0.21199931694213206,1071,0,3.2055256120499838,1.739314200977183,54.259875336477634,0.16304266429424302,0.08846674639132801,0.0703125,,
2.2047850000000326,1200,,,,-0.03125,0.03515625,-0.98046875,0.015505486761120091,0.2835824213721324,15.120526716112524,0.2120443886357917,1072,0,3.2062228433692352,1.7399682871915354,54.26847640331521,0.16298137354552583,0.0884475082443527,0.0703125,,
2.2123349999999626,1200,,,,-0.0625,0.05078125,-0.96875,0.015505486761120091,0.2835824213721324,15.12050375992945,0.21179928974846976,1072,0,3.202511956992124,1.740217742636566,54.33914895577845,0.1629580106122139,0.08854999612194417,0.0703125,,
2.222110000000044,1200,,,,-0.03125,0.029296875,-0.998046875,0.015505486761120091,0.2835824213721324,15.120473053574125,0.21107394303405944,1072,0,3.1915378679581354,1.74034566608946,54.530002089647425,0.16294603244500236,0.08885447489725735,0.0703125,,
2.2305350000000326,1200,,,,-0.03125,0.01171875,-0.9765625,0.015505486761120091,0.2835824213721324,15.120449904567586,0.21212013912048228,1072,0,3.2073519373211594,1.740383158889115,54.26230712750269,0.16294252212434807,0.08841637179641276,0.0703125,,
2.238320000000065,1200,,,,-0.03125,0.03515625,-0.990234375,0.015505486761120091,0.2835824213721324,15.12042774030219,0.21012974169750098,1072,0,3.177251575425428,1.7398700850944526,54.760224168320306,0.1629905725729732,0.0892540029141889,0.0703125,,
2.2464250000000465,1200,,,,-0.0625,0,-0.8828125,0.015505486761120091,0.2835824213721324,15.12060232103003,0.21016102662150607,1071,0,3.1777613069231987,1.739669163976301,54.745117582814906,0.16300939698440017,0.08923968605014743,0.0703125,,
2.254395000000019,1200,,,,-0.03125,-0.005859375,-0.978515625,0.015505486761120091,0.2835824213721324,15.120770805630217,0.21062160202610203,1071,0,3.18476097095135,1.7395891160989474,54.622281922128,0.16301689792591362,0.08904354956580017,0.0703125,,
2.261405000000028,1200,,,,-0.0625,0.015625,-0.9765625,0.015505486761120091,0.2835824213721324,15.120794801804637,0.21081282534374626,1071,0,3.187657473611467,1.7395603498208634,54.571746312818945,0.16301959365844088,0.08896263909147263,0.0703125,,
2.2704800000000396,1200,,,,-0.03125,0.0546875,-0.9765625,0.015505486761120091,0.2835824213721324,15.120861405927318,0.21021115130053347,1071,0,3.1785736847957846,1.739545731194774,54.72724258416981,0.16302096362672755,0.0892168782270504,0.0703125,,
2.27847000000003,1200,,,,-0.03125,0.0234375,-0.974609375,0.015505486761120091,0.2835824213721324,15.12108083101845,0.20981259594342047,1071,0,3.1725932226262747,1.739435467279223,54.82693006068131,0.1630312976288245,0.08938505552797679,0.0703125,,
2.2874550000000164,1200,,,,-0.0625,0.015625,-0.9453125,0.015505486761120091,0.28183061981789015,15.121021821459523,0.20998348045245407,1071,0,3.1751647900675772,1.7393895487093018,54.781079525396294,0.16202846569189747,0.0887609426444578,0.0703125,,
2.2952850000000327,1200,,,,-0.03125,0.0390625,-0.984375,0.01564051760115763,0.28183061981789015,15.12110345240856,0.21077612291489464,1071,0,3.1871675598937044,1.754521283528992,55.04954636233519,0.16063106356340368,0.08842667180864802,0.0703125,,
2.3023649999999907,1200,,,,0,0.001953125,-0.99609375,0.01564051760115763,0.28183061981789015,15.12122922374105,0.21115270448737977,1071,0,3.192888445766525,1.7545155094468843,54.95073001292011,0.16063159219763065,0.08826823254397487,0.0703125,,
2.310570000000065,1200,,,,-0.0625,0.07421875,-0.92578125,0.01564051760115763,0.28183061981789015,15.120973291264844,0.2115589103006094,1071,0,3.1989766321846096,1.7545128327084267,54.846065927973164,0.1606318372621023,0.0881002433660872,0.0703125,,
2.318640000000014,1200,,,,0,0.037109375,-0.9921875,0.01564051760115763,0.28183061981789015,15.121120852720772,0.21067420004493717,1071,0,3.1856300394297667,1.7545117779395507,55.07581722369781,0.16063193382997068,0.08846935027908585,0.068359375,,
2.3297700000000185,1200,,,,-0.0625,0.1171875,-0.9921875,0.01564051760115763,0.28183061981789015,15.121261823368426,0.21110383022907706,1071,0,3.1921562888097923,1.7545113584729946,54.96320354437191,0.16063197223366854,0.08828847785613021,0.0703125,,
2.338780000000028,1200,,,,-0.041015625,0.044921875,-0.984375,0.01564051760115763,0.28183061981789015,15.121098982027366,0.20912557438739415,1071,0,3.162208509985114,1.7545111612150226,55.483727770477785,0.16063199029336392,0.08912461620667034,0.068359375,,
2.347075000000012,1200,,,,-0.03125,0.033203125,-0.98046875,0.01564051760115763,0.28183061981789015,15.121043324289133,0.2086592412776812,1071,0,3.155145427373117,1.7545111139803327,55.607931690207,0.1606319946178747,0.08932412983972475,0.068359375,,
2.355740000000049,1200,,,,-0.0625,0.09375,-1.0546875,0.01564051760115763,0.28183061981789015,15.12091987185881,0.21000938809776165,1072,0,3.175535129764353,1.7551137896274056,55.269859028693766,0.16057683637578857,0.0887505910976346,0.0703125,,
2.3625900000000257,1200,,,,-0.0625,0.041015625,-0.931640625,0.01564051760115763,0.28183061981789015,15.120874223836648,0.21047860780614383,1072,0,3.1826205554449434,1.7559241788850872,55.17227543449966,0.16050272739956042,0.08855300684076964,0.0703125,,
2.3715950000000303,1200,,,,-0.03125,0.0078125,-0.984375,0.01564051760115763,0.28183061981789015,15.121031279036414,0.21060226525229117,1072,0,3.1845234403158185,1.7562420956826514,55.14929089385129,0.16047367302646423,0.08850009274541254,0.0703125,,
2.3794349999999977,1200,,,,0,0,-0.94140625,0.01564051760115763,0.28183061981789015,15.121046002471484,0.21082146513282735,1072,0,3.18784107258192,1.7563631004123197,55.095692050601286,0.1604626171841849,0.08840798942013373,0.0703125,,
2.387,1200,,,,-0.03125,0.015625,-0.958984375,0.01564051760115763,0.28183061981789015,15.121060035795443,0.21039634979688637,1072,0,3.1814158365909373,1.7564111606195787,55.20847480603699,0.16045822648865066,0.08858653954520047,0.0703125,,
2.3945200000000186,1200,,,,-0.0625,0.009765625,-0.953125,0.01564051760115763,0.28183061981789015,15.120926406691865,0.21022295477277908,1072,0,3.178765828116505,1.7559638086802842,55.24042674514137,0.16049910506396103,0.08866039055946488,0.0703125,,
2.4025900000000258,1200,,,,-0.0625,0.12109375,-0.96484375,0.01564051760115763,0.28183061981789015,15.121012196487017,0.21260133130851425,1072,0,3.214747323705421,1.7555077022996142,54.60795283519077,0.16054080506095655,0.08766804710892272,0.0703125,,
2.4101900000000023,1200,,,,-0.03125,0.015625,-0.966796875,0.01564051760115763,0.28183061981789015,15.120962717412075,0.2132549304903608,1072,0,3.224619853249049,1.755329524842917,54.435239027455886,0.16055710100535733,0.08739964170782004,0.0703125,,
2.4185800000000164,1200,,,,-0.0625,0.0859375,-0.96875,0.01564051760115763,0.28183061981789015,15.120915612366613,0.213345699173303,1072,0,3.225982313460868,1.7552590152224015,54.410063189073746,0.16056355066330796,0.0873627293745263,0.068359375,,
2.437695000000007,1200,,,,-0.03125,0.0390625,-0.984375,0.01564051760115763,0.28109536316704514,15.121299317276966,0.21202833552679526,1072,0,3.206143925244701,1.7556216278953682,54.75804171084974,0.16011158594806166,0.08767396901734262,0.068359375,,
2.446645000000019,1200,,,,-0.0625,0.115234375,-0.966796875,0.015676510104393145,0.28109536316704514,15.121228716722639,0.21066197984629795,1072,0,3.1854679791734863,1.7600744935117647,55.253247090194904,0.15970651481130974,0.0882430352478317,0.068359375,,
2.4545200000000187,1200,,,,0,0.01953125,-1.015625,0.015676510104393145,0.28109536316704514,15.121233432978423,0.2106668147792891,1072,0,3.1855420828596595,1.7602093212974357,55.256194252417366,0.1596942816777337,0.08824098249385108,0.068359375,,
2.4625750000000117,1200,,,,-0.03125,0.0390625,-0.990234375,0.015676510104393145,0.28109536316704514,15.121172284041519,0.21207067431639703,1072,0,3.206757202731098,1.760269717509314,54.89251621576293,0.1596888024437413,0.08765720177618833,0.068359375,,
2.470484999999986,1200,,,,-0.0625,0.0703125,-0.986328125,0.015676510104393145,0.28109536316704514,15.121114961284404,0.21137044359698215,1072,0,3.196156777047648,1.7602932233346802,55.07530907043606,0.15968667006201454,0.08794792708094201,0.068359375,,
2.4815849999999626,1200,,,,0,0.03125,-0.97265625,0.015676510104393145,0.28109536316704514,15.121125654953422,0.21134113907746818,1072,0,3.1957159200513834,1.7594519937530229,55.0565831810461,0.1597630194885004,0.08796005971723715,0.068359375,,
2.498469999999972,1200,,,,-0.0625,0.037109375,-1.005859375,0.015676510104393145,0.28109536316704514,15.121150385811351,0.21230360876370383,1071,0,3.210274795566422,1.758959720742811,54.79156249091316,0.15980773172471407,0.08756115319325758,0.068359375,,
2.5068150000000022,1200,,,,-0.0625,0.12109375,-1,0.015676510104393145,0.28109536316704514,15.120945219593878,0.21245454408806222,1071,0,3.212513522809381,1.7589220153163314,54.7522057985964,0.15981115746993016,0.08750013382705513,0.0703125,,
2.514750000000058,1200,,,,-0.0625,0.044921875,-0.998046875,0.015676510104393145,0.28109536316704514,15.120725090871634,0.21247614914744475,1072,0,3.2127934396255515,1.759111541828485,54.75333459450502,0.15979393943084716,0.08749251031831246,0.0703125,,
2.522739999999991,1200,,,,-0.0625,0.033203125,-0.9453125,0.015676510104393145,0.28109536316704514,15.120592062243114,0.2140894367964558,1072,0,3.2371590386345885,1.7594092343732142,54.350410757554904,0.15976690225067777,0.08683396762786459,0.0703125,,
2.530515000000014,1200,,,,-0.0625,0.1171875,-1.03125,0.015676510104393145,0.28109536316704514,15.120434871377306,0.21696681096212955,1072,0,3.2806325344033116,1.7595262492784876,53.63374991946527,0.1597562771696707,0.08568328217782897,0.0703125,,
2.538375,1200,,,,-0.0625,0.021484375,-0.947265625,0.015676510104393145,0.28109536316704514,15.120413662953545,0.21677017216470754,1072,0,3.277654672920036,1.7595733049715452,53.68391366879279,0.15975200485983213,0.08576112837311795,0.0703125,,
2.5457850000000324,1200,,,,-0.0625,0.10546875,-0.98046875,0.015676510104393145,0.28109536316704514,15.120395848857102,0.2166986587711584,1072,0,3.276569500536325,1.7595906770000185,53.7022235210332,0.15975042766553724,0.08578953174075327,0.0703125,,
2.5529099999999745,1200,,,,-0.0625,0.041015625,-0.970703125,0.015676510104393145,0.28109536316704514,15.12037679501443,0.21714543904808947,1073,0,3.2833208577259523,1.7614347914981867,53.64796399210788,0.1595831787380331,0.08561312626684116,0.0703125,,
2.5615499999999884,1200,,,,0,0.11328125,-1,0.015676510104393145,0.28109536316704514,15.120358062811098,0.21618203215093232,1074,0,3.2687497328682373,1.763116098416453,53.93854661578411,0.15943100027247875,0.08599476440198185,0.0703125,,
2.5696500000000233,1200,,,,-0.09375,0.052734375,-0.96484375,0.015676510104393145,0.28109536316704514,15.120340522210835,0.21410477629739563,1074,0,3.237337125048397,1.7637685394740297,54.482078058140516,0.15937202465969266,0.08682919087793269,0.0703125,,
2.5772350000000444,1200,,,,0,0.09765625,-0.9765625,0.015676510104393145,0.28109536316704514,15.12038939724591,0.21394063148338335,1075,0,3.2348656559214444,1.764025997023019,54.53166173358566,0.15934876449747531,0.08689552923241128,0.0703125,,
2.5847500000000583,1200,,,,-0.0625,0.068359375,-0.9921875,0.015676510104393145,0.271137008516781,15.12037254049333,0.21446174665303067,1075,0,3.242741505078722,1.7641203422011726,54.40212670168867,0.15369530186272387,0.08361351285390192,0.0703125,,
2.592530000000028,1200,,,,0,-0.0234375,-0.947265625,0.015581648840545054,0.271137008516781,15.120550468465597,0.21342862460952985,1075,0,3.2271582898235947,1.7534357781674834,54.33373949138798,0.1546318444580539,0.08401726353856727,0.0703125,,
2.6005400000000374,1200,,,,-0.0625,0.0234375,-1.00390625,0.015581648840545054,0.271137008516781,15.12042604345878,0.21181611234686035,1075,0,3.202749861553658,1.7533789151657808,54.74604608413641,0.15463685925021242,0.08465756622818245,0.0703125,,
2.6085500000000468,1200,,,,-0.0625,0.04296875,-0.951171875,0.015581648840545054,0.271137008516781,15.120339856967275,0.2119774696822341,1075,0,3.2051713836153564,1.753356342758549,54.703980939103644,0.15463885001847494,0.0845936070385556,0.0703125,,
2.616484999999986,1200,,,,-0.0625,0.1015625,-1.0390625,0.015581648840545054,0.271137008516781,15.120388349128353,0.21128307075339642,1075,0,3.194682081387717,1.7533474539737828,54.883315751161,0.15463963397686903,0.08487135859196468,0.0703125,,
2.6231150000000487,1200,,,,-0.03125,-0.013671875,-0.9609375,0.015581648840545054,0.271137008516781,15.12045742522228,0.20995946589223155,1075,0,3.174683165045897,1.7533441803872474,55.22895007892541,0.15463992269726362,0.08540600570856056,0.0703125,,
2.6314650000000257,1200,,,,-0.03125,0.05859375,-0.966796875,0.015581648840545054,0.271137008516781,15.120437850441707,0.20924990783752906,1074,0,3.163950226668013,1.7525537048842994,55.391317161456456,0.15470967181269976,0.0856957249932209,0.0703125,,
2.6381900000000025,1200,,,,-0.0625,0.0703125,-0.99609375,0.015581648840545054,0.271137008516781,15.120346546030964,0.20977602713115542,1073,0,3.1718862272726636,1.751297391187385,55.21312133232574,0.1548206546079243,0.08548131587617418,0.0703125,,
2.6486550000000277,1200,,,,-0.03125,0.0703125,-0.99609375,0.015581648840545054,0.271137008516781,15.120483094975132,0.21008959498547589,1073,0,3.1766561694080604,1.7507909916275373,55.114274200905434,0.15486543500245664,0.08535296048967893,0.0703125,,
2.656440000000002,1200,,,,0,0.07421875,-0.990234375,0.015581648840545054,0.271137008516781,15.120459386178718,0.2079879888461801,1073,0,3.1448739381616586,1.7506343384209517,55.66628020213389,0.1548792929318083,0.08621554117850415,0.0703125,,
2.6650100000000094,1200,,,,-0.0625,0.03515625,-0.96484375,0.015581648840545054,0.271137008516781,15.12050225736067,0.20812434312329578,1073,0,3.1469446000075005,1.7505727620514835,55.62769557644298,0.15488474080850972,0.08615881211132054,0.0703125,,
2.67272000000003,1200,,,,-0.03125,0.080078125,-1.021484375,0.015581648840545054,0.271137008516781,15.120776168509073,0.20868860017153418,1073,0,3.1555336121132522,1.7500671284905032,55.460259455721285,0.15492949047654334,0.08592429739171795,0.0703125,,
2.6806300000000047,1200,,,,-0.0625,0.052734375,-1.00390625,0.015581648840545054,0.271137008516781,15.12083596682183,0.20921414729426616,1072,0,3.1634928031750995,1.7493961392671191,55.299513800420364,0.15498891442070373,0.08570811611919875,0.0703125,,
2.6888450000000303,1200,,,,-0.0625,0.05078125,-0.98046875,0.015581648840545054,0.271137008516781,15.120664912183418,0.20780645676664417,1072,0,3.1421717993565568,1.7491304328261068,55.666288940161955,0.15501245843553202,0.0862896830059717,0.0703125,,
2.6975750000000116,1200,,,,-0.0625,0.068359375,-1.0078125,0.015581648840545054,0.271137008516781,15.120701534123052,0.20927508293719707,1072,0,3.1643860676222046,1.7490190561462768,55.27198700696251,0.1550223295532263,0.08568392184854987,0.072265625,,
2.705984999999986,1200,,,,-0.03125,-0.0078125,-0.97265625,0.015581648840545054,0.271137008516781,15.120568285243548,0.2120257853930697,1072,0,3.2059503662683047,1.7489810380136592,54.55421445121923,0.15502569932073984,0.08457305246193872,0.072265625,,
2.714885000000009,1200,,,,-0.125,0.1015625,-0.9921875,0.015581648840545054,0.271137008516781,15.120387037946374,0.2147550691882007,1072,0,3.2471797644865465,1.7493431911229484,53.87269316762202,0.1549936055387343,0.08349922954131674,0.072265625,,
2.7239400000000025,1200,,,,0,0.0390625,-0.98828125,0.015581648840545054,0.271137008516781,15.120294008626662,0.21430462859562607,1072,0,3.2403489917754067,1.7496542535679618,53.99585840935348,0.15496604998608615,0.08367524893305502,0.072265625,,
2.731690000000002,1200,,,,-0.0625,0.072265625,-1.005859375,0.015581648840545054,0.2669112594140077,15.120279513744308,0.21370300795087396,1072,0,3.2312492131451362,1.7497619856432172,54.151254521779414,0.15254146655603013,0.08260311780601087,0.072265625,,
2.7390450000000417,1200,,,,0,0.015625,-1,0.015581648840545054,0.2669112594140077,15.120267081070052,0.2130876525764212,1072,0,3.2219422186337536,1.7498021013402012,54.30892246361248,0.15253796941355602,0.08284172753637707,0.072265625,,
2.7466600000000327,1200,,,,-0.03125,0.021484375,-0.9609375,0.015652878854331895,0.2669112594140077,15.120160550904108,0.21308072146301898,1072,0,3.221814718823326,1.7578187952119355,54.55989709594249,0.15184230601074378,0.0828450059075679,0.072265625,,
2.7546650000000374,1200,,,,-0.0625,0.05859375,-0.974609375,0.015652878854331895,0.2669112594140077,15.119954202121793,0.21210480157368725,1074,0,3.2070148858442815,1.7606238695073806,54.8991486531213,0.15160038667923373,0.08322732164173924,0.072265625,,0.29078999999992083,2299,
2.7611900000000023,1200,,,,0,0.0234375,-0.984375,0.015652878854331895,0.2669112594140077,15.120012115403542,0.21259561507510846,1075,0,3.2144482756173076,1.7628973413365374,54.84292140298906,0.15140487943084044,0.0830348590265462,0.0703125,,
2.771015000000014,1500,,,,-0.0625,0.0625,-0.96875,0.015652878854331895,0.2669112594140077,15.119791412478891,0.21297280473232214,1076,0,3.220104384083308,1.764067080617601,54.7829160240031,0.15130448402254737,0.08288900842262334,0.072265625,,
2.7798150000000605,1500,,,,0,0.00390625,-0.95703125,0.015652878854331895,0.2669112594140077,15.119920163646993,0.21448788567371666,1076,0,3.2430397074560395,1.764497258448359,54.408746658007956,0.15126759655536143,0.08230280338546417,0.0703125,,
2.7914249999999883,1500,,,,-0.03125,0.017578125,-0.998046875,0.015652878854331895,0.2669112594140077,15.12006460181075,0.21360811042932945,1077,0,3.2297684291621858,1.764636797316817,54.63663528888263,0.1512556350518442,0.08264098967715944,0.072265625,,
2.7996100000000443,1500,,,,-0.08203125,0.029296875,-1.009765625,0.015652878854331895,0.2669112594140077,15.119971631492744,0.21399675223084988,1076,0,3.235624822962032,1.764447000807019,54.53187861229743,0.15127190518725037,0.08249141171122103,0.072265625,,
2.808570000000007,1500,,,,-0.0625,-0.296875,-1.55859375,0.015652878854331895,0.2669112594140077,15.106280728037204,0.6113428458947954,1076,0,9.235116651163965,1.7643970538683516,19.105303381803765,0.1512761874255107,0.028901774552069895,0.078125,,
2.818234999999986,1500,,,,-0.15625,0.173828125,-1.259765625,0.015652878854331895,0.2669112594140077,15.09238364699808,1.0076965640136923,1076,0,15.208543143856405,1.7643755857300605,11.601213666825098,0.1512780280869538,0.01755008726932719,0.08203125,,
2.825515000000014,1500,,,,0.03125,0.162109375,-1.021484375,0.015652878854331895,0.2669112594140077,15.083499355364074,1.2449363881051039,1178,0,18.777997207452614,1.931568663280726,10.286340134900675,0.13818367655678615,0.01421404298154203,0.0859375,,
2.834085000000021,1500,,,,0.09375,-0.068359375,-0.970703125,0.015652878854331895,0.2669112594140077,15.07638466514986,1.4535777708637694,1271,0,21.91469761425325,2.083438524768738,9.507037520853933,0.12811093595556644,0.012179554749612855,0.08984375,,
2.841789999999979,1500,,,,0,0.0234375,-0.6953125,0.015652878854331895,0.2669112594140077,15.07057420670389,1.6137706013174682,1307,0,24.320449599752063,2.1419098653042252,8.807032355709662,0.12461367480377006,0.010974766659606849,0.091796875,,
2.8498850000000093,1500,,,,0.03125,0.201171875,-1.0625,0.015652878854331895,0.2669112594140077,15.06579339003904,1.7402525220665002,1640,0,26.218284943948248,2.688844236575819,10.2556068878047,0.0992661664008894,0.010180347798669286,0.09375,,
2.857740000000049,1500,,,,0.0625,0.08203125,-0.83203125,0.015652878854331895,0.2669112594140077,15.062328513616569,1.8445538954865552,1769,0,27.783276734889657,2.899170195775674,10.43494697706033,0.09206470865453811,0.009606903532686124,0.09375,,
2.8657550000000045,1500,,,,-0.09375,-0.01171875,-0.96875,0.015652878854331895,0.2669112594140077,15.0598678232223,1.9196399712220087,1820,0,28.90952423477771,2.9827595657127697,10.317567115561715,0.08948467133663376,0.009232641023297005,0.09375,,
2.873890000000014,1500,,,,0.0625,0.01171875,-1.046875,0.015652878854331895,0.2669112594140077,15.057516011412174,1.9829655253019642,1990,0,29.85853514731268,3.2613598741401226,10.922705544828615,0.08184048057081723,0.008939194709223039,0.09765625,,
2.8822449999999953,1500,,,,-0.25,0.26953125,-1.041015625,0.015652878854331895,0.29017682312657034,15.055544470679479,2.0374054534233035,2060,0,30.674248408819434,3.376943371144165,11.009050087020972,0.08592883896310453,0.00945994892064377,0.1015625,,
2.889405000000028,1500,,,,0.0625,0.27734375,-0.77734375,0.015652878854331895,0.29017682312657034,15.05461694729062,2.0675889035126467,2161,0,31.12675894685152,3.5416713063441283,11.37822062486968,0.08193217213770856,0.009322423308576487,0.10546875,,
2.8970950000000304,1500,,,,-0.25,0.4375,-1.09375,0.016724849094824402,0.29017682312657034,15.053709536715354,2.090015465815369,2208,0,31.462485749627405,3.8667150632513123,12.289922334878147,0.07504479083146516,0.009222946509558825,0.109375,,
2.909615000000049,1500,,,,-0.1875,-0.16796875,-1.05078125,0.016724849094824402,0.29017682312657034,15.052671788239913,2.1174574805358826,2273,0,31.873392480060044,3.980880307324605,12.48966613709237,0.07289262693798168,0.009104045743110169,0.11328125,,
2.916820000000007,1500,,,,0.09375,-0.173828125,-0.96484375,0.016724849094824402,0.29017682312657034,15.052215817769914,2.125513770348357,2318,0,31.993691994925307,4.059532164432176,12.688539244161257,0.07148036063588095,0.00906981361115175,0.115234375,,
2.9248150000000024,1500,,,,-0.0625,0.095703125,-0.833984375,0.016724849094824402,0.29017682312657034,15.05220526963563,2.1310214108047663,2377,0,32.076571709421856,4.163527453540638,12.979963978873979,0.06969494650018597,0.00904637895081963,0.1171875,,
2.9328700000000536,1500,,,,-0.03125,0.064453125,-0.984375,0.016724849094824402,0.29017682312657034,15.052129956916588,2.132311980179924,2401,0,32.09583703435836,4.204445725593433,13.099660622941862,0.06901666523132809,0.009040948918575894,0.119140625,,
2.943390000000014,1500,,,,-0.03125,-0.03125,-0.86328125,0.016724849094824402,0.29017682312657034,15.05202580808766,2.1304585371817155,2418,0,32.067716884719864,4.2346811797299395,13.205433972593628,0.06852388900386497,0.009048876917858733,0.119140625,,
2.9510299999999696,1500,,,,-0.1875,0.3671875,-1.046875,0.016724849094824402,0.29017682312657034,15.052208558418185,2.127247803643705,2443,0,32.01977759588206,4.279464262295854,13.36506554263581,0.06780681069898589,0.009062424692290455,0.12109375,,
2.958484999999986,1500,,,,0,0.03515625,-1.01171875,0.016724849094824402,0.29017682312657034,15.052198410117535,2.1259625489093628,2462,0,32.00041009866293,4.31135567687562,13.472813828269533,0.06730523874032528,0.009067909512156368,0.12109375,,
2.9659050000000278,1500,,,,0,-0.0234375,-0.9609375,0.016724849094824402,0.29017682312657034,15.052528676337959,2.1204947374730345,2473,0,31.918807843836582,4.331696081368373,13.570983297876552,0.06698919261087775,0.009091092140604572,0.12109375,,
2.9731550000000277,1500,,,,-0.09375,0.01171875,-0.951171875,0.016724849094824402,0.29017682312657034,15.052853046263467,2.1148380035602434,2485,0,31.83434568424556,4.351754698850322,13.669998881126538,0.06668041817780568,0.009115212418836534,0.123046875,,
2.980875,1500,,,,-0.09375,0.0625,-0.99609375,0.016724849094824402,0.29017682312657034,15.053398446577422,2.106360731836468,2497,0,31.707887368558765,4.372736500266986,13.790690150498481,0.06636046400437187,0.009151565973276,0.123046875,,
2.9890800000000164,1500,,,,0.0625,-0.03125,-0.96484375,0.016724849094824402,0.29017682312657034,15.053722423403439,2.0984233078238588,2501,0,31.58908200278044,4.381043488815649,13.86885344889109,0.06623463653519115,0.009185984673471335,0.123046875,,
2.9974749999999766,1500,,,,-0.09375,0.056640625,-0.96484375,0.016724849094824402,0.29017682312657034,15.054208536387986,2.088660441036025,2510,0,31.443129841060422,4.396318888678868,13.981810687744826,0.06600449841657663,0.009228624014001275,0.123046875,,
3.0053049999999932,1500,,,,-0.0625,0.072265625,-0.90625,0.016724849094824402,0.29017682312657034,15.054285639831257,2.079520044889633,2513,0,31.305688749523252,4.401199497205158,14.058785073917862,0.06593130425258793,0.009269140361302206,0.123046875,,
3.012685000000056,1500,,,,-0.125,-0.12890625,-1.06640625,0.016724849094824402,0.29017682312657034,15.054769893961579,2.0683713576646072,2520,0,31.138854844901566,4.414286330475934,14.176135739297091,0.0657358407231559,0.009318802010282713,0.125,,
3.0211149999999907,1500,,,,-0.03125,0.078125,-0.912109375,0.016724849094824402,0.29017682312657034,15.055225649167816,2.058087541525579,2523,0,30.984972343408632,4.419358914349098,14.262910630898848,0.06566038847498967,0.009365082528088783,0.125,,
3.0290650000000023,1500,,,,-0.125,0.10546875,-1.12109375,0.016724849094824402,0.8550940993501428,15.055652568523232,2.0463415923892585,2529,0,30.80900805153126,4.430161646599227,14.379436167465443,0.19301645573283946,0.027754678044807846,0.125,,
3.037805000000051,1500,,,,-0.09375,-0.037109375,-0.904296875,0.016724849094824402,0.8550940993501428,15.0562204484956,2.034684645356098,2532,0,30.634660563650495,4.434722019897546,14.47615850250209,0.19281797044178606,0.02791263502246058,0.126953125,,
3.045929999999993,1500,,,,-0.03125,0.13671875,-0.990234375,0.034446620605996243,0.8550940993501428,15.056796079935566,2.02297137107999,2534,0,30.45946740989907,9.141322551221073,30.01143266296974,0.09354161769906277,0.02807317960760681,0.12890625,,
3.053820000000007,1500,,,,-0.0625,0.0390625,-0.9921875,0.034446620605996243,0.8550940993501428,15.057217113704555,2.011300300330319,2536,0,30.284585302932793,9.146508550420785,30.201861636636075,0.09348858032946399,0.02823529167716008,0.12890625,,
3.0619700000000303,1500,,,,-0.09375,-0.009765625,-0.9375,0.034446620605996243,0.8550940993501428,15.057749195421446,2.001595911054841,2537,0,30.139529219244885,9.152937102214183,30.36854701887577,0.09342291876377991,0.028371183011184617,0.12890625,,
3.0702300000000395,1500,,,,0.03125,0.091796875,-1.03515625,0.034446620605996243,0.8550940993501428,15.057993503072165,1.9939152912155391,2539,0,30.024363500799833,9.157672966955857,30.5008063425288,0.09337460536488107,0.02848000755544288,0.12890625,,
3.0778600000000442,1500,,,,-0.1875,0.1015625,-0.99609375,0.034446620605996243,0.8550940993501428,15.058278752028448,1.9867349093657003,2540,0,29.91680807161469,9.16077126521362,30.620817713188575,0.09334302479499829,0.02858239747045284,0.12890625,,
3.085914999999979,1500,,,,-0.0625,-0.009765625,-0.921875,0.034446620605996243,0.8550940993501428,15.058761642352831,1.981090531158967,2540,0,29.83277010064505,9.16205506001789,30.71137889343969,0.09332994549243336,0.028662913181221942,0.130859375,,
3.096070000000007,1500,,,,0.125,0.03515625,-1.08203125,0.034446620605996243,0.8550940993501428,15.058953213831575,1.973878451655291,2541,0,29.72454325326734,9.164526697788792,30.831513943553773,0.09330477476337748,0.02876727464117217,0.130859375,,
3.1056900000000605,1500,,,,-0.03125,0,-0.94921875,0.034446620605996243,0.8550940993501428,15.05956962823057,1.9622808696619325,2542,0,29.55110538681871,9.16796122310057,31.024088957396312,0.09326982068767446,0.028936112140548156,0.130859375,,
3.113880000000005,1500,,,,-0.0625,0.06640625,-0.962890625,0.034446620605996243,0.8550940993501428,15.059946961510509,1.953387718759305,2542,0,29.41791543978114,9.170700574434905,31.173862720516176,0.09324196035075907,0.029067120717663757,0.130859375,,
3.122145000000019,1500,,,,0,0.056640625,-0.982421875,0.034446620605996243,0.8550940993501428,15.060147602468907,1.944580991213545,2543,0,29.285676752631282,9.172557166045676,31.32096704994715,0.09322308750666278,0.029198372520905246,0.130859375,,
3.130984999999986,1500,,,,-0.03125,-0.037109375,-0.974609375,0.034446620605996243,0.8550940993501428,15.060504865174664,1.9361465049546296,2543,0,29.15934385756012,9.174253229394562,31.46248171498537,0.09320585315984058,0.029324874507710957,0.130859375,,
3.139065000000002,1500,,,,-0.03125,0.103515625,-0.9921875,0.034446620605996243,0.8550940993501428,15.060677060363272,1.929838498336847,2544,0,29.064674402107656,9.175270382686444,31.568460928711072,0.09319552053350806,0.029420391486929397,0.130859375,,
3.1469100000000325,1500,,,,-0.0625,0.05078125,-0.94921875,0.034446620605996243,0.8550940993501428,15.060841917728487,1.9248673313963154,2543,0,28.990122590759796,9.174345405980153,31.64645260556556,0.0932049167009521,0.029496049789823665,0.130859375,,
3.1549650000000256,1500,,,,-0.09375,0.01171875,-1.01171875,0.034446620605996243,0.8550940993501428,15.060866224820439,1.9205919015701234,2543,0,28.925777702021133,9.173984612480321,31.71560228038158,0.09320858225409161,0.029561663238890024,0.130859375,,
3.162905000000028,1500,,,,0.0625,0.18359375,-0.8984375,0.034446620605996243,0.8550940993501428,15.060824668497718,1.9164399374284673,2543,0,28.86316588531688,9.174714622036289,31.78693099187571,0.0932011658756486,0.029625790280516033,0.130859375,,
3.170765000000014,1500,,,,-0.0625,0.0546875,-1.02734375,0.034446620605996243,0.8550940993501428,15.06084955473327,1.9134718732065736,2544,0,28.818512009577862,9.175449243264692,31.838733520367818,0.09319370383720788,0.02967169502248941,0.130859375,,
3.179859999999986,1500,,,,-0.09375,-0.048828125,-0.96875,0.034446620605996243,0.8550940993501428,15.061004302928957,1.910528515816153,2545,0,28.774478197575554,9.179263906108174,31.900713691765887,0.09315497496276755,0.029717101852508667,0.130859375,,
3.188005000000005,1500,,,,0.0625,0.234375,-0.92578125,0.034446620605996243,1.3709516341460692,15.061241404241951,1.9058645270973644,2546,0,28.704685726394832,9.182714629814095,31.990298438872333,0.14929698780956502,0.04776055196052669,0.1328125,,
3.1960900000000256,1500,,,,-0.09375,0.05078125,-1.01171875,0.062286252994383354,1.3709516341460692,15.061279051779422,1.9019780323856366,2546,0,28.646221896114433,16.607487897563274,57.97444409175616,0.08255021124219644,0.04785802606423379,0.1328125,,
3.2040550000000514,1500,,,,-0.0625,0.021484375,-1.021484375,0.062286252994383354,1.3709516341460692,15.061416689387155,1.896570507157595,2547,0,28.56503868910286,16.610019653927356,58.14807336586536,0.08253762865487727,0.04799404086468355,0.1328125,,
3.2117300000000397,1500,,,,-0.125,0.146484375,-0.927734375,0.062286252994383354,1.3709516341460692,15.061412790936515,1.8917973305590827,2546,0,28.493140512342123,16.60473295573551,58.27624704459301,0.08256390739921675,0.048115146645636556,0.1328125,,
3.219820000000007,1500,,,,0,0.05859375,-0.95703125,0.062286252994383354,1.3709516341460692,15.061474754586433,1.8865883439419677,2545,0,28.414802714578972,16.59931934286144,58.417858851945205,0.08259083434861737,0.04824779703441917,0.1328125,,
3.2271750000000465,1500,,,,-0.0625,-0.0390625,-0.96484375,0.062286252994383354,1.3709516341460692,15.061584657446579,1.8814698441449698,2545,0,28.337917338022283,16.60031687729914,58.57987614010622,0.08258587135892807,0.04837870115128752,0.1328125,,
3.2353099999999975,1500,,,,0.0625,0.0859375,-0.9765625,0.062286252994383354,1.3709516341460692,15.061900472445648,1.8774283086801002,2545,0,28.277638329491637,16.602375326995727,58.71202939066021,0.08257563192881684,0.04848182928757034,0.1328125,,
3.243170000000042,1500,,,,-0.0625,0.068359375,-0.982421875,0.062286252994383354,1.3709516341460692,15.062100591548765,1.8772168942815075,2545,0,28.27482969382283,16.603181296811094,58.72071194274381,0.08257162345202979,0.048486645153713495,0.1328125,,
3.253489999999991,1500,,,,-0.1875,-0.01171875,-0.85546875,0.062286252994383354,1.3709516341460692,15.062394532594961,1.8760385984653931,2545,0,28.25763352846225,16.598689271641735,58.74054971702727,0.08259396942192844,0.048516151671554174,0.1328125,,
3.261445000000007,1500,,,,0.03125,0.0390625,-1.009765625,0.062286252994383354,1.3709516341460692,15.062558937713515,1.8735940074057462,2545,0,28.221120161895904,16.600324756209307,58.82234532498476,0.08258583216170325,0.048578923383669405,0.1328125,,
3.2695650000000023,1500,,,,-0.0625,0.046875,-0.990234375,0.062286252994383354,1.3709516341460692,15.06271714091557,1.8702795493936943,2546,0,28.17149182695625,16.606919429990793,58.94937879754117,0.0825530369991582,0.048664502489508085,0.1328125,,
3.2780350000000325,1500,,,,-0.0625,-0.01953125,-0.951171875,0.062286252994383354,1.3709516341460692,15.062677801967054,1.8654428713610032,2546,0,28.098564929287065,16.60486672783165,59.09507040526627,0.08256324224802106,0.048790806135338594,0.1328125,,
3.294045000000042,1500,,,,0.0625,-0.2265625,-1.01171875,0.062286252994383354,1.3709516341460692,15.062866626198186,1.8597438205787975,2545,0,28.013073128274677,16.597226988240497,59.24814786382103,0.08260124628755265,0.04893970853780818,0.134765625,,
3.301780000000028,1500,,,,-0.0625,0.052734375,-0.955078125,0.062286252994383354,1.3709516341460692,15.063020435448525,1.8578431949164833,2546,0,27.984730010885965,16.60593438703982,59.33926959659846,0.08255793394053362,0.0489892749943549,0.134765625,,
3.309015000000014,1500,,,,0,0.07421875,-1.015625,0.062286252994383354,1.3709516341460692,15.06294827185096,1.8555264213792784,2546,0,27.949698502288797,16.609113662843765,59.425019062311705,0.0825421309032898,0.049050677023718244,0.1328125,,
3.317195000000007,1500,,,,-0.09375,0.048828125,-0.96484375,0.062286252994383354,1.3709516341460692,15.063000030475905,1.8525475960930609,2547,0,27.90492449640784,16.613018680511964,59.534361695372205,0.08252272874130186,0.049129379809737514,0.134765625,,
3.325820000000007,1500,,,,0.0625,0,-0.8984375,0.062286252994383354,1.3709516341460692,15.062918797852864,1.8522795186237566,2547,0,27.900735979955638,16.614548409129917,59.54878187108071,0.08251513073883568,0.04913675521430632,0.134765625,,
3.334335000000021,1500,,,,-0.03125,0.072265625,-1.021484375,0.062286252994383354,1.5666160253977646,15.062979537336615,1.854178544099382,2545,0,27.929453468337588,16.599860572050503,59.43496384871636,0.0943752520449181,0.05609189693503202,0.134765625,,
3.342284999999974,1500,,,,-0.09375,-0.09765625,-0.921875,0.07308831040891042,1.5666160253977646,15.063095444434756,1.8544688053771852,2544,0,27.934040614123443,19.473028985470048,69.71074916968686,0.080450556847972,0.05608268588990609,0.134765625,,
3.3501450000000186,1500,,,,0.125,0.12890625,-0.92578125,0.07308831040891042,1.5666160253977646,15.063139291557532,1.854425054322056,2545,0,27.93346289900727,19.47637710617269,69.72417697221802,0.08043672685415675,0.05608384578245187,0.134765625,,
3.3579000000000234,1500,,,,-0.0625,0.1484375,-1.0546875,0.07308831040891042,1.5666160253977646,15.063083464904945,1.8534256223981012,2545,0,27.918304846175996,19.477720532264424,69.76684522782661,0.0804311789360926,0.05611429612326001,0.134765625,,
3.365044999999984,1500,,,,0,0.04296875,-0.921875,0.07308831040891042,1.5666160253977646,15.063180504815438,1.8529641606239031,2546,0,27.91153362043168,19.48343223472031,69.80423397608698,0.08040759998158784,0.05612790922570364,0.134765625,,
3.372055000000051,1500,,,,-0.0625,-0.08984375,-0.9140625,0.07308831040891042,1.5666160253977646,15.063043922278231,1.8527101026797688,2546,0,27.90745365191397,19.48592053501459,69.82335535896588,0.08039733214464696,0.05613611492248494,0.134765625,,
3.379320000000007,1500,,,,-0.0625,0.10546875,-1.0703125,0.07308831040891042,1.5666160253977646,15.063261198356681,1.852177204770752,2547,0,27.899829021104008,19.49492982608116,69.87472866351544,0.08036017771666343,0.05615145613303737,0.13671875,,
3.3872899999999793,1500,,,,0,0.06640625,-0.91796875,0.07308831040891042,1.5666160253977646,15.063297150808967,1.8525614949719067,2548,0,27.905684288908724,19.499045833199435,69.87481701335467,0.0803432146782493,0.05613967423907341,0.134765625,,
3.3954300000000512,1500,,,,-0.03125,-0.044921875,-0.982421875,0.07308831040891042,1.5666160253977646,15.063331904827873,1.8516467647905988,2547,0,27.891969788541537,19.497877454523703,69.90498556517775,0.08034802911505087,0.05616727815478114,0.134765625,,
3.406375,1500,,,,-0.25,0.27734375,-1.0625,0.07308831040891042,1.5666160253977646,15.063295700255047,1.8511595100186988,2547,0,27.884563087750905,19.49147030510939,69.9005763288132,0.08037444076176747,0.05618219731353602,0.13671875,,
3.414460000000021,1500,,,,-0.03125,0.02734375,-0.955078125,0.07308831040891042,1.5666160253977646,15.06360303211954,1.8517419029330362,2547,0,27.89390494372489,19.49646658483197,69.89507788230262,0.0803538435326827,0.05616338151859215,0.13671875,,
3.427974999999977,1500,,,,0,0.013671875,-1.017578125,0.07308831040891042,1.5666160253977646,15.063962375391283,1.848167098916277,2550,0,27.840719641510855,19.514393038106874,70.09299073221756,0.08028002830211238,0.05627067279762125,0.13671875,,
3.4458250000000117,1500,,,,-0.0625,0.11328125,-1,0.07308831040891042,1.5666160253977646,15.06411046598734,1.8415053870484261,2549,0,27.740640574208264,19.50828987365236,70.32386228236598,0.08030514389237244,0.05647367879652782,0.138671875,,
3.4636200000000534,1500,,,,-0.09375,-0.001953125,-0.943359375,0.07308831040891042,1.5666160253977646,15.064236984558395,1.8366749238654523,2547,0,27.66810631670492,19.49237360101722,70.4506964730307,0.08037071613053885,0.056621729274327064,0.142578125,,
3.4709799999999813,1500,,,,-0.0625,0.16015625,-0.94921875,0.07308831040891042,1.5666160253977646,15.06422617615976,1.8377434649117703,2547,0,27.684183209190426,19.49513890396049,70.4197727512821,0.08035931588461277,0.05658884763042924,0.142578125,,
3.479039999999979,1500,,,,-0.0625,0.01171875,-0.978515625,0.07308831040891042,1.6746804005807598,15.064114421352267,1.8401707038899608,2548,0,27.72054203821871,19.502040880993594,70.35230715945544,0.08587205876554588,0.06041297454688491,0.142578125,,
3.4858000000000464,1500,,,,0,0.0390625,-0.93359375,0.07308831040891042,1.6746804005807598,15.064028236324559,1.8401859441994164,2549,0,27.72061302350758,19.50948215779079,70.37897084471544,0.08583930557644269,0.06041281984495079,0.142578125,,
3.493390000000014,1500,,,,-0.0625,0.08984375,-1.037109375,0.0771289321083937,1.6746804005807598,15.0641212689876,1.839281754759024,2549,0,27.70716340152625,20.59192465220184,74.31985856432901,0.08132704586220846,0.06044214545934031,0.142578125,,
3.5096650000000373,1500,,,,0.03125,-0.0859375,-0.935546875,0.0771289321083937,1.6746804005807598,15.063981377922739,1.8358598518706999,2550,0,27.65535862105622,20.594119009488438,74.46701122801026,0.08131838025259423,0.060555367353135416,0.142578125,,
3.517170000000042,1500,,,,-0.125,0.05859375,-1.03515625,0.0771289321083937,1.6746804005807598,15.064083483569428,1.8333015840562852,2550,0,27.617008112783957,20.594407364339958,74.57146436802752,0.08131724166438196,0.060639457892817425,0.142578125,,
3.5260250000000233,1500,,,,-0.0625,0.158203125,-1.068359375,0.0771289321083937,1.6746804005807598,15.063860683858962,1.8290752300090418,2550,0,27.552934445153493,20.594522763670184,74.74529729189233,0.08131678601142357,0.06078047345245047,0.14453125,,
3.533780000000028,1500,,,,0,-0.05859375,-0.9453125,0.0771289321083937,1.6746804005807598,15.063932559177456,1.8286820031307673,2551,0,27.547142367343415,20.600483789251818,74.78265264157955,0.08129325591151965,0.06079325318934207,0.14453125,,
3.5418850000000095,1500,,,,0,0.099609375,-1.03515625,0.0771289321083937,1.6746804005807598,15.063935895245555,1.8286256377111096,2551,0,27.54629938288268,20.605803193179742,74.80425194966199,0.08127226999503992,0.0607951136122992,0.14453125,,
3.549914999999979,1500,,,,-0.25,0.078125,-0.9296875,0.0771289321083937,1.6746804005807598,15.063938681919012,1.8273539152929166,2549,0,27.527147330137122,20.588379621965945,74.79300116007839,0.08134104923896132,0.06083741190091628,0.146484375,,
3.5604650000000255,1500,,,,0.03125,-0.044921875,-0.951171875,0.0771289321083937,1.6746804005807598,15.063830355111337,1.8313655369981312,2548,0,27.58737976753722,20.57973068624386,74.59835207133574,0.0813752340160685,0.06070458357018014,0.14453125,,
3.569485000000044,1500,,,,-0.03125,0.09375,-1.0078125,0.0771289321083937,1.6746804005807598,15.064017238465354,1.8326850037778646,2548,0,27.607598489586696,20.57644241673802,74.53180842404399,0.0813882383875301,0.06066012591469817,0.146484375,,
3.577085000000021,1500,,,,-0.125,-0.0390625,-0.9453125,0.0771289321083937,1.6746804005807598,15.063949973116943,1.8342657952584918,2547,0,27.631288177173484,20.575563041967847,74.46472603823644,0.08139171682276324,0.06060811894988784,0.1484375,,
3.585100000000035,1500,,,,0.125,0.01171875,-0.859375,0.0771289321083937,1.6746804005807598,15.06382259897073,1.8344658105954035,2547,0,27.6340675346862,20.57227495476147,74.44533791103757,0.0814047257419702,0.0606020231541631,0.1484375,,
3.5929250000000468,1500,,,,-0.0625,0.138671875,-1.052734375,0.0771289321083937,1.6746804005807598,15.06363298077325,1.8328284955099325,2547,0,27.609055773064437,20.57095658020659,74.50800472602812,0.08140994289940509,0.06065692410294554,0.1484375,,
3.600045000000042,1500,,,,-0.25,0.03515625,-0.921875,0.0771289321083937,1.6746804005807598,15.063536270656368,1.834156115417573,2547,0,27.6288771706388,20.570487309058425,74.45285301321863,0.08141180009106042,0.060613407857212614,0.150390625,,
3.607265000000014,1500,,,,0,0.03125,-0.966796875,0.0771289321083937,1.6746804005807598,15.06355629591116,1.8352735651222796,2547,0,27.645746666617036,20.570275589096614,74.40665588510134,0.08141263802359719,0.06057642142120113,0.150390625,,
3.6144349999999976,1500,,,,-0.125,0.06640625,-0.99609375,0.0771289321083937,1.6746804005807598,15.063487856777456,1.8377944721222688,2548,0,27.68359471406653,20.58135043603363,74.34493478397832,0.08136882979499468,0.06049360344557511,0.150390625,,
3.6224249999999882,1500,,,,-0.0625,0.0546875,-0.939453125,0.0771289321083937,1.6746804005807598,15.063512674323004,1.839502584193162,2550,0,27.709370491443615,20.592252674391876,74.3151226793498,0.08132575037132095,0.06043733115834894,0.150390625,,
3.630460000000021,1500,,,,-0.0625,-0.2265625,-1.00390625,0.0771289321083937,1.7213590778462609,15.063338117096126,1.838799373074441,2550,0,27.698456686124686,20.599660537716193,74.37114916238428,0.08356249728943842,0.06214638950294157,0.150390625,,
3.6383250000000116,1500,,,,-0.09375,0.126953125,-0.939453125,0.0771289321083937,1.7213590778462609,15.063468550492027,1.8392037486645985,2551,0,27.70478782595622,20.605493563309043,74.37520797038572,0.08353884232656192,0.06213218771643304,0.15234375,,
3.6463850000000093,1500,,,,-0.03125,0.0390625,-0.9375,0.07879050122544284,1.7213590778462609,15.0634946833332,1.8389502044709283,2552,0,27.70101662796233,21.05884690154796,76.02192794718754,0.08174042415018126,0.06214064635117628,0.150390625,,
3.654984999999986,1500,,,,0,-0.109375,-1.04296875,0.07879050122544284,1.7213590778462609,15.063650905427341,1.8380673008838602,2554,0,27.68800416119555,21.076799289795282,76.12249394029706,0.08167080087343662,0.06216985044587388,0.150390625,,
3.6721300000000046,1500,,,,-0.0625,0.021484375,-0.90625,0.07879050122544284,1.7213590778462609,15.06382997670163,1.8288409751875956,2553,0,27.549349504651143,21.063754556998607,76.45826466226517,0.08172137940499906,0.06248274855112803,0.15234375,,
3.6804550000000162,1500,,,,0,0.095703125,-0.9921875,0.07879050122544284,1.7213590778462609,15.063641478271226,1.82653433951658,2552,0,27.514258438228694,21.05436067327053,76.52163593846785,0.0817578412642852,0.06256243764340676,0.154296875,,
3.6885599999999976,1500,,,,-0.0625,0.015625,-0.97265625,0.07879050122544284,1.7213590778462609,15.063528158252588,1.823066453918675,2551,0,27.461812862969655,21.050670629989952,76.65433718826085,0.08177217287291157,0.06268191712016923,0.15234375,,
3.6973950000000184,1500,,,,-0.09375,0.080078125,-0.939453125,0.07879050122544284,1.7213590778462609,15.063481177308928,1.821058165172484,2551,0,27.431475393860445,21.0491356022398,76.73351615258323,0.08177813618451363,0.06275123933842529,0.154296875,,
3.705530000000028,1500,,,,-0.03125,0.1015625,-1.013671875,0.07879050122544284,1.7213590778462609,15.063507388501126,1.8223687905897312,2551,0,27.451265741622276,21.048604124274913,76.67626084126427,0.0817802010852137,0.06270600030060888,0.154296875,,
3.715765000000014,1500,,,,-0.0625,-0.01953125,-1.03515625,0.07879050122544284,1.7213590778462609,15.063530833598673,1.82416057513403,2550,0,27.47829906896655,21.04095571966683,76.57299189755916,0.08180992825517516,0.06264430973423424,0.154296875,,
3.7259650000000257,1500,,,,-0.09375,0.03515625,-0.958984375,0.07879050122544284,1.7213590778462609,15.063632382086192,1.822594253212176,2549,0,27.454889812091135,21.028404518613986,76.59256570519206,0.08185875805853665,0.06269772305143888,0.154296875,,
3.733585000000021,1500,,,,0,0.03515625,-1.017578125,0.07879050122544284,1.7213590778462609,15.063808345763439,1.8194840355164883,2549,0,27.40835879919662,21.03488702032585,76.7462480130055,0.08183353094233047,0.06280416461480053,0.154296875,,
3.7422550000000046,1500,,,,0,-0.0546875,-0.90234375,0.07879050122544284,1.7213590778462609,15.06381692713638,1.8178129138019299,2550,0,27.383200941296614,21.039691510576805,76.83430273794923,0.08181484395723773,0.06286186489068481,0.154296875,,
3.750820000000007,1500,,,,-0.0625,0.103515625,-1.041015625,0.07879050122544284,1.7213590778462609,15.063903029285877,1.8157779641133278,2550,0,27.352703174117302,21.03766782333582,76.91257309896474,0.08182271401475695,0.0629319547281568,0.154296875,,
3.7594550000000164,1500,,,,-0.03125,0.044921875,-0.962890625,0.07879050122544284,1.7213590778462609,15.063908167459056,1.8153659822133892,2549,0,27.346506446391604,21.0348838936127,76.91982131190389,0.08183354310640889,0.06294621513064956,0.154296875,,
3.7670800000000164,1500,,,,-0.0625,-0.01171875,-0.8984375,0.07879050122544284,1.7213590778462609,15.063912603386587,1.8171049778595796,2550,0,27.372710577655425,21.039913363377696,76.86455933433481,0.08181398127059199,0.06288595617751574,0.15234375,,
3.776424999999988,1500,,,,-0.03125,0.134765625,-1.08984375,0.07879050122544284,1.7213590778462609,15.063806981218464,1.8173207188152862,2550,0,27.375768531202667,21.042065711326057,76.86383557540125,0.08180561269323124,0.06287893163197485,0.15234375,,
3.7831050000000395,1500,,,,0,0.07421875,-0.90234375,0.07879050122544284,1.7408553938275377,15.06381540695812,1.8167240354073577,2549,0,27.366795514760486,21.034221906948513,76.86037590920554,0.08276300409536223,0.0636119560614466,0.15234375,,
3.7920800000000163,1500,,,,-0.0625,-0.060546875,-0.970703125,0.07945504200036267,1.7408553938275377,15.063725195829605,1.816613705941865,2549,0,27.364969653285865,21.207955493132143,77.5003800911783,0.08208501731302133,0.06361620041550105,0.15234375,,
3.800359999999986,1500,,,,-0.0625,0.08984375,-1,0.07945504200036267,1.7408553938275377,15.063740089837534,1.8161480150584592,2549,0,27.357981663514973,21.206457856516003,77.51470162288055,0.08209081429846775,0.06363244976325023,0.15234375,,
3.8087700000000186,1500,,,,0.03125,0.005859375,-0.98828125,0.07945504200036267,1.7408553938275377,15.063884582171886,1.8148897430371949,2549,0,27.339289618479896,21.205938068693325,77.5657976656396,0.08209282646154623,0.06367595567116757,0.154296875,,
3.816484999999986,1500,,,,0,0.015625,-0.88671875,0.07945504200036267,1.7408553938275377,15.064020947768377,1.81455168311227,2548,0,27.3344445652116,21.201666364341992,77.56391871713843,0.08210936649561631,0.06368724228781714,0.15234375,,
3.8244700000000305,1500,,,,-0.0625,0.06640625,-1.01953125,0.07945504200036267,1.7408553938275377,15.064117460948834,1.818674787757342,2548,0,27.39673062604279,21.19795572838585,77.37403421500044,0.08212373948382133,0.06354245028684974,0.15234375,,
3.832295000000042,1500,,,,-0.0625,0.041015625,-0.953125,0.07945504200036267,1.7408553938275377,15.063781335823858,1.8185756511849034,2547,0,27.394625952102867,21.1944272142122,77.3670983910086,0.08213741169943882,0.06354733212533265,0.15234375,,
3.839244999999995,1500,,,,0.0625,-0.0078125,-0.95703125,0.07945504200036267,1.7408553938275377,15.063790816284666,1.8209294512481033,2547,0,27.430100344813454,21.192200465052174,77.25892431545277,0.08214604220540303,0.06346514857561222,0.150390625,,
3.847414999999979,1500,,,,-0.25,0.18359375,-0.94921875,0.07945504200036267,1.7408553938275377,15.063865361596186,1.8207238740162726,2547,0,27.427139298824947,21.19116740806391,77.2634986725422,0.08215004677680415,0.06347200030088886,0.15234375,,
3.855570000000007,1500,,,,-0.03125,0.013671875,-0.982421875,0.07945504200036267,1.7408553938275377,15.063872066398396,1.8213814036885698,2548,0,27.437056449281748,21.196876064929135,77.25637808163648,0.08212792245871715,0.06344905828529977,0.15234375,,
3.866734999999986,1500,,,,0,0.009765625,-0.947265625,0.07945504200036267,1.7408553938275377,15.063879184640147,1.822797878176713,2548,0,27.45840701487241,21.19924328223096,77.20492769572803,0.08211875162953147,0.06339972282021426,0.15234375,,
3.8749150000000374,1500,,,,-0.125,0.125,-0.994140625,0.07945504200036267,1.7408553938275377,15.063825701894272,1.8226892251050903,2546,0,27.456672795703813,21.18657651273721,77.16367045045716,0.08216784777762223,0.0634037272753577,0.15234375,,
3.883795000000042,1500,,,,-0.0625,-0.0546875,-0.939453125,0.07945504200036267,1.7408553938275377,15.063916789287214,1.8218022927597075,2546,0,27.443478144664898,21.183569433717732,77.18981290218086,0.08217951178032494,0.0634342113871585,0.15234375,,
3.891740000000049,1500,,,,0.03125,0.091796875,-0.98828125,0.07945504200036267,1.7408553938275377,15.064094578345065,1.821200686093292,2546,0,27.434739381456275,21.184632061956655,77.21827339929389,0.08217538962849227,0.06345441703026415,0.15234375,,
3.9014350000000557,1500,,,,-0.3125,0.05859375,-0.9609375,0.07945504200036267,1.7408553938275377,15.06392332387201,1.8182276454934545,2546,0,27.389641837057738,21.181769886387837,77.3349648469271,0.08218649353500312,0.06355889588421668,0.15234375,,
3.9085950000000302,1500,,,,-0.03125,0.025390625,-0.962890625,0.07945504200036267,1.7408553938275377,15.063926510432397,1.8178029900857586,2545,0,27.38325065309614,21.17824982394998,77.34015983801915,0.08220015385118584,0.06357373037560478,0.154296875,,
3.916585000000021,1500,,,,-0.03125,0.10546875,-0.962890625,0.07945504200036267,1.7408553938275377,15.063733658880636,1.8160425474350537,2545,0,27.35638124775675,21.174986449519213,77.40419413571223,0.08221282209448898,0.06363617241846596,0.154296875,,
3.924475000000035,1500,,,,0.0625,0.015625,-1.0546875,0.07945504200036267,1.7408553938275377,15.063878380930262,1.8162876553441387,2545,0,27.360336344889088,21.17217195820978,77.3827181483635,0.08222375093418315,0.06362697343641134,0.154296875,,
3.931515000000014,1500,,,,0,-0.16796875,-0.88671875,0.07945504200036267,1.756682926938862,15.063711192465682,1.8162107045348832,2544,0,27.3588735177781,21.171146007100248,77.38310567992868,0.08297533474804418,0.06420889097635361,0.15625,,
3.9395400000000373,1500,,,,-0.03125,0.10546875,-1.060546875,0.07945504200036267,1.756682926938862,15.063627028754723,1.8183685149838553,2545,0,27.391225110547392,21.179817183232014,77.3233657777374,0.0829413640231806,0.06413305428468863,0.15625,,
3.947339999999967,1500,,,,-0.0625,0.015625,-0.98046875,0.07978317342768527,1.756682926938862,15.063547636662905,1.8188155893466738,2546,0,27.397815272428737,21.270696993706274,77.63647131058524,0.08258699409138505,0.06411762797403288,0.158203125,,
3.9557050000000165,1500,,,,0.0625,0.0625,-0.9375,0.07978317342768527,1.756682926938862,15.063504646854325,1.8201954666801472,2545,0,27.418522870519574,21.259836687357442,77.53822767095905,0.08262918256486448,0.06406920369979702,0.15625,,
3.963609999999986,1500,,,,-0.0625,0.056640625,-1.041015625,0.07978317342768527,1.756682926938862,15.063430149666157,1.8205581366836474,2544,0,27.423850325340496,21.255514070286896,77.50740256427864,0.08264598640757087,0.06405675738813496,0.158203125,,
3.971515000000014,1500,,,,-0.0625,0.044921875,-0.994140625,0.07978317342768527,1.756682926938862,15.063392877945326,1.8207926019445948,2548,0,27.427314312347747,21.284408286671276,77.60296193889118,0.08253379202648224,0.06404866721303461,0.158203125,,
3.979810000000056,1500,,,,0,0.0390625,-0.90625,0.07978317342768527,1.756682926938862,15.063290842915157,1.8205883443942263,2549,0,27.424051736831615,21.295919709202536,77.65416982714211,0.08248917872186344,0.0640562869336906,0.15625,,
3.987195000000065,1500,,,,0,0.044921875,-1.033203125,0.07978317342768527,1.756682926938862,15.063134387055827,1.8212276651956982,2548,0,27.433397070266718,21.288255940623866,77.59978061082646,0.08251887481240897,0.06403446581695188,0.15625,,
3.995224999999977,1500,,,,-0.1875,0.09375,-0.8984375,0.07978317342768527,1.756682926938862,15.063308238153436,1.8197225609681726,2548,0,27.411041843785544,21.285099230062027,77.65155133965712,0.08253111286687399,0.06408668947901103,0.15625,,
4.002710000000021,1500,,,,0.03125,-0.048828125,-0.943359375,0.07978317342768527,1.756682926938862,15.06334190691091,1.816621541305316,2549,0,27.364391392141457,21.29302519952916,77.81289521258682,0.08250039205221558,0.06419594361756384,0.15625,,
4.0090449999999835,1500,,,,0,0.1484375,-1.03125,0.07978317342768527,1.756682926938862,15.063366770125054,1.8143315454241078,2550,0,27.32994151133114,21.303645966312338,77.94984104696944,0.08245926212427308,0.06427686375437475,0.15625,,
4.01919000000006,1500,,,,-0.0625,0.005859375,-0.95703125,0.07978317342768527,1.756682926938862,15.063398257311746,1.8143400449725637,2547,0,27.330126671610632,21.275704765568914,77.84707704142917,0.08256755516657445,0.06427642828174775,0.15625,,
4.027230000000039,1500,,,,-0.03125,0.03515625,-0.984375,0.07978317342768527,1.756682926938862,15.063508288202918,1.8164448765508854,2545,0,27.36203245298799,21.26401737899209,77.71358876767218,0.0826129369455081,0.06420147808672848,0.154296875,,
4.034505000000005,1500,,,,-0.0625,0.083984375,-0.97265625,0.07978317342768527,1.756682926938862,15.063531867392568,1.8166635950279244,2545,0,27.365369956035085,21.2663310117059,77.71256535494373,0.08260394921775216,0.06419364802161016,0.154296875,,
4.0429000000000235,1500,,,,0.0625,-0.0390625,-0.9765625,0.07978317342768527,1.756682926938862,15.063555000055597,1.8158069101596637,2547,0,27.352507260671107,21.279570843731314,77.79751465171245,0.08255255427091276,0.06422383550427622,0.154296875,,
4.051525000000023,1500,,,,-0.0625,0.017578125,-0.9921875,0.07978317342768527,1.756682926938862,15.063363419907768,1.81210871378882,2547,0,27.296452112182628,21.28178375000956,77.9653841552226,0.08254397035389822,0.06435572358338981,0.154296875,,
4.06022000000003,1500,,,,-0.03125,0.072265625,-0.982421875,0.07978317342768527,1.756682926938862,15.063177075566259,1.8097161623599385,2547,0,27.26007501014197,21.276084145099723,78.04851651062613,0.08256608288247716,0.06444160283070745,0.15234375,,
4.067735000000044,1500,,,,-0.0625,-0.109375,-0.91015625,0.07978317342768527,1.756682926938862,15.063270338948078,1.80907871249245,2546,0,27.250641710709896,21.274305295713706,78.06900667352944,0.08257298663908871,0.06446391044980274,0.15234375,,
4.0765300000000275,1500,,,,-0.03125,0.029296875,-0.947265625,0.07978317342768527,1.756682926938862,15.063310200957067,1.805824937584143,2546,0,27.201701203453883,21.273429300049596,78.20624578196765,0.08257638682329259,0.06457989203689254,0.15234375,,
4.0836500000000235,1500,,,,-0.0625,0.1875,-1.04296875,0.07978317342768527,1.7351419491263174,15.063282719827775,1.8061035417664946,2547,0,27.20584827091098,21.275990584374416,78.20373903622449,0.0815539912111376,0.06377827046038351,0.15234375,,
4.091735000000044,1500,,,,-0.03125,0.00390625,-0.99609375,0.07978317342768527,1.7351419491263174,15.06331833638578,1.806197128984131,2547,0,27.207322332154014,21.283372942872223,78.22663576753092,0.08152570336401563,0.06377481502748623,0.15234375,,
4.099035000000033,1500,,,,-0.03125,0.052734375,-1.0078125,0.07950855801447132,1.7351419491263174,15.063160077182022,1.8062828081261042,2547,0,27.208327083465367,21.205920611139526,77.93908293621796,0.0818234671790124,0.06377245994593955,0.154296875,,
4.108174999999989,1500,,,,-0.25,0.1796875,-0.90234375,0.07950855801447132,1.7351419491263174,15.063135584212185,1.806367812748321,2545,0,27.209563278384767,21.18985349196374,77.87649244924458,0.08188550948614963,0.06376956261200677,0.154296875,,
