Time (s),ESC signal (µs),Servo 1 (µs),Servo 2 (µs),Servo 3 (µs),AccX (g),AccY (g),AccZ (g),Torque (N·m),Thrust (N),Voltage (V),Current (A),Motor Electrical Speed (RPM),Motor Optical Speed (RPM),Electrical Power (W),Mechanical Power (W),Motor Efficiency (%),Propeller Mech. Efficiency (N/W),Overall Efficiency (N/W),Vibration (g),App message,90% settling time (s),Max acceleration (RPM/s),
0,1000,,,,-0.0625,0.046875,-0.955078125,0.0003851076982527406,-0.015208132497223605,15.122541296048151,0.05507737119934243,0,0,0.832909820439829,0,0,0,0,0.06640625,,
0,1200,,,,-0.0625,0.046875,-0.955078125,0.0003851076982527406,-0.009214586226333197,15.122599711952843,0.05466913941593485,0,0,0.8267395119841261,0,0,0,0,0.06640625,,
0.007839999999967404,1200,,,,-0.0625,0.046875,-0.955078125,0.0003851076982527406,-0.009214586226333197,15.122368165978159,0.054471678162363035,0,0,0.8237407717899264,0,0,0,0,0.06640625,,
0.015899999999965074,1200,,,,-0.0625,0.048828125,-0.953125,0.0003851076982527406,-0.009214586226333197,15.122349804168225,0.05360710858462092,0,0,0.810665448006667,0,0,0,0,0.06640625,,
0.023820000000006985,1200,,,,-0.0625,0.0546875,-0.95703125,0.0003851076982527406,-0.009214586226333197,15.122233645522678,0.05236421882574499,0,0,0.7918639517481929,0,0,0,0,0.06640625,,
0.03195999999996275,1200,,,,-0.0625,0.052734375,-0.95703125,0.0003851076982527406,-0.009214586226333197,15.122124429004776,0.05204519821468316,0,0,0.787033963334656,0,0,0,0,0.06640625,,
0.03979999999993015,1200,,,,-0.03125,0.0390625,-0.962890625,0.00025526270546654436,-0.009214586226333197,15.122216999383294,0.05981865478711382,0,0,0.9045906783019334,0,0,0,0,0.06640625,,
0.04809999999997672,1200,,,,-0.0625,0.0859375,-1,0.00025526270546654436,-0.009214586226333197,15.121321461370526,0.09371921096838563,0,0,1.4171583161589616,0,0,0,0,0.06640625,,
0.057024999999906865,1200,,,,0,0.048828125,-1.001953125,0.00025526270546654436,-0.009214586226333197,15.120381262146115,0.12740288470160946,0,0,1.9263801905855775,0,0,0,0,0.06640625,,
0.06574999999994179,1200,,,,-0.09375,0.099609375,-1.0859375,0.00025526270546654436,-0.009214586226333197,15.119304673384184,0.15734119467125235,0,0,2.3788894599089163,0,0,0,0,0.068359375,,
0.08176999999990221,1200,,,,-0.0625,0.04296875,-1.015625,0.00025526270546654436,-0.009214586226333197,15.117346317669881,0.2185619218351599,0,0,3.304076264237607,0,0,0,0,0.068359375,,
0.08998499999992782,1200,,,,-0.03125,0.029296875,-0.958984375,0.00025526270546654436,-0.009214586226333197,15.116502875175282,0.24457964987829775,0,0,3.697188980594652,0,0,0,0,0.068359375,,
0.09780999999993946,1200,,,,-0.0625,0.05859375,-1.03125,0.00025526270546654436,-0.009214586226333197,15.11563028990639,0.26414774719029843,0,0,3.9927596884402106,0,0,0,0,0.068359375,,
0.11309999999997672,1200,,,,-0.0625,0.083984375,-0.974609375,0.00025526270546654436,-0.009214586226333197,15.115194059314392,0.28855648951328433,0,0,4.361587336067811,0,0,0,0,0.0703125,,
0.12098499999992782,1200,,,,-0.09375,0.087890625,-0.912109375,0.00025526270546654436,-0.009214586226333197,15.114799957869549,0.2958276894263952,1,0,4.471376347678724,0.00002960515985338143,0.0006621039597516923,311.2493319397068,0.0020607941514734873,0.0703125,,
0.1325899999999674,1200,,,,0,0.015625,-0.994140625,0.00025526270546654436,-0.009214586226333197,15.114675900034355,0.3017811745614983,3,0,4.561324646228739,0.00007152769945079409,0.0015681343688161405,128.8254242354344,0.0020201557532090447,0.072265625,,
0.14000999999995112,1200,,,,-0.03125,0,-1.021484375,0.00025526270546654436,-0.009214586226333197,15.114543331470685,0.3012501909877394,3,0,4.553259065298007,0.00008205273602756964,0.0018020660553431384,112.30077962588724,0.002023734229523817,0.072265625,,
0.14886999999999534,1200,,,,-0.03125,0.03515625,-0.9921875,0.00025526270546654436,-0.004905330412846103,15.11440695919071,0.300006362131957,3,0,4.534418247608739,0.00008633849390297909,0.0019040699200721142,56.815102871244854,0.0010817992838294014,0.072265625,,
0.1559549999999581,1200,,,,-0.1875,0.109375,-0.98828125,0.00025526270546654436,-0.004905330412846103,15.1143019804195,0.31220719289898136,3,0,4.718793793934287,0.00008774417103734608,0.001859461863964806,55.90491487757374,0.0010395305722304708,0.07421875,,
0.17394999999995345,1200,,,,-0.0625,0.080078125,-0.97265625,0.00025526270546654436,-0.004905330412846103,15.114008855518557,0.30805956614258745,3,0,4.656015010706271,0.0000886756030032101,0.0019045385979062574,55.31770009693115,0.001053546949820081,0.07421875,,
0.18224499999993712,1200,,,,-0.03125,-0.01171875,-1,0.00025526270546654436,-0.004905330412846103,15.114106502856334,0.30223101265735,3,0,4.567951713769308,0.00008876024486494958,0.0019431082118796705,55.26494908063467,0.0010738577638769308,0.07421875,,
0.19055999999993947,1200,,,,-0.0625,0.078125,-1.0625,0.0002016037593068288,-0.004905330412846103,15.114406302479233,0.2956988367950151,3,0,4.469312362490354,0.0000701288167508112,0.001569118715876341,69.9474287478173,0.0010975581957562697,0.076171875,,
0.1981799999999348,1200,,,,-0.03125,0.037109375,-0.970703125,0.0002016037593068288,-0.004905330412846103,15.114610196527224,0.288732107781874,3,0,4.3640732603447105,0.00007013879646159485,0.001607186503923509,69.93747626582191,0.0011240256797289971,0.076171875,,
0.20626499999995576,1200,,,,-0.0625,0.078125,-1,0.0002016037593068288,-0.004905330412846103,15.11467774723674,0.2818852703490948,3,0,4.260605023019275,0.00007014284625663333,0.0016463118706771518,69.93343832810622,0.001151322496768298,0.076171875,,
0.21391499999997904,1200,,,,-0.03125,0.03515625,-0.951171875,0.0002016037593068288,-0.004905330412846103,15.115063658653872,0.27467753662036526,3,0,4.151768451619051,0.00007014445050676266,0.0016895077681754788,69.93183890396544,0.0011815038507104576,0.07421875,,
0.22134499999997206,1200,,,,-0.0625,0.04296875,-0.98828125,0.0002016037593068288,-0.004905330412846103,15.115277995902495,0.2686057057653311,120,0,4.0600499139285695,0.002535143661215989,0.06244119444243343,1.9349319282731485,0.001208194607661763,0.07421875,,
0.22966499999992085,1200,,,,-0.0625,0.12109375,-0.99609375,0.0002016037593068288,-0.004905330412846103,15.115534873583329,0.25861195218740846,309,0,3.909057982014237,0.0065227654152662596,0.1668628463757206,0.7520323207339916,0.0012548625360421265,0.07421875,,
0.23910499999998136,1200,,,,-0.03125,0.05078125,-0.9765625,0.0002016037593068288,-0.004905330412846103,15.11570929443342,0.24870392854400994,378,0,3.7593362842547964,0.007980679250338334,0.21228958110940382,0.6146507407421675,0.001304839482807395,0.07421875,,
0.24602999999996975,1200,,,,-0.03125,0.048828125,-0.990234375,0.0002016037593068288,-0.004905330412846103,15.115721709490208,0.24302805279545678,399,0,3.6735444136554185,0.008428669385217833,0.22944242497481476,0.5819815902909957,0.0013353126736706518,0.07421875,,
0.25429999999998837,1200,,,,0,0.0234375,-0.97265625,0.0002016037593068288,-0.004905330412846103,15.116067156988501,0.2353757995574944,409,0,3.55795639324095,0.008644071913914156,0.24295047377014797,0.5674791304026647,0.0013786932358599898,0.07421875,,
0.27761999999993714,1200,,,,-0.03125,0.01171875,-0.951171875,0.0002016037593068288,-0.004905330412846103,15.116519618598648,0.2183933477333337,415,0,3.301347325582375,0.008769312621371697,0.26562829525441534,0.5593745627098891,0.0014858571150131188,0.07421875,,
0.28502499999996506,1200,,,,0,0.009765625,-0.96875,0.0002016037593068288,-0.004905330412846103,15.116772376374255,0.21252439986183835,416,0,3.2126829771369545,0.008777078892842512,0.273200902650668,0.5588796082084072,0.0015268641343558849,0.07421875,,
0.2920199999999604,1200,,,,-0.03125,0.044921875,-1.00390625,0.0002016037593068288,-0.004905330412846103,15.116907972031369,0.20706919656390615,416,0,3.1302459882990434,0.008779642220528166,0.2804777085681681,0.5587164362320688,0.0015670750577374366,0.07421875,,
0.29997999999992314,1200,,,,-0.03125,0.01171875,-0.990234375,0.0002016037593068288,0.024814465443713307,15.117161989236056,0.20119568072354127,416,0,3.0415076970323915,0.008780895845965702,0.2887020754388769,0,0.00815860682119097,0.07421875,,
0.3070799999999581,1200,,,,-0.0625,0.05078125,-0.94921875,0.0002016037593068288,0.024814465443713307,15.117284805511405,0.197478905090594,475,0,2.985344851335065,0.010025918039778306,0.3358378525447287,0,0.008312093469743076,0.07421875,,
0.3139649999999674,1200,,,,-0.0625,0.04296875,-0.953125,0.0002016037593068288,0.024814465443713307,15.117398920731297,0.19383920999057774,500,0,2.930344663906967,0.01055891970629098,0.3603302995837014,0,0.008468104707733834,0.07421875,,
0.32117499999998833,1200,,,,-0.0625,0.033203125,-0.978515625,0.0002016037593068288,0.024814465443713307,15.117687499099306,0.1895544758059195,512,0,2.865625329289471,0.010801096238706781,0.37691934560701634,0,0.008659354448777863,0.07421875,,
0.3292449999999371,1200,,,,-0.03125,0.02734375,-0.98828125,0.0002016037593068288,0.024814465443713307,15.117801159136787,0.18366627133391544,517,0,2.776630169666199,0.010912758498795026,0.39302167850848274,0,0.008936899740845376,0.072265625,,
0.3380750000000116,1200,,,,-0.0625,0.0234375,-0.95703125,0.0002016037593068288,0.024814465443713307,15.117920838324544,0.17852385823971265,519,0,2.6989095566202486,0.01095910961126583,0.4060569419373039,0,0.009194256021971927,0.072265625,,
0.3457799999999697,1200,,,,-0.03125,0.029296875,-0.982421875,0.001956383538802774,0.024814465443713307,15.118023406372355,0.17476331961385386,520,0,2.6420759564975755,0.10650282761253704,4.031028228034775,0.23299348946855808,0.009392033329960806,0.072265625,,
0.35309499999997207,1200,,,,-0.0625,0.0546875,-0.9609375,0.001956383538802774,0.024814465443713307,15.118108320299312,0.17108914239444167,520,0,2.5865441871462824,0.10655901139965894,4.11974448104151,0.23287064245223216,0.00959367544039174,0.072265625,,
0.36097999999998137,1200,,,,-0.0625,0.0390625,-0.953125,0.001956383538802774,0.024814465443713307,15.118400106131922,0.1676808425846032,520,0,2.535066068327355,0.10658563191080152,4.204451838256313,0.23281248137159638,0.009788488652718221,0.072265625,,
0.36821999999991384,1200,,,,0,0.01171875,-0.9609375,0.001956383538802774,0.024814465443713307,15.118468636630837,0.16376803331292714,520,0,2.475921875324203,0.10659524148834337,4.3052748372517025,0.23279149329031606,0.010022313583890462,0.072265625,,
0.37597499999997674,1200,,,,-0.0625,0.048828125,-0.994140625,0.001956383538802774,0.024814465443713307,15.118739111637417,0.16107915130452036,520,0,2.4353136648970133,0.10659978090697801,4.377250554765231,0.23278158015509537,0.010189433008730184,0.072265625,,
0.3832599999999511,1200,,,,-0.0625,0.1015625,-0.99609375,0.001956383538802774,0.024814465443713307,15.11879422411096,0.15926702004956256,520,0,2.407925302816691,0.10660146813684832,4.427108598931634,0.23277789581526254,0.010305330242049607,0.072265625,,
0.3911999999999534,1200,,,,-0.0625,0.052734375,-0.962890625,0.001956383538802774,0.024814465443713307,15.11904831355794,0.1561653671377354,529,0,2.361071730659935,0.10833339148867038,4.588314284648628,0.22905648113405946,0.01050983124378754,0.072265625,,
0.39901499999995577,1200,,,,-0.0625,0.0546875,-1.0078125,0.001956383538802774,0.024814465443713307,15.119289410813497,0.15354276756746302,532,0,2.3214575397897415,0.10901765391669029,4.696086490841621,0.22761878055710283,0.01068917480436054,0.072265625,,
0.4060999999999767,1200,,,,-0.09375,0.033203125,-0.86328125,0.001956383538802774,0.024814465443713307,15.11880713944836,0.17695703184385947,533,0,2.6753792364165334,0.10927038581520113,4.0842952030068265,0.22709232019807923,0.00927512074024705,0.07421875,,
0.4168999999999651,1200,,,,0,0.091796875,-0.927734375,0.001956383538802774,0.024814465443713307,15.118173350877361,0.20032555669706326,534,0,3.0285564927572137,0.10939072862507267,3.611975833592022,0.22684249164079304,0.008193495978383446,0.07421875,,
0.4335799999999581,1200,,,,-0.0625,0.08203125,-0.958984375,0.001956383538802774,0.024814465443713307,15.115278102045634,0.28243623399542434,534,0,4.269102222935274,0.10945974710218678,2.563999206065541,0.2266994589394366,0.005812572327362031,0.076171875,,
0.44049499999999536,1200,,,,-0.125,-0.09375,-1.0234375,0.001956383538802774,0.024814465443713307,15.114538975526063,0.3071592079822584,534,0,4.642569820739561,0.10946451182758159,2.357843092387653,0.2266895912603965,0.0053449848686950635,0.076171875,,
0.44911999999999536,1200,,,,-0.0625,0.015625,-0.970703125,0.001956383538802774,0.039836572500093474,15.113775853676401,0.3259429485120617,574,0,4.926228664897688,0.11760180400558773,2.387258326913864,0.3387411684450068,0.008086626750388745,0.076171875,,
0.45727499999996507,1200,,,,-0.0625,0.09765625,-1.0546875,0.001956383538802774,0.039836572500093474,15.113231911732228,0.3417625890499332,636,0,5.165137267065678,0.13028117060836059,2.5223176824180222,0.3057738298947785,0.007712587379642805,0.078125,,
0.4651949999999488,1200,,,,-0.0625,0.07421875,-0.94921875,0.001956383538802774,0.039836572500093474,15.11287771395931,0.353622568937411,656,0,5.344254641247239,0.13449225492327174,2.516576472334485,0.2961997515977434,0.007454093259821998,0.078125,,
0.47338999999995574,1200,,,,-0.0625,0.07421875,-0.9140625,0.001956383538802774,0.039836572500093474,15.112833853476609,0.36058553299961493,665,0,5.449469250190488,0.13617458133603325,2.4988595234531,0.29254044410674673,0.007310174747513435,0.078125,,
0.48154999999993015,1200,,,,-0.0625,0.0390625,-0.923828125,0.001956383538802774,0.039836572500093474,15.11285893728814,0.3642796013034744,668,0,5.505306228230974,0.1368286547313994,2.485395890055088,0.29114203145747797,0.007236032084067048,0.078125,,
0.48856999999994877,1200,,,,-0.03125,0.0390625,-1.01171875,0.010278260906272856,0.039836572500093474,15.112736566750012,0.3661621731130375,669,0,5.53371246296605,0.7200779217741516,13.012564830450055,0.055322585647318304,0.007198887323238551,0.078125,,
0.5076349999999511,1200,,,,-0.03125,0.021484375,-0.9609375,0.010278260906272856,0.039836572500093474,15.112478385775196,0.3687565646516478,870,0,5.572825612910741,0.9359154908411763,16.794271987856778,0.042564283730670394,0.007148361579411857,0.078125,,
0.5142999999999883,1200,,,,-0.03125,0.03125,-0.970703125,0.010278260906272856,0.039836572500093474,15.11245829871016,0.3665857176405237,907,0,5.540011370745153,0.975977315077493,17.616882886401374,0.04081710905025537,0.007190702298998224,0.076171875,,
0.5212899999999209,1200,,,,-0.0625,0.109375,-0.9609375,0.010278260906272856,0.039836572500093474,15.112516415012335,0.3642302031212712,922,0,5.504434923513488,0.992637946472737,18.033421418653724,0.040132026628288485,0.007237177485725589,0.076171875,,
0.5291399999999558,1200,,,,-0.03125,0.06640625,-0.947265625,0.010278260906272856,0.039836572500093474,15.112491204262003,0.3619233574538981,931,0,5.469563556139008,1.0019687964747657,18.31898991922603,0.03975829650608959,0.007283318329006549,0.076171875,,
0.53875,1200,,,,0,0.0078125,-1.015625,0.010278260906272856,0.039836572500093474,15.112663655424068,0.35759155996349073,951,0,5.404160971746643,1.0234349913589293,18.937907229439016,0.038924379991344626,0.007371462972395169,0.076171875,,
0.545484999999986,1200,,,,-0.03125,0.0234375,-0.953125,0.010278260906272856,0.039836572500093474,15.112843534237014,0.35400402878037823,994,0,5.350007497447393,1.0696426559117618,19.993292652806787,0.037242879460652065,0.007446077882900236,0.076171875,,
0.5523449999999721,1200,,,,-0.0625,0.0390625,-0.970703125,0.010278260906272856,0.039836572500093474,15.112978717019566,0.34949778779622553,1008,0,5.281952628609777,1.0845006359262022,20.532191637842185,0.036732640978187736,0.007542016239282055,0.076171875,,
0.5591900000000023,1200,,,,-0.0625,0.01953125,-0.94140625,0.010278260906272856,0.039836572500093474,15.113093083500697,0.34679402465191944,1013,0,5.241130375366294,1.090548457222763,20.80750485331223,0.03652893389216558,0.007600759692475569,0.076171875,,
0.5688250000000117,1200,,,,0,0.017578125,-0.984375,0.010278260906272856,0.039836572500093474,15.113235789233348,0.34230209433424785,1016,0,5.173292262821884,1.093917592367081,21.145482157050605,0.0364164291515715,0.007700429528480526,0.076171875,,
0.577969999999972,1200,,,,-0.0625,0.009765625,-0.931640625,0.010278260906272856,0.039836572500093474,15.113410327862844,0.33605481965762507,1025,0,5.078934382141636,1.103221397373364,21.721513104254132,0.036109318215672315,0.007843490288074084,0.076171875,,
0.5851749999999883,1200,,,,0,0.03125,-1.00390625,0.010278260906272856,0.039836572500093474,15.113533285056672,0.33103584602058345,1040,0,5.003121277378983,1.1193758177000717,22.37354954318609,0.035588201808704235,0.00796234396319949,0.076171875,,
0.5927399999999907,1200,,,,-0.03125,0.005859375,-0.98046875,0.010278260906272856,0.039836572500093474,15.113467702892837,0.3270975990975849,1046,0,4.943578999655139,1.1255555243778763,22.768029487470404,0.03539280971688374,0.00805824535278438,0.076171875,,
0.601609999999986,1200,,,,-0.0625,0.04296875,-1.00390625,0.010278260906272856,0.11182329799192571,15.113386272537719,0.32268666002987756,1049,0,4.876888138026597,1.1286681001943575,23.143202555617076,0.09907544828516873,0.022929231679522242,0.076171875,,
0.6092849999999744,1200,,,,-0.0625,0.115234375,-0.962890625,0.010278260906272856,0.11182329799192571,15.113612040102002,0.3189123473373906,1050,0,4.819917492455578,1.1297059919591388,23.438284861253784,0.09898442496352657,0.023200251491225357,0.076171875,,
0.6174549999999581,1200,,,,-0.03125,0.017578125,-0.962890625,0.010278260906272856,0.11182329799192571,15.113794880179233,0.3140255457843307,1050,0,4.746117686120706,1.1301171728395472,23.811402236071846,0.09894841055371015,0.02356100404314369,0.076171875,,
0.6253549999999232,1200,,,,-0.03125,0.03515625,-0.96875,0.010278260906272856,0.11182329799192571,15.113902488045046,0.3122705908677097,1057,0,4.719627260258774,1.1377171470370249,24.10608050803242,0.09828743311388857,0.023693247755712497,0.076171875,,
0.6334349999999395,1200,,,,-0.0625,0.01953125,-0.94140625,0.010278260906272856,0.11182329799192571,15.114005724695355,0.30834271351950737,1060,0,4.660293537301934,1.1407423724815282,24.47790816932013,0.09802677685117411,0.023994904418974766,0.07421875,,
0.6425599999999977,1200,,,,-0.03125,0.04296875,-1.017578125,0.015241009972312437,0.11182329799192571,15.114114810606617,0.30490863161393306,1061,0,4.608424064957942,1.6934002277376397,36.74575524883025,0.06603477202865395,0.024264975708772202,0.07421875,,
0.6506549999999698,1200,,,,-0.03125,0.072265625,-0.986328125,0.015241009972312437,0.11182329799192571,15.114403958678627,0.3013496132243769,1061,0,4.554719787064796,1.694035294049449,37.19296407345266,0.066010016665368,0.024551081783230434,0.07421875,,
0.6594149999999208,1200,,,,-0.0625,0.05859375,-1.00390625,0.015241009972312437,0.11182329799192571,15.11471270223858,0.29802654623726954,1063,0,4.504585624016751,1.6970137252748951,37.67302626521424,0.06589416239035528,0.02482432510456147,0.07421875,,
0.6675349999999743,1200,,,,-0.03125,0.060546875,-0.970703125,0.015241009972312437,0.11182329799192571,15.114776659500672,0.29412604864638003,1066,0,4.445649535031464,1.7005917570231988,38.252942424332666,0.06575552158835982,0.02515342181401492,0.07421875,,
0.6760599999999395,1200,,,,-0.0625,0.03125,-1.015625,0.015241009972312437,0.11182329799192571,15.114771360410861,0.29072912685792685,1066,0,4.3943042802694485,1.7019686766531785,38.73124317528639,0.06570232432938758,0.025447327007830457,0.07421875,,
0.6839349999999395,1200,,,,-0.03125,0.044921875,-0.94921875,0.015241009972312437,0.11182329799192571,15.114765608457393,0.28680493674013446,1067,0,4.334989394175583,1.702557314093702,39.274774613779414,0.06567960859012316,0.025795518240983372,0.07421875,,
0.6914099999999161,1200,,,,-0.09375,0.087890625,-0.9765625,0.015241009972312437,0.11182329799192571,15.114992570410479,0.2836004707773283,1067,0,4.286619008764231,1.702742796416914,39.722279795231664,0.06567245401198335,0.026086595931034868,0.07421875,,
0.6991099999999278,1200,,,,-0.03125,0.056640625,-0.970703125,0.015241009972312437,0.11182329799192571,15.115137325848469,0.2786372970287382,1067,0,4.211641008692607,1.7036088954134145,40.450002550009714,0.06563906674412472,0.02655100417180103,0.07421875,,
0.7063649999999325,1200,,,,-0.0625,0.05078125,-1.0234375,0.015241009972312437,0.11182329799192571,15.11500095724945,0.27587558852256455,1069,0,4.169859784600319,1.705413041752328,40.898570451950874,0.06556962756484272,0.026817040324688995,0.07421875,,
0.7132649999999557,1200,,,,-0.0625,0.02734375,-0.953125,0.015241009972312437,0.11182329799192571,15.115129033535478,0.27402258816532843,1069,0,4.141886778222291,1.7061871806784734,41.193477080287884,0.06553987701833432,0.026998154217996412,0.07421875,,
0.724625,1200,,,,0,0.048828125,-1.00390625,0.015241009972312437,0.11182329799192571,15.115270396669366,0.27197611414897643,1069,0,4.110992506797192,1.7065556662219297,41.51201111167872,0.06552572541596988,0.027201046415685503,0.07421875,,
0.7408449999999721,1200,,,,-0.03125,0.060546875,-0.974609375,0.015241009972312437,0.11182329799192571,15.115222670679522,0.2641321829079046,1070,0,3.9924167591456294,1.7071060839618377,42.75871450672789,0.06550459812808301,0.028008924102366436,0.07421875,,
0.7492849999999744,1200,,,,0,0.0078125,-0.95703125,0.015241009972312437,0.21838981146078507,15.115336347230123,0.26312976470722216,1070,0,3.977294896517185,1.7074492593972999,42.92991351716135,0.127904129659392,0.05490913224765491,0.07421875,,
0.7575699999999488,1200,,,,-0.0625,0.068359375,-0.96875,0.015241009972312437,0.21838981146078507,15.1153694262113,0.2609563238759775,1070,0,3.9444512394914444,1.707569546714544,43.29042097462206,0.1278951196342069,0.05536633569564468,0.07421875,,
0.7653299999999581,1200,,,,0,0.01171875,-0.953125,0.015241009972312437,0.21838981146078507,15.11553176902202,0.2589120876625591,1070,0,3.913593886447226,1.7076163028174023,43.632945889732625,0.12789161774835656,0.0558028803696441,0.07421875,,
0.7735599999999395,1200,,,,-0.0625,0.08984375,-1.0625,0.015241009972312437,0.21838981146078507,15.11568555930376,0.2565524983109314,1070,0,3.8779668939218483,1.70763455837608,44.03427375959681,0.12789025051616937,0.056315543024124184,0.07421875,,
0.7810050000000046,1200,,,,-0.03125,0.056640625,-0.98046875,0.015241009972312437,0.21838981146078507,15.115700828403396,0.25412576975874357,1070,0,3.8412891084608907,1.7079153773245037,44.46203680849274,0.12786922253894026,0.05685326079199711,0.07421875,,
0.7888949999999604,1200,,,,-0.03125,0.04296875,-0.974609375,0.016769194747760303,0.21838981146078507,15.11580082297659,0.2520522805457004,1070,0,3.8099720697058244,1.8794221644153875,49.329027353224184,0.11620050864341984,0.057320580693298206,0.07421875,,
0.7963899999999557,1200,,,,0,0.07421875,-0.99609375,0.016769194747760303,0.21838981146078507,15.115810694403704,0.2502328175427783,1070,0,3.7824718995038995,1.8795420150155147,49.69083882056153,0.11619309901884921,0.057737325554071815,0.07421875,,
0.803469999999972,1200,,,,-0.03125,0.03125,-0.98046875,0.016769194747760303,0.21838981146078507,15.115818915958304,0.2519968791956106,1070,0,3.80913919330747,1.87958577446876,49.34410844768102,0.11619039387681579,0.05733311396036371,0.07421875,,
0.8119949999999372,1200,,,,-0.0625,0.11328125,-0.97265625,0.016769194747760303,0.21838981146078507,15.11602051191967,0.25325175519329474,1070,0,3.828158726181502,1.8796060623061195,49.09948089276283,0.11618913975667808,0.057048264474295646,0.07421875,,
0.820704999999958,1200,,,,-0.0625,0.044921875,-0.9921875,0.016769194747760303,0.21838981146078507,15.11601944136622,0.25210400753420353,1071,0,3.8108090791333566,1.881006687840788,49.35977239428015,0.1161026235964505,0.05730799075099576,0.072265625,,
0.8275249999999651,1200,,,,-0.03125,0.029296875,-0.98046875,0.016769194747760303,0.21838981146078507,15.11601855203258,0.24988446821505209,1072,0,3.7772582574035227,1.8827792363003897,49.84512860909349,0.1159933184147044,0.05781701874176474,0.072265625,,
0.8342049999999581,1200,,,,-0.0625,0.0703125,-0.9609375,0.016769194747760303,0.21838981146078507,15.116017894865834,0.248246728327611,1073,0,3.752501987742065,1.8833867301358074,50.19015942664613,0.11595590431129213,0.05819845323844676,0.072265625,,
0.8423649999999325,1200,,,,-0.0625,0.04296875,-0.95703125,0.016769194747760303,0.21838981146078507,15.115951720771283,0.24853700438214862,1073,0,3.7568733590656795,1.8837266022716992,50.14080652269245,0.11593498292024738,0.05813073547815778,0.072265625,,
0.8495899999999674,1200,,,,0,0.048828125,-0.98828125,0.016769194747760303,0.21838981146078507,15.115780304066062,0.24939345327451604,1073,0,3.769776648969949,1.8838520664700322,49.9725114214598,0.11592726167188094,0.05793176407956629,0.072265625,,
0.8576899999999441,1200,,,,-0.0625,0.01171875,-0.9609375,0.016769194747760303,0.21838981146078507,15.115595042775773,0.24920212530252703,1075,0,3.7668384098720646,1.8868947679865846,50.092267378431835,0.11574032381986964,0.057976952472511924,0.072265625,,
0.8654749999999767,1200,,,,0,0.03125,-1.015625,0.016769194747760303,0.21838981146078507,15.115679975225792,0.24732763149624407,1077,0,3.7385253267278005,1.8910705718034322,50.583329161464306,0.11548474960007239,0.05841603102149744,0.072265625,,
0.8749399999999441,1200,,,,-0.0625,0.033203125,-0.9921875,0.016769194747760303,0.21838981146078507,15.115499521496103,0.2443640115769712,1078,0,3.6936841000625766,1.8927287399598056,51.2423014173773,0.11538357655277261,0.05912520008332202,0.072265625,,
0.891829999999958,1200,,,,-0.0625,0.1015625,-1.03515625,0.016769194747760303,0.21838981146078507,15.115607200415925,0.23914813904849588,1078,0,3.614869332567513,1.8936575353414886,52.38522782223198,0.1153269835674919,0.06041430308233868,0.072265625,,
0.9014149999999791,1200,,,,-0.03125,0.01953125,-0.98046875,0.016769194747760303,0.2653523063648501,15.115390071109523,0.2374389071014598,1079,0,3.588981698896502,1.8946103920866912,52.78963647736693,0.14005639759665606,0.07393526315457041,0.072265625,,
0.9096199999999371,1200,,,,-0.03125,0.052734375,-1.017578125,0.016769194747760303,0.2653523063648501,15.115349830729745,0.23523027811460087,1079,0,3.555587944482043,1.8953248951702384,53.30552709606338,0.14000359887691766,0.07462965633479923,0.072265625,,
0.9175499999999301,1200,,,,-0.0625,0.1015625,-0.958984375,0.016769194747760303,0.2653523063648501,15.115577096292087,0.2325521203743969,1079,0,3.5151595044253945,1.895561888511035,53.9253449558868,0.1399860948741085,0.07548798455113799,0.072265625,,
0.9250649999999441,1200,,,,0,0.01953125,-1.02734375,0.016769194747760303,0.2653523063648501,15.115727740734549,0.23085463575707352,1079,0,3.489535821790366,1.8956556443353052,54.324005860547565,0.13997917140583488,0.07604229327805166,0.072265625,,
0.9324099999999744,1200,,,,-0.03125,0.03515625,-0.9453125,0.016769194747760303,0.2653523063648501,15.115652437145172,0.22922338371115838,1080,0,3.4648609986442342,1.8956905374873076,54.7118784340576,0.13997659487005099,0.0765838244214356,0.072265625,,
0.9404549999999581,1200,,,,-0.125,0.0546875,-0.9921875,0.016580050496350335,0.2653523063648501,15.115571905937381,0.22684294110339365,1076,0,3.428860787602665,1.8675267290139375,54.4649329528378,0.14208755475481588,0.07738789143153717,0.072265625,,
0.9483699999999371,1200,,,,-0.03125,0.048828125,-0.99609375,0.016580050496350335,0.2653523063648501,15.115592956276469,0.22626718748102698,1074,0,3.4201627053246986,1.8648293059480496,54.52457870044546,0.1422930804007014,0.07758470260836857,0.072265625,,
0.9567149999999675,1200,,,,-0.03125,0.0078125,-1.013671875,0.016580050496350335,0.2653523063648501,15.115810315772778,0.2256104070919095,1073,0,3.4102841188655817,1.8637621157632576,54.65122701809464,0.1423745574183332,0.07780944259070079,0.072265625,,
0.9644399999999441,1200,,,,-0.0625,0.02734375,-0.90625,0.016580050496350335,0.2653523063648501,15.115754821769558,0.2246794680645225,1073,0,3.396199752748925,1.8633465135977154,54.865633627394864,0.14240631274346963,0.07813212581211416,0.07421875,,
0.9716149999999907,1200,,,,-0.03125,0.03515625,-0.984375,0.016580050496350335,0.2653523063648501,15.115765706961545,0.22444838339901702,1073,0,3.3927091767658184,1.8631895244832435,54.91745467730817,0.14241831165213623,0.07821251175374941,0.07421875,,
0.9793749999999418,1200,,,,-0.03125,0.021484375,-0.9765625,0.016580050496350335,0.2653523063648501,15.115873862639626,0.22546660599401314,1073,0,3.40812477644297,1.862446216272591,54.647242646333204,0.1424751512534484,0.0778587416162022,0.07421875,,
0.9876399999999558,1200,,,,-0.125,0.12109375,-0.96875,0.016580050496350335,0.2653523063648501,15.11588010795447,0.22474540296982107,1073,0,3.3972245661057294,1.8621475249771635,54.81378957269701,0.1424980044844214,0.07810855632338308,0.07421875,,
0.9953349999999628,1200,,,,0,0.015625,-0.947265625,0.016580050496350335,0.2653523063648501,15.116081093022027,0.22512223030302378,1072,0,3.402965889102488,1.862030134168666,54.71786067946057,0.1425069882036689,0.07797677526377884,0.07421875,,
1.003625,1200,,,,-0.0625,0.07421875,-0.9609375,0.016580050496350335,0.2653523063648501,15.115945450943192,0.22355650189921325,1072,0,3.3792678879121856,1.8619833160209787,55.10019855724929,0.14251057143299364,0.07852360782465008,0.07421875,,
1.0113199999999487,1200,,,,0,0.009765625,-0.986328125,0.016580050496350335,0.2653523063648501,15.116142643344721,0.22430655268124716,1072,0,3.3906498461666494,1.8619650950585764,54.91469716826257,0.1425119660239937,0.0782600145706134,0.07421875,,
1.0195149999999558,1200,,,,-0.0625,0.04296875,-0.94140625,0.016580050496350335,0.2653523063648501,15.116135511769164,0.22341115017191748,1072,0,3.377113220838915,1.8612170290540078,55.11266301553429,0.1425692448664729,0.07857370748705114,0.07421875,,
1.0290599999999395,1200,,,,-0.0625,0.033203125,-0.9609375,0.016580050496350335,0.2653523063648501,15.116214535025954,0.22186443667986447,1071,0,3.3537504225455126,1.8602778121636638,55.46858226712362,0.14264122521368053,0.07912106535448347,0.07421875,,
1.036579999999958,1200,,,,0,0.052734375,-0.970703125,0.016580050496350335,0.2653523063648501,15.116363803583596,0.22092523668446568,1071,0,3.339586251115196,1.8597773837114129,55.68885615966268,0.14267960708034158,0.07945664115614332,0.07421875,,
1.0445849999999628,1200,,,,-0.0625,0.017578125,-0.94921875,0.016580050496350335,0.2825790205644489,15.11648125471746,0.22162410381441966,1071,0,3.350176610904231,1.8596266854245123,55.50831796066383,0.15195470294079064,0.08434749966455628,0.072265625,,
1.0526899999999442,1200,,,,0,0.00390625,-0.94140625,0.016580050496350335,0.2825790205644489,15.116458640716473,0.22090799002092654,1071,0,3.3393464945551434,1.859571456800141,55.68668779451911,0.15195921594252526,0.08462105415691316,0.072265625,,
1.0603999999999651,1200,,,,-0.03125,0.060546875,-0.966796875,0.016580050496350335,0.2825790205644489,15.11650083654325,0.22020960937809922,1071,0,3.328798744378899,1.8587682802751089,55.83901049632022,0.15202487774464576,0.08488918744085072,0.072265625,,
1.0686349999999512,1200,,,,-0.0625,0.076171875,-0.998046875,0.016580050496350335,0.2825790205644489,15.11647606098575,0.22081754910639873,1070,0,3.3379831949124217,1.858442524153983,55.67561055988908,0.15205152534544325,0.08465561510170001,0.072265625,,
1.0767999999999884,1200,,,,0,0.00390625,-0.96875,0.016580050496350335,0.2825790205644489,15.116650246886486,0.22171542368399572,1070,0,3.351594514171216,1.8583152546985713,55.44570641947409,0.1520619388179562,0.08431181617276431,0.072265625,,
1.0840449999999837,1200,,,,-0.03125,0.083984375,-0.99609375,0.016580050496350335,0.2825790205644489,15.116523770498024,0.22160732483739118,1070,0,3.3499323936209007,1.8582662961628755,55.471755182327676,0.15206594509513777,0.08435364877886765,0.072265625,,
1.0907999999999884,1200,,,,-0.0625,0.0234375,-0.96484375,0.016345226129102306,0.2825790205644489,15.116501332373765,0.22235324769948914,1070,0,3.3612031651069616,1.8319292003686665,54.502185984653806,0.15425215150649996,0.08407079449940258,0.072265625,,
1.105579999999958,1200,,,,-0.0625,0.015625,-0.96484375,0.016345226129102306,0.2825790205644489,15.116544621526877,0.22349147572881192,1070,0,3.3784188653854765,1.8316665512242678,54.21668017518826,0.1542742702680113,0.08364238770381326,0.072265625,,
1.1137799999999698,1200,,,,-0.03125,0.064453125,-1.0078125,0.016345226129102306,0.2825790205644489,15.11664899213412,0.22286605837618012,1070,0,3.3689879767331874,1.831595292276792,54.3663350812204,0.1542802723702051,0.08387652984100519,0.072265625,,
1.1308049999999348,1200,,,,-0.03125,0.048828125,-0.974609375,0.016345226129102306,0.2825790205644489,15.116920110934121,0.22339954602235643,1070,0,3.3771130900389124,1.8315556087785603,54.23435816173561,0.1542836150920348,0.08367472839388772,0.072265625,,
1.1388249999999533,1200,,,,-0.03125,0.06640625,-1.0078125,0.016345226129102306,0.2825790205644489,15.116940635077663,0.2240629195496274,1070,0,3.3871458533539,1.831662812582137,54.07688041447795,0.15427458516018608,0.08342688292700577,0.072265625,,
1.1465,1200,,,,-0.0625,0.0546875,-0.9921875,0.016345226129102306,0.2825790205644489,15.11702486640662,0.22362626098671798,1070,0,3.380563748117752,1.8318150276796084,54.186673116267535,0.15426176567750763,0.08358931871105366,0.072265625,,
1.1546399999999557,1200,,,,-0.0625,0.103515625,-1.01171875,0.016345226129102306,0.2825790205644489,15.116974934516458,0.22374013409249077,1070,0,3.382273998921534,1.831875343973258,54.161056867579816,0.15425668645746785,0.08354705167427345,0.072265625,,
1.1627299999999232,1200,,,,-0.03125,0.060546875,-1.01953125,0.016345226129102306,0.2825790205644489,15.116926914674293,0.22320789116951573,1070,0,3.3742173775881428,1.8318993841259268,54.29108972923821,0.15425466213543096,0.08374653703148004,0.072265625,,
1.1707049999999581,1200,,,,-0.0625,0.09765625,-0.98828125,0.016345226129102306,0.2825790205644489,15.117012334976096,0.22387546530712998,1070,0,3.384328170546397,1.831908801313059,54.12917155186221,0.15425386916745223,0.08349634146703531,0.072265625,,
1.1849649999999674,1200,,,,-0.03125,0.048828125,-0.96875,0.016345226129102306,0.2825790205644489,15.117251358569971,0.22560501844587338,1070,0,3.410527771601083,1.831458473618973,53.70014837202716,0.15429179784025954,0.08285492436608757,0.072265625,,
1.1947849999999745,1200,,,,-0.041015625,0.052734375,-0.986328125,0.016345226129102306,0.2825790205644489,15.117169155603744,0.22605593778891392,1070,0,3.4173258501836483,1.8311402638524108,53.58401112829216,0.1543186101811503,0.08269010125249338,0.072265625,,
1.2037199999999721,1200,,,,-0.03125,0.033203125,-0.966796875,0.016345226129102306,0.28466969579097284,15.117178412032178,0.22568777781844707,1070,0,3.4117624026965427,1.8310499684545718,53.66874220219354,0.1554680105378214,0.08343772578242245,0.072265625,,
1.212314999999944,1200,,,,-0.03125,0.0546875,-0.9921875,0.016345226129102306,0.28466969579097284,15.117313750843007,0.22684593670974024,1070,0,3.4293011983450183,1.8310203157367595,53.39339445075313,0.1554705282865354,0.08301099242269956,0.072265625,,
1.2207699999999604,1200,,,,-0.0625,0.083984375,-0.97265625,0.016345226129102306,0.28466969579097284,15.117240901525442,0.22643571827853673,1070,0,3.4230833019265874,1.8310075005894388,53.49000708101106,0.15547161641846463,0.08316177863119908,0.072265625,,
1.2285349999999744,1200,,,,-0.0625,0.0390625,-0.953125,0.016345226129102306,0.28466969579097284,15.117245369434702,0.2263079007421018,1070,0,3.421152064560027,1.831003252250176,53.52007796489602,0.1554719771475739,0.08320872338294687,0.072265625,,
1.2363749999999418,1200,,,,-0.03125,0.0546875,-0.9609375,0.016345226129102306,0.28466969579097284,15.117185686436136,0.22660354651322007,1070,0,3.4256078898453155,1.8310015629725445,53.450412944232916,0.15547212058564552,0.08310049046618329,0.072265625,,
1.2441999999999533,1200,,,,-0.0625,0.03125,-0.97265625,0.016395043668542386,0.28466969579097284,15.117312124922252,0.2268670912942089,1070,0,3.4296206299677876,1.8365814961799192,53.5505729156163,0.15499976253876263,0.08300326085735221,0.072265625,,
1.2516549999999698,1200,,,,0,0.037109375,-1.001953125,0.016395043668542386,0.28466969579097284,15.117182081515285,0.22607620149770669,1070,0,3.4176351023381706,1.836581204361587,53.73836437673209,0.15499978716700782,0.0832943504109659,0.072265625,,
1.2589799999999232,1200,,,,-0.0625,0.015625,-0.98828125,0.016395043668542386,0.28466969579097284,15.1173030121724,0.22551224112427828,1070,0,3.4091368820298005,1.8373374000373055,53.89450361240276,0.15493599367497385,0.08350198470807088,0.072265625,,
1.2667549999999463,1200,,,,0,0.046875,-0.990234375,0.016395043668542386,0.28466969579097284,15.117144294417466,0.22928591717051405,1071,0,3.4661482945445123,1.8380940859281865,53.02987436576861,0.15487221136845264,0.08212853911617807,0.072265625,,
1.2749999999999417,1200,,,,-0.0625,0.01953125,-1.04296875,0.016395043668542386,0.28466969579097284,15.11688880226755,0.2323563113693341,1071,0,3.512504521475279,1.8384027559423943,52.33880112331503,0.15484620813954703,0.08104464892515197,0.072265625,,
1.2827799999999698,1200,,,,-0.0625,0.03515625,-0.96484375,0.016395043668542386,0.28466969579097284,15.11674800535581,0.23077519213590633,1071,0,3.4885704254060657,1.8385219362480645,52.70129915849592,0.15483617039234693,0.08160067336402924,0.072265625,,
1.2895149999999558,1200,,,,0,0.0078125,-0.96875,0.016395043668542386,0.28466969579097284,15.11694337896212,0.2288135250404018,1071,0,3.4589611023764855,1.8385658105937313,53.15370009019591,0.15483247548209544,0.08229918965997914,0.072265625,,
1.296649999999965,1200,,,,-0.03125,0.044921875,-0.998046875,0.016395043668542386,0.28466969579097284,15.117077397570593,0.22840339562653014,1071,0,3.452791809554193,1.8385854224226803,53.24924072558169,0.15483082391454364,0.08244623814365686,0.072265625,,
1.304649999999965,1200,,,,-0.03125,0.04296875,-0.970703125,0.016395043668542386,0.28466969579097284,15.117220858827606,0.22604715127123245,1074,0,3.4172047102760343,1.8441878347719973,53.96773067841838,0.15436046720597063,0.08330484121566654,0.072265625,,
1.312859999999986,1200,,,,-0.125,0.05859375,-0.953125,0.016395043668542386,0.28466969579097284,15.11716169547049,0.22541139079467332,1075,0,3.407580442643965,1.8463831903115075,54.18458115339124,0.15417693211502081,0.08354012490167238,0.072265625,,
1.3208699999999371,1200,,,,-0.0625,0.0546875,-0.96484375,0.016395043668542386,0.28466969579097284,15.117039345437572,0.2249058857884791,1076,0,3.399911124484927,1.8472621687381816,54.332660505001705,0.15410357046689457,0.08372856976786391,0.072265625,,
1.3287999999999884,1200,,,,-0.0625,0.08203125,-0.958984375,0.016395043668542386,0.28466969579097284,15.116987963481652,0.22528008047706458,1076,0,3.405556264983963,1.847610587736399,54.25282814245618,0.15407450989969487,0.08358977906721309,0.072265625,,
1.3390099999999512,1200,,,,-0.03125,0.025390625,-0.990234375,0.016395043668542386,0.28466969579097284,15.117069886409059,0.22679607061262536,1076,0,3.428492049414021,1.8477460129184173,53.89383980733523,0.1540632174556026,0.083030583617549,0.072265625,,
1.3485049999999466,1200,,,,-0.0625,0.021484375,-0.95703125,0.016395043668542386,0.28451048689989966,15.11689887813226,0.22673666372355003,1076,0,3.427555217473985,1.8478096339126324,53.910426431420646,0.15397175211034309,0.08300682814661586,0.072265625,,
1.3549749999999767,1200,,,,-0.03125,0.041015625,-0.951171875,0.016395043668542386,0.28451048689989966,15.116975769811962,0.22528680567731235,1076,0,3.4056551826822665,1.8478239177611335,54.257516355657664,0.15397056189456582,0.08354060280284205,0.072265625,,
1.3624649999999674,1200,,,,-0.0625,0.04296875,-0.96875,0.016395043668542386,0.28451048689989966,15.116933516402787,0.22503378728191,1076,0,3.4018208012849604,1.8478300847736622,54.3188543051911,0.15397004802784608,0.08363476606187847,0.072265625,,
1.3706649999999792,1200,,,,-0.0625,0.03515625,-0.998046875,0.016395043668542386,0.28451048689989966,15.117019544361442,0.22454148098264995,1076,0,3.3943979565345823,1.847832971851477,54.43772343470214,0.15396980746307828,0.08381765795969393,0.072265625,,
1.3777699999999604,1200,,,,0,0.046875,-0.953125,0.016395043668542386,0.28451048689989966,15.117149150064577,0.22318805436822695,1076,0,3.3739671063972088,1.8476238587982636,54.76116987907432,0.15398723368129255,0.08432521062829976,0.072265625,,
1.385789999999979,1200,,,,-0.09375,0.041015625,-0.99609375,0.016395043668542386,0.28451048689989966,15.117288409037773,0.22236968002375676,1076,0,3.3616265863445767,1.8474150110564054,54.955985253117575,0.15400464172758255,0.08463476819692684,0.072265625,,
1.3938649999999324,1200,,,,0,0.03125,-0.95703125,0.01613490606781328,0.28451048689989966,15.117159296797222,0.2224396737181493,1076,0,3.3626559815248616,1.8180206592224872,54.06502090047495,0.15649463907719083,0.08460885932520604,0.072265625,,
1.4004799999999231,1200,,,,-0.03125,0.015625,-0.974609375,0.01613490606781328,0.28451048689989966,15.117109469740237,0.22231107436366013,1076,0,3.3607008474910125,1.8179908387330848,54.09558664200463,0.1564972060575225,0.08465808169516359,0.072265625,,
1.409034999999916,1200,,,,-0.03125,0.04296875,-0.97265625,0.01613490606781328,0.28451048689989966,15.117055676234907,0.2209091642362181,1076,0,3.33949613514943,1.8179768983337348,54.438658550877086,0.15649840609122567,0.08519563292956736,0.0703125,,
1.4167849999999744,1200,,,,-0.0625,0.05859375,-1.0078125,0.01613490606781328,0.28451048689989966,15.117199892903747,0.22041221274768968,1076,0,3.332015478944052,1.817971323284438,54.56071062012504,0.15649888601426826,0.08538690432196426,0.0703125,,
1.4236949999999489,1200,,,,-0.0625,0.03125,-0.87890625,0.01613490606781328,0.28451048689989966,15.117322499461343,0.22165168563959395,1073,0,3.3507800143629662,1.813732242464438,54.12865764657653,0.15686465743880498,0.08490873339352581,0.072265625,,
1.4309199999999256,1200,,,,-0.03125,0.0546875,-0.98828125,0.01613490606781328,0.28451048689989966,15.117520813096272,0.22100641013881436,1072,0,3.341069005101217,1.8119357073147255,54.232214436404114,0.15702018882421717,0.0851555255115961,0.0703125,,
1.438984999999986,1200,,,,-0.03125,0.068359375,-0.978515625,0.01613490606781328,0.28451048689989966,15.117445466968686,0.21899133419815284,1072,0,3.31058955247929,1.8110691939623942,54.70533768241038,0.1570953157661669,0.08593952297313046,0.0703125,,
1.4481249999999417,1200,,,,-0.09375,0.0859375,-0.966796875,0.01613490606781328,0.28451048689989966,15.117365264703881,0.21829380321448208,1072,0,3.300027158214716,1.8107108956825124,54.86957557834433,0.15712640133678488,0.08621458953501983,0.072265625,,
1.4563499999999767,1200,,,,0,0.00390625,-1,0.01613490606781328,0.28451048689989966,15.117555875601198,0.2187659667676275,1071,0,3.3072067262895235,1.8099792241068864,54.728336445347296,0.15718991859715303,0.08602742750801745,0.072265625,,
1.464829999999958,1200,,,,-0.0625,0.08203125,-1.0078125,0.01613490606781328,0.28451048689989966,15.117471150891868,0.21809412429481864,1070,0,3.2970316322059463,1.808357133708012,54.848037126598435,0.1573309174369306,0.08629292000742561,0.072265625,,
1.4725699999999489,1200,,,,-0.03125,0.015625,-0.9140625,0.01613490606781328,0.28451048689989966,15.117598006915117,0.2162032812566491,1070,0,3.2684742938140268,1.8077955962510524,55.31007539733505,0.15737978756553467,0.08704687916266293,0.072265625,,
1.480234999999986,1200,,,,-0.0625,0.05859375,-1.015625,0.01613490606781328,0.28451048689989966,15.117615537632222,0.2166277696531437,1070,0,3.2748953363909794,1.8075942709864625,55.19548215481228,0.1573973161270494,0.08687620753505904,0.072265625,,
1.4912549999999465,1200,,,,-0.03125,0.017578125,-0.96484375,0.01613490606781328,0.28451048689989966,15.117600276723127,0.21630875016530293,1070,0,3.2700692213566174,1.8074959089864513,55.273934177962005,0.15740588152115828,0.08700442334424588,0.072265625,,
1.498359999999986,1200,,,,-0.0625,0.064453125,-0.97265625,0.01613490606781328,0.2844410998888091,15.117422043222335,0.2154443467629927,1070,0,3.2569631168425026,1.8076202495559828,55.5001756147733,0.15735666822645863,0.0873332272072407,0.0703125,,
1.5068249999999535,1200,,,,0,0.02734375,-0.953125,0.01613490606781328,0.2844410998888091,15.117483017459634,0.21585268486993342,1070,0,3.2631492977942846,1.8077297431512824,55.398315497645534,0.15734713718487803,0.08716766348419185,0.0703125,,
1.5148549999999232,1200,,,,-0.0625,0.03515625,-0.958984375,0.01613490606781328,0.2844410998888091,15.11740888213333,0.21733636357165734,1070,0,3.285562673068731,1.807773431827984,55.02173027000927,0.157343334557798,0.08657302513822993,0.0703125,,
1.5228299999999582,1200,,,,-0.03125,0.03125,-0.94921875,0.01613490606781328,0.2844410998888091,15.117276129088411,0.21638803521105118,1070,0,3.2711976793163666,1.8077900967198277,55.26385972178942,0.1573418841075176,0.086953198116799,0.0703125,,
1.5305749999999534,1200,,,,-0.0625,0.05078125,-0.94921875,0.01613490606781328,0.2844410998888091,15.11721489440917,0.21716047210133627,1070,0,3.2828615233272473,1.8077967795798036,55.06771353997182,0.15734130246372238,0.08664425772078325,0.0703125,,
1.5388699999999371,1200,,,,-0.03125,0.03125,-0.970703125,0.01613490606781328,0.2844410998888091,15.117153846884024,0.216948331194076,1070,0,3.2796412994855952,1.8077442340426904,55.12018141515145,0.15734587588904017,0.08672933223929798,0.0703125,,
1.546984999999928,1200,,,,-0.0625,0.029296875,-0.978515625,0.016025750427449775,0.2844410998888091,15.117097589658458,0.21611724542033856,1070,0,3.2670654898274254,1.795440476102811,54.95575407634852,0.1584241325038065,0.08706317665638041,0.0703125,,
1.5550749999999534,1200,,,,0,0.01171875,-1,0.016025750427449775,0.2844410998888091,15.117109213122033,0.2158556393080536,1070,0,3.2631132736881234,1.7954111072987406,55.021415339023235,0.15842672395892704,0.08716862579744909,0.0703125,,
1.5629899999999324,1200,,,,-0.0625,0.0625,-0.9921875,0.016025750427449775,0.2844410998888091,15.117152921511025,0.2173082171998876,1070,0,3.285081550511633,1.7953994968221216,54.65311801901838,0.15842774847173194,0.08658570434712921,0.0703125,,
1.570609999999986,1200,,,,0,0,-0.984375,0.016025750427449775,0.2844410998888091,15.117225803212666,0.21699381362567943,1070,0,3.280344478479641,1.7953949608346302,54.73190308557933,0.15842814873256647,0.08671074082458576,0.0703125,,
1.5776449999999604,1200,,,,-0.03125,0.0390625,-0.98828125,0.016025750427449775,0.2844410998888091,15.117260084459046,0.21710253259932868,1069,0,3.2819954502988002,1.7946759432113277,54.68246286106022,0.15849162126720248,0.08666712193733023,0.0703125,,
1.5856599999999161,1200,,,,-0.03125,0.015625,-0.95703125,0.016025750427449775,0.2844410998888091,15.117393353082734,0.21563476833416392,1069,0,3.259835613508425,1.794351672973355,55.04423798358866,0.1585202634316784,0.08725627105554475,0.0703125,,
1.5929149999999208,1200,,,,-0.0625,0.046875,-0.98046875,0.016025750427449775,0.2844410998888091,15.117390797084123,0.2156116510555241,1069,0,3.259485589410893,1.7942296617422746,55.04640571417764,0.15853104312889604,0.08726564118365006,0.0703125,,
1.5999799999999231,1200,,,,-0.0625,0.03515625,-0.94921875,0.016025750427449775,0.2844410998888091,15.117163105715449,0.21577380850634867,1069,0,3.2618878571318843,1.7941785077955863,55.00429770670207,0.15853556301835714,0.08720137305361342,0.0703125,,
1.6078499999999767,1200,,,,-0.03125,0.037109375,-1.00390625,0.016025750427449775,0.2844410998888091,15.11710566814147,0.21595555286061577,1069,0,3.2646229122158394,1.7941538555610723,54.957460748301344,0.1585377413465235,0.08712831697175916,0.068359375,,
1.6150849999999628,1200,,,,-0.0625,0.078125,-0.9375,0.016025750427449775,0.2844410998888091,15.117058845563324,0.21591974632024463,1069,0,3.264071511042243,1.7941449286816273,54.966471249545116,0.15853853016089509,0.0871430356003398,0.0703125,,
1.6223599999999279,1200,,,,-0.03125,0.01953125,-1.0078125,0.016025750427449775,0.2844410998888091,15.116910856376688,0.21640589868295296,1069,0,3.271388679184285,1.7941406743700483,54.843396805341214,0.1585389060914529,0.08694812135858279,0.0703125,,
1.630859999999986,1200,,,,-0.0625,0.0234375,-0.9453125,0.016025750427449775,0.2844410998888091,15.116957952732248,0.21653734373582578,1069,0,3.273385920450808,1.7941390835669662,54.80988576256475,0.15853904666259525,0.08689507036482767,0.0703125,,
1.6381449999999604,1200,,,,-0.0625,0.03515625,-0.9765625,0.016025750427449775,0.2844410998888091,15.116833454249088,0.21598807403185405,1069,0,3.26505574324356,1.7941383692726263,54.94970102685903,0.15853910978121843,0.08711676683542337,0.0703125,,
1.6477499999999419,1200,,,,-0.03125,0.0390625,-0.96875,0.016025750427449775,0.28193546157121974,15.116885296769144,0.2161419239507142,1069,0,3.2673926721859456,1.7941380740397583,54.910390456358805,0.15714256647839914,0.08628759682643217,0.0703125,,
1.6550499999999302,1200,,,,-0.0625,0.015625,-0.9765625,0.016025750427449775,0.28193546157121974,15.116986114340172,0.21841592542952418,1069,0,3.3017905118688753,1.794138002490067,54.33833539834577,0.1571425727451981,0.08538865823187522,0.0703125,,
1.6638249999999535,1200,,,,-0.0625,0.068359375,-1.009765625,0.016025750427449775,0.28193546157121974,15.116751289373656,0.22122443159368824,1069,0,3.3441947115348407,1.794350078895883,53.655670009488,0.15712399987448547,0.08430593487836227,0.0703125,,
1.6720100000000093,1200,,,,0,-0.013671875,-0.947265625,0.016025750427449775,0.28193546157121974,15.116635177268016,0.22390610845925074,1069,0,3.3847069555402975,1.7944442765330548,53.016237449915636,0.15711575180029075,0.08329686004566225,0.0703125,,
1.680219999999972,1200,,,,-0.0625,0.033203125,-0.9765625,0.016025750427449775,0.28193546157121974,15.11673278896653,0.2257766339787387,1069,0,3.413005045848894,1.7944752314946057,52.5775733521741,0.15711304153047445,0.08260622465651697,0.0703125,,
1.6889749999999768,1200,,,,-0.0625,0.08984375,-0.98828125,0.01620373484413184,0.28193546157121974,15.116691943934116,0.23014594457521417,1069,0,3.4790453462892477,1.814418487672265,52.152769138451305,0.15538612700806276,0.0810381680916957,0.0703125,,
1.697509999999951,1200,,,,-0.03125,0.017578125,-0.95703125,0.01620373484413184,0.28193546157121974,15.116854122869675,0.23345087175184698,1072,0,3.5290427731294276,1.8190655510889207,51.54557958150898,0.15498917089735928,0.07989006642761928,0.0703125,,
1.7052599999999511,1200,,,,-0.0625,0.072265625,-1.005859375,0.01620373484413184,0.28193546157121974,15.116713823408027,0.2308405968111851,1076,0,3.4895512408194005,1.825552710833909,52.31482746203323,0.1544384119385039,0.08079418874073245,0.0703125,,
1.713774999999965,1200,,,,-0.0625,0.052734375,-0.96875,0.01620373484413184,0.28193546157121974,15.116674797986462,0.23021690486114957,1077,0,3.480114083784987,1.8282504638270907,52.53421065549316,0.15421052374905028,0.08101328139926539,0.0703125,,
1.7210749999999535,1200,,,,-0.0625,0.03515625,-0.97265625,0.01620373484413184,0.28193546157121974,15.116732092678149,0.2283454356090065,1078,0,3.4518367746872403,1.8291053231627916,52.98933415901512,0.15413845118755215,0.08167693896730242,0.0703125,,
1.7290449999999837,1200,,,,0,0.0078125,-1.02734375,0.01620373484413184,0.28193546157121974,15.116696680745475,0.22623368334113036,1078,0,3.419905970035688,1.8295023401364772,53.495691289938755,0.15410500188274587,0.08243953606954803,0.0703125,,
1.7371799999999349,1200,,,,-0.03125,0.048828125,-0.9765625,0.01620373484413184,0.28193546157121974,15.116662132946248,0.22363161434536075,1079,0,3.380563556304154,1.8313163625774314,54.171925244900365,0.1539523521618177,0.08339895312586564,0.0703125,,
1.7521049999999814,1200,,,,-0.03125,0.015625,-0.986328125,0.01620373484413184,0.28193546157121974,15.116475762400084,0.22080937340681878,1082,0,3.3378595412149257,1.836454809431842,55.01893614023683,0.1535215895992803,0.08446594534310449,0.068359375,,
1.7609899999999907,1200,,,,-0.041015625,0.04296875,-0.9765625,0.01620373484413184,0.28193546157121974,15.116406186255247,0.220166322401752,1083,0,3.328123557958911,1.8373815048714786,55.20773110954803,0.15344415997642286,0.08471303924308826,0.068359375,,
1.7673949999999605,1200,,,,-0.0625,0.03125,-0.96484375,0.01620373484413184,0.28193546157121974,15.116444035192428,0.21854712213128677,1083,0,3.303655340749961,1.837666254372726,55.62524128063426,0.15342038354372262,0.08534045851987021,0.068359375,,
1.7742799999999697,1200,,,,-0.03125,0.078125,-0.982421875,0.01620373484413184,0.28193546157121974,15.116509895450763,0.2163821681442202,1083,0,3.2709431859511957,1.8377989190662891,56.18559585381041,0.15340930862798616,0.08619393414784503,0.068359375,,
1.7817799999999697,1200,,,,-0.0625,0.015625,-1.00390625,0.01620373484413184,0.28193546157121974,15.11639582725949,0.2159297966786727,1079,0,3.2640802774944784,1.8308903250887192,56.09207401277882,0.15398817597529116,0.08637516163898842,0.068359375,,
1.7890650000000023,1200,,,,-0.03125,0.01953125,-0.97265625,0.01620373484413184,0.28193546157121974,15.116300265893011,0.21529062362069648,1077,0,3.2543977110818063,1.8282078308008012,56.176533819927,0.1542141198726432,0.08663214720535817,0.068359375,,
1.798884999999951,1200,,,,-0.0625,0.0390625,-1.0078125,0.01620373484413184,0.2808628179083753,15.11638828796308,0.21483201921320047,1077,0,3.247484219113883,1.8267745769878474,56.2519924265038,0.1537479344449207,0.08648627643986281,0.068359375,,
1.80575,1200,,,,-0.0625,0.0390625,-0.982421875,0.01620373484413184,0.2808628179083753,15.116219395220002,0.21388748097858593,1076,0,3.23317008836325,1.8262156700998,56.48374877253358,0.15379498845994818,0.08686917490646413,0.068359375,,
1.821304999999993,1200,,,,-0.0625,0.072265625,-0.986328125,0.01620373484413184,0.2808628179083753,15.116465717905541,0.21232489165579335,1074,0,3.2096019457728087,1.8219317998589322,56.765039112046246,0.1541566034086028,0.0875070562186954,0.068359375,,
1.833594999999972,1200,,,,0,0.01171875,-0.97265625,0.01620373484413184,0.2808628179083753,15.116075584096606,0.21222032032505447,1073,0,3.2079384025147166,1.8201060739134185,56.73756305565685,0.1543112359954334,0.08755243482487247,0.068359375,,
1.8407949999999256,1200,,,,-0.0625,0.046875,-0.943359375,0.016431057816663933,0.2808628179083753,15.11631489977776,0.21225532047455145,1072,0,3.2085182634465657,1.8451652286993694,57.50832867995918,0.15221553795827353,0.08753661187101196,0.068359375,,
1.849899999999965,1200,,,,-0.0625,0.0703125,-1.005859375,0.016431057816663933,0.2808628179083753,15.116521214137432,0.21156483172831442,1072,0,3.198124266986481,1.8449623195212201,57.68888778232767,0.1522322786414744,0.08782110839396053,0.0703125,,
1.8569999999999418,1200,,,,-0.03125,0.111328125,-0.998046875,0.016431057816663933,0.2808628179083753,15.116499261026732,0.21079900339521226,1072,0,3.1865429790488977,1.8441482799260507,57.87300821144055,0.15229947665576965,0.08814028863097453,0.0703125,,
1.8641199999999372,1200,,,,-0.125,0.0546875,-0.9609375,0.016431057816663933,0.2808628179083753,15.116601974087212,0.21162053275233375,1071,0,3.198983363161316,1.8433605233083137,57.62332322624706,0.15236456154778963,0.08779752378293695,0.0703125,,
1.8713199999999488,1200,,,,0.0625,0.06640625,-0.9921875,0.016431057816663933,0.2808628179083753,15.11681310555431,0.21090831675305313,1071,0,3.1882616067629534,1.843074854244856,57.80814379646005,0.1523881774315945,0.08809277673846085,0.0703125,,
1.8791399999999558,1200,,,,-0.0625,0.03515625,-0.94921875,0.016431057816663933,0.2808628179083753,15.116773768908013,0.2103759466688459,1071,0,3.180205592212801,1.842923494123765,57.94982244658752,0.15240069313995808,0.0883159310819744,0.0703125,,
1.8872549999999464,1200,,,,-0.0625,0.037109375,-0.951171875,0.016431057816663933,0.2808628179083753,15.117133582930352,0.2111519087852643,1071,0,3.1920116113975654,1.8428623256075378,57.733572115693946,0.1524057516427783,0.08798928453314883,0.0703125,,
1.8962849999999745,1200,,,,0,0.0390625,-1.0078125,0.016431057816663933,0.2808628179083753,15.117143368224637,0.21176458535555076,1071,0,3.201275597132504,1.842580258800704,57.55768920523957,0.15242908229744243,0.08773465744716077,0.0703125,,
1.9053899999999557,1200,,,,-0.0625,0.02734375,-0.9453125,0.016431057816663933,0.2808628179083753,15.117153935962188,0.2112319264029629,1070,0,3.1932255476234257,1.8419088873962268,57.68176597381532,0.15248464233505638,0.08795583453771653,0.0703125,,
1.9129799999999815,1200,,,,-0.0625,0.06640625,-0.978515625,0.016431057816663933,0.2808628179083753,15.117019378039952,0.21120691982825235,1070,0,3.1928190998198214,1.841670554954613,57.681644257845456,0.15250437552621726,0.08796703136868138,0.0703125,,
1.9213150000000023,1200,,,,-0.03125,0.0703125,-0.970703125,0.016431057816663933,0.2808628179083753,15.117068543997146,0.2122713636264729,1070,0,3.2089207538691333,1.8415873664575606,57.38961812120414,0.15251126447975,0.08752563227674817,0.0703125,,
1.9288799999999464,1200,,,,-0.0625,0.0703125,-0.99609375,0.016431057816663933,0.2808628179083753,15.11701708764368,0.21136150413977406,1070,0,3.1951554697510347,1.8415557230079833,57.63587219596161,0.15251388508060787,0.08790270788615492,0.0703125,,
1.9360899999999674,1200,,,,-0.03125,0.052734375,-0.96875,0.016431057816663933,0.2808628179083753,15.117060156005088,0.21171558773521318,1070,0,3.200517275757191,1.841056134069077,57.52370555892446,0.1525552712440202,0.08775544504502875,0.0703125,,
1.9443549999999814,1200,,,,0,0.03125,-0.97265625,0.016431057816663933,0.2838339060979129,15.117007838936223,0.21177608099241177,1070,0,3.201420676461481,1.840564884355095,57.492128350637905,0.15421021476097752,0.08865873460017555,0.068359375,,
1.9545699999999488,1200,,,,-0.0625,0.064453125,-0.982421875,0.016431057816663933,0.2838339060979129,15.117023654992083,0.21256596541484302,1070,0,3.213364727422411,1.8403745447418272,57.272507195847545,0.15422616385825416,0.08832919079359823,0.068359375,,
1.9634299999999347,1200,,,,-0.03125,0.02734375,-0.978515625,0.016431057816663933,0.2838339060979129,15.11686433189962,0.21596558416778253,1070,0,3.264722436223817,1.8402855715542958,56.36882177594509,0.1542336203061073,0.08693967454893747,0.068359375,,
1.972219999999972,1200,,,,-0.03125,0.056640625,-0.97265625,0.016431057816663933,0.2838339060979129,15.116599586096342,0.2205258316180072,1070,0,3.333600694960319,1.8402616290715488,55.20342108920319,0.154235626942411,0.08514334261059166,0.068359375,,
1.9798099999999395,1200,,,,-0.0625,0.03515625,-0.98046875,0.016431057816663933,0.2838339060979129,15.11651632298105,0.2218819277416663,1071,0,3.3540817824814004,1.8433693486455922,54.958986339380175,0.15397560250551995,0.08462343034698704,0.068359375,,
1.9880749999999534,1200,,,,-0.0625,0.076171875,-1.013671875,0.016431057816663933,0.2838339060979129,15.116487837123124,0.22066757909355347,1072,0,3.335718775415106,1.8449169487484438,55.307928304563305,0.15384644077906076,0.08508927916520537,0.068359375,,
1.9950549999999347,1200,,,,0,0.0078125,-1.02734375,0.017447860109452464,0.2838339060979129,15.116641465486124,0.21966574088797808,1073,0,3.32060824725394,1.9596036918769348,59.01339591918071,0.14484250426475415,0.08547648050101557,0.0703125,,
2.0034199999999256,1200,,,,-0.03125,0.015625,-0.92578125,0.017447860109452464,0.2838339060979129,15.116707890591996,0.21679036023068896,1073,0,3.277156549103537,1.9598417006048736,59.80311502485246,0.14482491418072804,0.08660981001214464,0.0703125,,
2.011244999999937,1200,,,,-0.0625,0.05859375,-0.984375,0.017447860109452464,0.2838339060979129,15.116674115834531,0.21660624965701675,1073,0,3.2743660875182172,1.959934633293782,59.8569182830531,0.14481804713094634,0.08668362013028387,0.0703125,,
2.0198349999999627,1200,,,,-0.03125,0.0234375,-0.9453125,0.017447860109452464,0.2838339060979129,15.116637404502498,0.21581478959358524,1076,0,3.262393920815227,1.96513755097844,60.236059736384604,0.14443462543199195,0.08700172725523801,0.068359375,,
2.027079999999958,1200,,,,0,0.0234375,-1.0546875,0.017447860109452464,0.2838339060979129,15.116609094320637,0.21510706412095756,1076,0,3.2516894017434796,1.9668248037797624,60.48624455721991,0.1443107212968093,0.08728813580587612,0.0703125,,
2.0352549999999465,1200,,,,-0.0625,0.029296875,-0.91796875,0.017447860109452464,0.2838339060979129,15.116579613102262,0.21479201340769247,1077,0,3.2469205709359117,1.9675773199992979,60.598258473324826,0.1442555284678796,0.08741633800302634,0.0703125,,
2.043609999999986,1200,,,,0,0.0078125,-1.00390625,0.017447860109452464,0.2838339060979129,15.116748374089497,0.21395109473839666,1077,0,3.2342448635213255,1.967880407745426,60.845127403336775,0.14423331061215128,0.0877589416000139,0.0703125,,
2.0514349999999393,1200,,,,-0.03125,0.07421875,-0.9765625,0.017447860109452464,0.2838339060979129,15.117103175442095,0.21326502898679417,1077,0,3.2239494469070165,1.9679987364082336,61.04310160000451,0.14422463838362728,0.0880391925407567,0.0703125,,
2.060374999999942,1200,,,,-0.0625,0.02734375,-0.958984375,0.017447860109452464,0.2838339060979129,15.117115955963774,0.21193219435189456,1075,0,3.203803556819441,1.9640016067625639,61.302185728026224,0.1445181638958948,0.08859279324219477,0.0703125,,
2.06790499999997,1200,,,,0,0.09375,-0.95703125,0.017447860109452464,0.2838339060979129,15.117256577466206,0.21293336132799998,1073,0,3.218968257097696,1.9607563524308762,60.91257184992387,0.14475735638751125,0.08817542871759314,0.068359375,,
2.0761299999999463,1200,,,,-0.0625,0.07421875,-0.9765625,0.017447860109452464,0.2838339060979129,15.117260441553533,0.21431728210242498,1072,0,3.239890170668258,1.9594655717449934,60.47938258786208,0.14485271402096947,0.08760602710164385,0.068359375,,
2.0841599999999745,1200,,,,-0.03125,0.025390625,-0.96484375,0.017447860109452464,0.2838339060979129,15.117588983124048,0.2136150320130798,1072,0,3.2293442545906257,1.9589578572574333,60.6611653270693,0.14489025634031968,0.08789211794141585,0.068359375,,
2.0923799999999466,1200,,,,0,0.078125,-0.9921875,0.017447860109452464,0.2850933053619659,15.117642364655355,0.21347422916476405,1072,0,3.227227050583383,1.9587551753934611,60.69468136861889,0.1455482078329153,0.08834002098192312,0.068359375,,
2.1001149999999327,1200,,,,-0.0625,0.072265625,-0.951171875,0.017447860109452464,0.2850933053619659,15.117367691458318,0.21408213995043324,1071,0,3.2363584258049376,1.9573772530638731,60.48085519381371,0.14565066847267727,0.08809076988778161,0.068359375,,
2.1107399999999323,1200,,,,-0.0625,0.1171875,-1.04296875,0.017447860109452464,0.2850933053619659,15.117300548922358,0.2141326535745919,1071,0,3.2371076814253796,1.9568283865748242,60.44990093481177,0.14569152170823982,0.08807038054305076,0.0703125,,
2.126814999999944,1200,,,,-0.0625,0.05078125,-0.953125,0.017447860109452464,0.2850933053619659,15.11738418569149,0.21397680875001793,1071,0,3.2347696247022535,1.956517712840197,60.483989273897244,0.14571465593741423,0.0881340368676819,0.068359375,,
2.134869999999937,1200,,,,-0.03125,0.07421875,-0.98828125,0.017447860109452464,0.2850933053619659,15.117454157814944,0.2142752377242835,1071,0,3.2392960834517552,1.9564881066555124,60.398557472112955,0.14571686093677008,0.088010881999454,0.068359375,,
2.1422849999999163,1200,,,,-0.0625,0.0234375,-0.95703125,0.016440583822558544,0.2850933053619659,15.11756616956913,0.21364424448218916,1070,0,3.229781002707099,1.843005222319009,57.06285413079899,0.15468936382244206,0.08827016603386106,0.068359375,,
2.1502949999999257,1200,,,,-0.03125,0.05859375,-0.986328125,0.016440583822558544,0.2850933053619659,15.117392993934986,0.21424277447756498,1070,0,3.238792217888334,1.8427624281587374,56.896593056537704,0.15470974500322712,0.0880245740332933,0.068359375,,
2.1572149999999093,1200,,,,-0.03125,0.0546875,-0.97265625,0.016440583822558544,0.2850933053619659,15.117332527263162,0.21560034141437856,1070,0,3.259302054152628,1.8426717274078444,56.53577658014617,0.1547173601903674,0.08747066108792612,0.068359375,,
2.16539499999996,1200,,,,-0.0625,0.01953125,-0.96875,0.016440583822558544,0.2850933053619659,15.117267629246344,0.21578790162827668,1070,0,3.2621234600681417,1.842629828474505,56.48559446110034,0.15472087825583059,0.08739500783824124,0.068359375,,
2.1727999999999885,1200,,,,-0.0625,0.0546875,-1.01171875,0.016440583822558544,0.2850933053619659,15.117335242585767,0.21554540582410722,1070,0,3.2584721598422277,1.8426132802189472,56.54838187441089,0.1547222677826841,0.08749293883050083,0.0703125,,
2.180569999999949,1200,,,,-0.041015625,0.02734375,-0.96484375,0.016440583822558544,0.2850933053619659,15.11746517512391,0.21637044947793857,1070,0,3.2709727349086437,1.8429400135436342,56.34226155037353,0.1546948371986259,0.08715856977937432,0.068359375,,
2.1875199999999606,1200,,,,0,0,-0.953125,0.016440583822558544,0.2850933053619659,15.117517917600187,0.21688631125206814,1071,0,3.2787826964353513,1.8430621962439013,56.21178244742031,0.1546845819652622,0.08695096069401474,0.068359375,,
2.1950049999999464,1200,,,,-0.0625,0.05859375,-0.9609375,0.016440583822558544,0.2850933053619659,15.117452297258122,0.2164342442755242,1071,0,3.271934363328349,1.8431143836995778,56.33103170885997,0.1546802020988597,0.08713295369163733,0.068359375,,
2.2021199999999372,1200,,,,-0.0625,0.05078125,-1.001953125,0.016440583822558544,0.2850933053619659,15.117562554028739,0.21684668196086318,1071,0,3.2781932791769246,1.8431371268076573,56.22417502089518,0.15467829344621367,0.086966594426533,0.068359375,,
2.209454999999958,1200,,,,-0.0625,0.0078125,-0.9453125,0.016440583822558544,0.2850933053619659,15.117495330991076,0.2166784952568188,1071,0,3.2756361403711303,1.8431469839678434,56.26836757757272,0.15467746622585135,0.08703448525563794,0.068359375,,
2.2184399999999442,1200,,,,-0.03125,0.0703125,-1.025390625,0.016440583822558544,0.2850933053619659,15.117633440267204,0.21730968911566872,1071,0,3.2852082230691035,1.8435663752176121,56.11718497086062,0.15464227878874925,0.08678089363103637,0.068359375,,
2.2265499999999303,1200,,,,-0.0625,0.0234375,-0.98828125,0.016440583822558544,0.2850933053619659,15.117749049483237,0.21773216421862715,1071,0,3.2916202186580787,1.8440971158734185,56.023994062875715,0.1545977719437717,0.0866118465751168,0.068359375,,
2.2336549999999695,1200,,,,-0.0625,0.03515625,-1.00390625,0.016440583822558544,0.2850933053619659,15.117793494408126,0.21823532551700006,1071,0,3.2992365843509432,1.844306184551016,55.90099822786262,0.15458024689722005,0.08641190107864063,0.068359375,,
2.2413399999999672,1200,,,,-0.0625,0.05859375,-0.984375,0.016440583822558544,0.2850933053619659,15.117803329282943,0.21999016751514847,1071,0,3.3257680868700237,1.844388606350121,55.45752313974268,0.15457333903517215,0.08572254526330352,0.068359375,,
2.248539999999979,1200,,,,-0.0625,0.037109375,-0.94921875,0.016440583822558544,0.2856367771998376,15.117731110070828,0.22035987920115852,1071,0,3.331341401210804,1.8444188911585324,55.365652121039375,0.15486545847533634,0.08574227099510744,0.068359375,,
2.2557399999999905,1200,,,,-0.0625,0.0546875,-0.978515625,0.016440583822558544,0.2856367771998376,15.117840390153468,0.2200024202140261,1071,0,3.32596147424312,1.843881732104419,55.43905864165267,0.1549105738326508,0.08588096386920392,0.068359375,,
2.2657999999999303,1200,,,,-0.0625,0.05078125,-0.99609375,0.016440583822558544,0.2856367771998376,15.117818463580518,0.2201668855151016,1071,0,3.3284430069092212,1.8431579624536167,55.375980860347255,0.15497140398080542,0.08581693500742221,0.068359375,,
2.2731299999999464,1200,,,,-0.0625,0.0625,-0.97265625,0.016440583822558544,0.2856367771998376,15.117951973998448,0.22038857572605283,1070,0,3.331823903444387,1.8427833263360407,55.30854510140828,0.1550029095215236,0.08572985412120697,0.0703125,,
2.2815599999999394,1200,,,,-0.03125,0.06640625,-1.025390625,0.016440583822558544,0.2856367771998376,15.1179541913845,0.22005158256656346,1070,0,3.3267297449829707,1.8426784301171404,55.39008489932424,0.15501173320929335,0.08586113062854156,0.0703125,,
2.2904199999999837,1200,,,,-0.03125,0.009765625,-0.96875,0.016440583822558544,0.2856367771998376,15.11784019022439,0.2197630087085136,1070,0,3.3223420453781993,1.8426281603186327,55.46172354173957,0.15501596217353178,0.08597452438625178,0.0703125,,
2.2991749999999884,1200,,,,-0.0625,0.0703125,-1.03125,0.016001929406502715,0.2856367771998376,15.117749777771358,0.21974765648210345,1071,0,3.3220900849480963,1.7945359595172585,54.01828107094501,0.15917027222830116,0.08598104503367203,0.0703125,,
2.3064249999999884,1200,,,,-0.03125,0.025390625,-0.974609375,0.016001929406502715,0.2856367771998376,15.117762060152174,0.22037014434686802,1071,0,3.3315034073973395,1.7949574134841908,53.87830039430936,0.1591328992287278,0.08573810147262757,0.0703125,,
2.3146499999999652,1200,,,,-0.125,0.12109375,-0.91015625,0.016001929406502715,0.2856367771998376,15.117872544352453,0.22096759756019402,1071,0,3.3405599763467793,1.7951247428243136,53.737240329013744,0.15911806594033034,0.08550565750123387,0.0703125,,
2.3223099999999395,1200,,,,-0.03125,0.060546875,-0.99609375,0.016001929406502715,0.2856367771998376,15.117781323601806,0.22184514743078754,1071,0,3.353806426560849,1.7951899503764703,53.52693990205459,0.1591122862179217,0.08516793782065205,0.0703125,,
2.32964499999996,1200,,,,-0.0625,0.0546875,-0.978515625,0.016001929406502715,0.2856367771998376,15.117703719424071,0.22174075855166092,1071,0,3.352211090304359,1.7952143105178577,53.55314036488269,0.15911012714545553,0.08520846972494911,0.0703125,,
2.337609999999986,1200,,,,-0.0625,0.0078125,-0.88671875,0.016001929406502715,0.2856367771998376,15.117491489322646,0.22184038105479845,1071,0,3.3536700725840083,1.794684851492854,53.51405512916321,0.1591570670261352,0.08517140059032523,0.0703125,,
2.34627999999997,1200,,,,-0.03125,0.0390625,-0.95703125,0.016001929406502715,0.2856367771998376,15.117415952628512,0.221719326859807,1071,0,3.351823288876502,1.794469778719206,53.53712365071295,0.15917614249469805,0.08521832822982152,0.0703125,,
2.3543099999999977,1200,,,,-0.03125,0.0546875,-0.95703125,0.016001929406502715,0.2856367771998376,15.117340791296536,0.22252109472741352,1071,0,3.363927222246689,1.7943851367834294,53.34197258836656,0.15918365090331893,0.08491169943000951,0.0703125,,
2.3616599999999743,1200,,,,-0.0625,0.02734375,-0.9453125,0.016001929406502715,0.2856367771998376,15.117282994909438,0.22393442363021127,1071,0,3.385280054319839,1.7943572187115533,53.00469059928545,0.15918612761228249,0.08437611441787406,0.0703125,,
2.3695799999999583,1200,,,,0,0.015625,-1.0078125,0.016001929406502715,0.2856367771998376,15.117416076791857,0.22456519141892986,1071,0,3.394845435044371,1.7943441521686398,52.85495868665926,0.1591872868170901,0.08413837468158675,0.0703125,,
2.377834999999963,1200,,,,-0.0625,0.04296875,-0.9609375,0.016001929406502715,0.2856367771998376,15.117346219081725,0.22399124734816403,1071,0,3.386153236206167,1.7942300319425193,52.98726628074185,0.1591974117669815,0.08435435648501956,0.068359375,,
2.385424999999988,1200,,,,-0.03125,0.08984375,-1.021484375,0.016001929406502715,0.2856367771998376,15.117345691372014,0.22377154170912533,1071,0,3.382831751908119,1.7940779583756692,53.034797174399884,0.15921090600680968,0.08443718108023594,0.0703125,,
2.3925099999999513,1200,,,,0,0.00390625,-0.984375,0.016001929406502715,0.2913259090354466,15.11728647220723,0.22386797143546025,1071,0,3.384276256141758,1.79402036540719,53.01045865128226,0.162387180576584,0.08608218921453313,0.0703125,,
2.4005499999999302,1200,,,,-0.0625,0.068359375,-0.984375,0.016001929406502715,0.2913259090354466,15.117417565721663,0.2233398716517843,1071,0,3.3763220988347054,1.7939943541222736,53.134573704962804,0.16238953504286815,0.08628498718649918,0.0703125,,
2.408304999999993,1200,,,,0,0.03125,-0.94921875,0.016001929406502715,0.2913259090354466,15.117479318888705,0.22293356515381432,1071,0,3.3701935606989157,1.7939838507033348,53.230884766490846,0.1623904858013252,0.0864418923686481,0.068359375,,
2.418024999999965,1200,,,,-0.0625,0.03125,-1,0.016001929406502715,0.2913259090354466,15.117414569318997,0.22221014605771094,1071,0,3.3592428994633416,1.794592378077402,53.42252500895659,0.16233542089794917,0.08672368082760182,0.068359375,,
2.425439999999944,1200,,,,-0.0625,0.04296875,-0.966796875,0.016001929406502715,0.2913259090354466,15.117489892374628,0.22230516435829814,1071,0,3.3606960752092525,1.7952609060154219,53.41931748182973,0.16227496964886506,0.08668618123027005,0.068359375,,
2.4332099999999626,1200,,,,0,0,-1.03125,0.016001929406502715,0.2913259090354466,15.117612390058694,0.2217425463203153,1071,0,3.352217865655162,1.7954607340438544,53.56038318508713,0.16225690905492723,0.08690542223409738,0.0703125,,
2.442815000000002,1200,,,,-0.03125,0.013671875,-0.98046875,0.01574365855200935,0.2913259090354466,15.117516151042654,0.2208279251504073,1072,0,3.338369725062521,1.7665681093477692,52.91708992222798,0.16491065784211764,0.08726592110165109,0.068359375,,
2.450979999999923,1200,,,,-0.0625,0.03515625,-0.958984375,0.01574365855200935,0.2913259090354466,15.117573583684072,0.2216256462961072,1072,0,3.35044201591294,1.7665943615966901,52.727202954304,0.16490820720843874,0.08695148510309768,0.068359375,,
2.458684999999998,1200,,,,-0.0625,0.041015625,-0.96484375,0.01574365855200935,0.2913259090354466,15.117626812798056,0.22088629267811827,1071,0,3.3392765407702796,1.7654338491258426,52.868752484890194,0.16501661004160367,0.08724222312185191,0.068359375,,
2.469274999999965,1200,,,,-0.0625,0.0546875,-0.9609375,0.01574365855200935,0.2913259090354466,15.117522772061735,0.2182956694107734,1071,0,3.3000897533598272,1.7649087759383362,53.48062955383196,0.1650657036823671,0.0882781775067927,0.068359375,,
2.477664999999979,1200,,,,-0.041015625,0.03125,-0.966796875,0.01574365855200935,0.2913259090354466,15.11757635120938,0.21865464115228977,1070,0,3.305528232166029,1.7647675951445791,53.38836855095235,0.16507890888124543,0.0881329362734101,0.068359375,,
2.4855599999999396,1200,,,,-0.0625,0.0390625,-0.94921875,0.01574365855200935,0.2913259090354466,15.117499050766027,0.21933266649989222,1070,0,3.315761377614102,1.7647082498155324,53.22181088572033,0.16508446031569204,0.08786093927092964,0.068359375,,
2.4935749999999532,1200,,,,-0.0625,0.056640625,-1.005859375,0.01574365855200935,0.2913259090354466,15.117425633111129,0.21870025316901848,1070,0,3.3061848132252134,1.764684884513364,53.37526436678226,0.16508664611573623,0.08811543379852849,0.068359375,,
2.5015449999999255,1200,,,,-0.0625,0.01953125,-0.94921875,0.01574365855200935,0.2913259090354466,15.11742118769617,0.21873718317120344,1070,0,3.306742127409329,1.764675644704348,53.36598914312333,0.16508751050635997,0.08810058293347664,0.068359375,,
2.5095999999999767,1200,,,,-0.0625,0.048828125,-1.01171875,0.01574365855200935,0.2913259090354466,15.11748231545975,0.2174950092622443,1070,0,3.2879769562227326,1.764672014563634,53.670449582192646,0.1650878501110504,0.08860339136017707,0.068359375,,
2.517679999999993,1200,,,,-0.0625,0.04296875,-0.978515625,0.01574365855200935,0.2913259090354466,15.117803739608654,0.21727040070113357,1070,0,3.2846512762258677,1.7646705783593586,53.7247467069625,0.16508798447033485,0.08869310150031698,0.068359375,,
2.525579999999958,1200,,,,-0.0625,0.06640625,-1.05078125,0.01574365855200935,0.2913259090354466,15.117910769986265,0.21642515124717232,1070,0,3.271896124935533,1.7646700177645183,53.93416998527996,0.1650880369149683,0.08903886245508073,0.0703125,,
2.5336699999999257,1200,,,,0,0.005859375,-0.984375,0.01574365855200935,0.2913259090354466,15.117948067974842,0.21614662414766364,1070,0,3.2676934389324557,1.7646697942883436,54.00352962317222,0.16508805782156688,0.08915337820998954,0.068359375,,
2.5414349999999395,1200,,,,-0.0625,0.03515625,-0.96875,0.01574365855200935,0.2913259090354466,15.11804757694128,0.21567530248661218,1070,0,3.2605894841638046,1.7637154752769788,54.0919206126095,0.16517738440192342,0.08934761964067324,0.068359375,,
2.549609999999928,1200,,,,-0.0625,0.03125,-0.9609375,0.01574365855200935,0.2938758667980708,15.118143440336624,0.21522159624562331,1070,0,3.2537509634995474,1.7633332607746925,54.19386057985681,0.16665928859582738,0.09031910250500391,0.068359375,,
2.557804999999935,1200,,,,-0.03125,0.033203125,-0.998046875,0.01574365855200935,0.2938758667980708,15.118235585837446,0.21543139413599824,1069,0,3.2569425691334213,1.7631816862960497,54.136100003912006,0.16667361570401834,0.09023059527766335,0.068359375,,
2.5692099999999627,1200,,,,-0.0625,0.033203125,-0.931640625,0.01574365855200935,0.2938758667980708,15.118186369563785,0.2161256686273785,1069,0,3.267428137555293,1.763119466019579,53.96046651354218,0.1666794975961132,0.08994103448529102,0.068359375,,
2.5775849999999627,1200,,,,-0.0625,0.05078125,-0.982421875,0.01574365855200935,0.2938758667980708,15.11817409190596,0.2159146035981565,1069,0,3.264234566181795,1.7631768284472793,54.01501616073146,0.16667407491786806,0.09002902850263611,0.068359375,,
2.5851749999999885,1200,,,,-0.0625,0.046875,-0.984375,0.01574365855200935,0.2938758667980708,15.118067328951131,0.2148088428433802,1070,0,3.247494548960304,1.7633342591841048,54.29829773690127,0.16665919423243514,0.09049310549024821,0.068359375,,
2.592679999999935,1200,,,,-0.0625,0.029296875,-0.982421875,0.015993401755618065,0.2938758667980708,15.11806441486516,0.21529834688567204,1070,0,3.2548942766315734,1.791365312358788,55.036052175944626,0.16405133267379643,0.0902873770456831,0.068359375,,
2.60165499999997,1200,,,,-0.03125,0.03125,-0.9609375,0.015993401755618065,0.2938758667980708,15.118171138161578,0.21552731244198886,1070,0,3.258378794446009,1.7913941189592704,54.97808057223881,0.16404869463834187,0.0901908235159736,0.068359375,,
2.6096049999999815,1200,,,,-0.0625,0.03515625,-0.96484375,0.015993401755618065,0.2938758667980708,15.118323801410746,0.21529769418305114,1070,0,3.254940254356474,1.7914036728302112,55.036453293806616,0.164047819737793,0.09028610168949854,0.068359375,,
2.6177599999999512,1200,,,,-0.0625,0.046875,-0.970703125,0.015993401755618065,0.2938758667980708,15.1183077479322,0.2151804536812217,1070,0,3.25316432009238,1.7919171154442457,55.082281100186194,0.16400081469460942,0.09033538975668023,0.068359375,,
2.625565000000002,1200,,,,-0.03125,0.044921875,-0.978515625,0.015993401755618065,0.2938758667980708,15.118292895757893,0.21538706534660448,1070,0,3.2562847398677115,1.792365384523151,55.043263341766824,0.1639597982284482,0.09024882351351428,0.068359375,,
2.6333949999999606,1200,,,,-0.0625,-0.0390625,-0.953125,0.015993401755618065,0.2938758667980708,15.1183773247814,0.21537337392026842,1070,0,3.256095932637852,1.79254626909435,55.05201032704707,0.16394325316163025,0.09025405666103761,0.068359375,,
2.640634999999951,1200,,,,-0.03125,0.05859375,-1.009765625,0.015993401755618065,0.2938758667980708,15.118274952533097,0.214707574115833,1070,0,3.2460081398745415,1.7926119117776196,55.22512065687254,0.16393724981256694,0.09053454401054864,0.068359375,,
2.6488549999999234,1200,,,,-0.0625,0.046875,-1,0.015993401755618065,0.2938758667980708,15.118360011636833,0.21579822046664682,1070,0,3.2625151868853424,1.792642810707943,54.94665029956054,0.1639344241042724,0.09007647473317301,0.068359375,,
2.657634999999951,1200,,,,-0.0625,0.025390625,-0.95703125,0.015993401755618065,0.2938758667980708,15.118230704929855,0.21480882558601744,1070,0,3.247529382664451,1.7925408649865913,55.19706379117939,0.16394374741368536,0.09049213484158193,0.068359375,,
2.6656849999999976,1200,,,,-0.03125,0.03125,-0.96875,0.015993401755618065,0.2938758667980708,15.118121892734221,0.21439989078104824,1070,0,3.241323682616791,1.7925063434986352,55.30167669189724,0.16394690477049048,0.09066538722254928,0.068359375,,
2.673765000000014,1200,,,,-0.0625,0.0546875,-0.984375,0.015993401755618065,0.2938758667980708,15.118345674299947,0.21379394576599492,1070,0,3.2322107751628466,1.7924926132746106,55.457169657640925,0.1639481605791415,0.09092100956295607,0.068359375,,
2.682429999999935,1200,,,,-0.03125,0.015625,-1.009765625,0.015993401755618065,0.2938758667980708,15.118136199918819,0.21406662988205846,1070,0,3.2362884664145715,1.7924872682699589,55.38712901745204,0.16394864945496027,0.09080644999598904,0.068359375,,
2.6903799999999465,1200,,,,-0.0625,0.046875,-0.9765625,0.015993401755618065,0.2938758667980708,15.118238361452669,0.2141238380185012,1070,0,3.2371752220327825,1.7924849842343837,55.37188632961282,0.16394885836301315,0.09078157549146555,0.068359375,,
2.6986949999999488,1200,,,,-0.0625,0.041015625,-0.998046875,0.015993401755618065,0.2916076157496764,15.11822650727638,0.21341491253980793,1070,0,3.226454987807395,1.7916095243563495,55.52873141347852,0.16276293008346163,0.09038019028675322,0.068359375,,
2.7065849999999627,1200,,,,-0.0625,0.05078125,-0.9921875,0.015993401755618065,0.2916076157496764,15.118313319993188,0.21307296330596265,1070,0,3.2213038192789547,1.7912725276964159,55.607065591763025,0.16279355108777616,0.09052471673253994,0.068359375,,
2.7130899999999674,1200,,,,-0.0625,0.06640625,-0.978515625,0.015993401755618065,0.2916076157496764,15.118214122124497,0.21334676658419097,1069,0,3.2254220994827145,1.7911487750143855,55.5322286438617,0.16280479869537043,0.09040913305469189,0.068359375,,
2.7215149999999557,1200,,,,-0.0625,0.0390625,-0.9765625,0.015993401755618065,0.2916076157496764,15.118205189553159,0.213329724137159,1069,0,3.225162542536341,1.7910953654554027,55.53504177953291,0.16280965345222276,0.09041640906580467,0.068359375,,
2.7296699999999836,1200,,,,-0.0625,0.05859375,-0.99609375,0.015993401755618065,0.2916076157496764,15.118305644691318,0.21318652312353262,1069,0,3.2230190159106193,1.791067586759938,55.57111447119082,0.16281217856060806,0.0904765421209551,0.068359375,,
2.7368199999999487,1200,,,,-0.0625,0.03515625,-0.98828125,0.015993401755618065,0.2916076157496764,15.118323190753099,0.21327977667960668,1069,0,3.2244325938939395,1.7910584650531924,55.54646942984305,0.1628130077490329,0.09043687757712456,0.068359375,,
2.7450449999999837,1200,,,,-0.03125,0.05859375,-0.978515625,0.016148933636913016,0.2916076157496764,15.118396778010059,0.212979103783683,1069,0,3.219902596426703,1.8084726004623415,56.16544433577897,0.16124524954103595,0.09056411087505842,0.068359375,,
2.7525749999999536,1200,,,,-0.0625,0.02734375,-1.01953125,0.016148933636913016,0.2916076157496764,15.11847640378928,0.213731246416643,1069,0,3.2312908057024896,1.8084710006259048,55.96744797572434,0.1612453921841999,0.09024493098394475,0.068359375,,
2.75975,1200,,,,-0.0625,0.044921875,-0.97265625,0.016148933636913016,0.2916076157496764,15.118200324244043,0.21425298636599177,1069,0,3.2391195679485913,1.8084704266243992,55.83216021166347,0.16124544336286253,0.0900268142723605,0.068359375,,
2.7677749999999652,1200,,,,-0.0625,0.04296875,-1.015625,0.016148933636913016,0.2916076157496764,15.118158056898132,0.21535528709786822,1069,0,3.2557752687342467,1.808470154292753,55.546529014449916,0.16124546764429007,0.08956626046952106,0.068359375,,
2.775729999999923,1200,,,,-0.03125,0.033203125,-0.96875,0.016148933636913016,0.2916076157496764,15.118050279627141,0.21555979649051085,1069,0,3.258843841609737,1.8084700452961127,55.494222282304925,0.16124547736256784,0.0894819236277471,0.068359375,,
2.7837949999999836,1200,,,,-0.0625,0.021484375,-0.986328125,0.016148933636913016,0.2916076157496764,15.117757554522683,0.21417299498144557,1070,0,3.2378154128554972,1.809447507175228,55.88482592277978,0.16115837270400402,0.09006307604561731,0.068359375,,
2.79179999999993,1200,,,,-0.03125,0.021484375,-1.009765625,0.016148933636913016,0.2916076157496764,15.117867524876647,0.21421898871410602,1070,0,3.2385342926929006,1.809840290882875,55.884549222356995,0.16112339703047754,0.0900430841222309,0.068359375,,
2.800289999999921,1200,,,,-0.0625,0.05859375,-0.953125,0.016148933636913016,0.2916076157496764,15.117838745935789,0.21520598328302262,1070,0,3.253449352433289,1.8100030353660217,55.63335522688563,0.16110890979290932,0.08963029208725196,0.068359375,,0.33152999999996974,3095,
2.8072849999999745,1200,,,,-0.03125,0.046875,-0.990234375,0.016148933636913016,0.2916076157496764,15.117931634256387,0.21566804109984114,1070,0,3.260454701041395,1.8100553169772418,55.51542600481788,0.1611042563255225,0.08943771421100757,0.068359375,,
2.823704999999958,1500,,,,-0.0625,0.07421875,-0.96875,0.016148933636913016,0.2916076157496764,15.117940935778927,0.2150671361246171,1069,0,3.2513722611590876,1.8086298948559876,55.62666313119205,0.16123122623321212,0.08968755107903906,0.068359375,,
2.831134999999951,1500,,,,-0.03125,0.05859375,-0.998046875,0.016148933636913016,0.2916076157496764,15.11784701872687,0.21527923075068287,1069,0,3.254558476798025,1.8083167845789967,55.56258391024815,0.1612591434401617,0.08959974688688727,0.068359375,,
2.8399199999999256,1500,,,,-0.0625,-0.18359375,-1.12109375,0.016148933636913016,0.2916076157496764,15.117079945128296,0.3607986149739173,1069,0,5.454221506652271,1.8081890498772617,33.15210149921293,0.16127053516305193,0.053464571505578866,0.0703125,,
2.8473249999999535,1500,,,,0.34375,0.041015625,-0.634765625,0.016148933636913016,0.2899463319942314,15.102409585783782,0.7352358561811789,1208,0,11.103833042202583,2.0424456326597187,18.39405928472583,0.14196036719795413,0.026112274103206164,0.076171875,,
2.855874999999942,1500,,,,-0.1875,-0.265625,-0.8671875,0.016148933636913016,0.2899463319942314,15.091727979389029,1.0298810744269857,1335,0,15.542685026372975,2.257381038573893,14.523752072074725,0.12844368187721017,0.01865484190809038,0.080078125,,
2.863444999999949,1500,,,,-0.03125,-0.1171875,-1.12890625,0.016148933636913016,0.2899463319942314,15.082158133607821,1.2872465156070525,1384,0,19.414455505321236,2.340237014353085,12.054095535729333,0.12389613967129806,0.014934559041058922,0.08203125,,
2.873474999999977,1500,,,,0.0625,-0.2734375,-0.95703125,0.016148933636913016,0.2899463319942314,15.075834975849995,1.4568948033888378,1402,0,21.963905633063543,2.370874777971165,10.794413423458483,0.1222950847882181,0.01320103704860935,0.083984375,,
2.8834249999999884,1500,,,,-0.103515625,0.078125,-0.921875,0.016148933636913016,0.2899463319942314,15.067278016554573,1.69194641312956,1546,0,25.49302699573538,2.613751649433063,10.252810111056277,0.11093109479514718,0.011373554503462271,0.087890625,,
2.892204999999958,1500,,,,-0.03125,0.21484375,-1.076171875,0.016512125561415153,0.2899463319942314,15.062403147611379,1.8443681981999696,1581,0,27.78061735392155,2.7329393521112086,9.837576023937507,0.10609321855980686,0.010437001032063176,0.091796875,,
2.9001599999999743,1500,,,,-0.0625,0.0078125,-1.03125,0.016512125561415153,0.2899463319942314,15.05928156621634,1.9362097051054565,1823,0,29.15792712042378,3.1527856214176473,10.812790663741206,0.09196512760796507,0.009943996731891733,0.091796875,,
2.9081899999999443,1500,,,,-0.125,-0.068359375,-0.951171875,0.016512125561415153,0.2899463319942314,15.0566058571828,2.0085503169745804,1929,0,30.24195046700584,3.3362718241807268,11.031933366270872,0.08690728671829137,0.009587553961195878,0.09375,,
2.9160399999999207,1500,,,,-0.0625,0.27734375,-0.91796875,0.016512125561415153,0.2899463319942314,15.05482478167033,2.0524405869351163,2041,0,30.899133411096788,3.529485975434702,11.422605056513202,0.08214973342074854,0.009383639603630539,0.09765625,,
2.9237999999999302,1500,,,,0.25,0.205078125,-1.12890625,0.016512125561415153,0.2899463319942314,15.053310293285795,2.0909701296874625,2133,0,31.476022176177416,3.688922407906135,11.719785896891668,0.078599195085485,0.009211657380699042,0.099609375,,
2.932814999999944,1500,,,,0.25,-0.181640625,-0.9140625,0.016512125561415153,0.2899463319942314,15.052366032876792,2.121347088425155,2172,0,31.931292857752883,3.755157356733906,11.760116865490957,0.07721283143415747,0.009080319211811455,0.103515625,,
2.940649999999907,1500,,,,0.125,0.001953125,-1.04296875,0.016512125561415153,0.2899463319942314,15.051559499496989,2.1397535077671925,2243,0,32.206627236415294,3.878702025393294,12.04317979936668,0.07475344331582968,0.009002691584743023,0.107421875,,
2.9489349999999392,1500,,,,-0.0625,0.31640625,-0.83984375,0.016512125561415153,0.2899463319942314,15.05098849298205,2.1520882238616124,2291,0,32.39105509322331,3.961808913924713,12.231182042457093,0.07318533990247399,0.008951432151862584,0.109375,,
2.9566549999999117,1500,,,,-0.0625,0.1484375,-1.015625,0.016512125561415153,0.2899463319942314,15.050584626733684,2.1575097002333856,2349,0,32.47178232636139,4.062483163399837,12.510810532570654,0.07137170059101962,0.008929178234816074,0.109375,,
2.9637549999999466,1500,,,,-0.0625,-0.2421875,-1.02734375,0.016512125561415153,0.2899463319942314,15.050128018870586,2.159141612361524,2371,0,32.49535767691159,4.099942151954204,12.617008843904099,0.07071961536238525,0.008922700124647109,0.111328125,,
2.971929999999993,1500,,,,0,0.048828125,-0.9609375,0.016512125561415153,0.2899463319942314,15.049924730007726,2.156916059304909,2412,0,32.461424341483756,4.169993798770162,12.845997621371035,0.06953159788384913,0.008932027410260534,0.11328125,,
2.979774999999965,1500,,,,-0.09375,0.126953125,-1.005859375,0.016512125561415153,0.2899463319942314,15.049928454771237,2.1554579581238933,2427,0,32.439488057031895,4.197390668899298,12.939139672980849,0.06907775684131529,0.008938067440659867,0.11328125,,
2.9869149999999207,1500,,,,0,-0.078125,-1.015625,0.016512125561415153,0.2899463319942314,15.05022153993773,2.1496888276004595,2443,0,32.35329309731592,4.225108642159299,13.059284659062481,0.06862458614698495,0.008961880051038321,0.11328125,,
2.992969999999914,1500,,,,-0.125,-0.12890625,-0.76953125,0.016512125561415153,0.2892610065973833,15.050362034022353,2.1444848703501034,2457,0,32.27527367525254,4.24913213182752,13.165286140038507,0.06807531458735183,0.008962309956156241,0.115234375,,
2.9995949999999723,1500,,,,-0.03125,0.09375,-1.078125,0.016512125561415153,0.2892610065973833,15.050733732350608,2.1372884970863697,2464,0,32.167760078862756,4.2610462625308925,13.246325675410645,0.06788497208795234,0.00899226448743178,0.115234375,,
3.0078499999999186,1500,,,,0.0625,0.18359375,-0.98046875,0.016512125561415153,0.2892610065973833,15.051059002056421,2.125437920429781,2484,0,31.990091545596737,4.2953523991272275,13.427133814246492,0.06734278813914273,0.009042206277687209,0.115234375,,
3.0156649999999208,1500,,,,-0.125,0.02734375,-0.96875,0.016512125561415153,0.2892610065973833,15.051390103236322,2.112159499600684,2492,0,31.79093658874632,4.308587948198671,13.552881451513665,0.06713591786337267,0.009098851359408482,0.1171875,,
3.025929999999935,1500,,,,-0.0625,0.052734375,-0.919921875,0.016512125561415153,0.2892610065973833,15.051816746914202,2.1011741102332855,2501,0,31.626487660591913,4.32510531084762,13.675579018649309,0.06687952912311744,0.009146162852532502,0.119140625,,
3.040399999999965,1500,,,,0,0.00390625,-1.015625,0.016512125561415153,0.2892610065973833,15.05265289679755,2.079207157643079,2506,0,31.297583644538292,4.333560848663195,13.84631126121917,0.06674903542351637,0.009242279208601522,0.119140625,,
3.0485349999999163,1500,,,,-0.041015625,0.041015625,-0.9609375,0.03486313727481974,0.2892610065973833,15.052850871033565,2.0682443548398033,2514,0,31.132973838260586,9.176860821621933,29.476338718224575,0.03152069233913247,0.00929114604021215,0.119140625,,
3.056774999999965,1500,,,,-0.125,0.171875,-0.953125,0.03486313727481974,0.2892610065973833,15.053337890886462,2.0583477551866394,2520,0,30.98500425577213,9.198582551000822,29.687207641055068,0.03144625870275102,0.009335516116429047,0.12109375,,
3.064885000000009,1500,,,,0.03125,-0.017578125,-0.986328125,0.03486313727481974,0.2892610065973833,15.053862436160644,2.0479538009353084,2522,0,30.829614794892453,9.20703631880376,29.864259998243938,0.03141738520207836,0.009382569601398497,0.12109375,,
3.072974999999977,1500,,,,0,0.0078125,-1.00390625,0.03486313727481974,0.2892610065973833,15.054097931286652,2.0391761380503985,2524,0,30.69795728135361,9.216273754960788,30.022433318580738,0.03138589567629591,0.009422809600855255,0.119140625,,
3.0800199999999602,1500,,,,-0.0625,0.03515625,-0.97265625,0.03486313727481974,0.2892610065973833,15.054525773201494,2.030594730456685,2527,0,30.569640704587307,9.225196847630356,30.17764237656223,0.03135553759719337,0.009462362001329527,0.12109375,,
3.0881149999999327,1500,,,,0.03125,-0.033203125,-0.974609375,0.03486313727481974,0.2892610065973833,15.054695668185936,2.02097829868341,2528,0,30.425213238686915,9.230241673336527,30.33747570123812,0.03133840010202267,0.00950727951610791,0.123046875,,
3.0956749999999302,1500,,,,-0.375,0.37109375,-0.99609375,0.03486313727481974,0.2892610065973833,15.054694299719834,2.011278928476633,2529,0,30.27918941968378,9.233976553231878,30.496115418562326,0.03132572461386015,0.009553129133943778,0.125,,
3.103929999999993,1500,,,,0,-0.091796875,-0.94921875,0.03486313727481974,0.2892610065973833,15.054958960873435,2.0004898394707546,2531,0,30.117292434876497,9.239045397832589,30.676879131185007,0.031308538289598814,0.009604482448841007,0.126953125,,
3.1110749999999534,1500,,,,-0.125,0.0234375,-0.89453125,0.03486313727481974,0.2892610065973833,15.055175401609013,1.991852826156609,2533,0,29.987693671978374,9.247413032561647,30.83735993075979,0.03128020837599101,0.00964599044399602,0.12890625,,
3.1191699999999836,1500,,,,0.03125,0.12109375,-1.0546875,0.03486313727481974,0.2892610065973833,15.055512150311952,1.9834182604881425,2534,0,29.861377719929823,9.251371406792464,30.981060196087313,0.031266824547223834,0.009686793734380422,0.12890625,,
3.126274999999965,1500,,,,-0.03125,-0.029296875,-0.97265625,0.03486313727481974,0.2892610065973833,15.055725159700788,1.9738567813639047,2536,0,29.71784520482656,9.256801924810313,31.148967433570483,0.031248481813367823,0.009733579423531138,0.130859375,,
3.1349599999999627,1500,,,,-0.375,0.11328125,-0.984375,0.03486313727481974,0.2892610065973833,15.056074142008386,1.9668284201962318,2536,0,29.612714519083692,9.259069315545979,31.267208919935523,0.031240829584428538,0.009768135454484296,0.1328125,,
3.1430299999999116,1500,,,,-0.03125,0.115234375,-0.990234375,0.03486313727481974,1.1087649610505403,15.056070575756733,1.9616439666393828,2538,0,29.534650006229935,9.26521990572317,31.370677843715082,0.1196695785240511,0.037541157955711724,0.134765625,,
3.1508949999999603,1500,,,,0.125,-0.05859375,-0.9765625,0.03486313727481974,1.1087649610505403,15.05639412487005,1.9562403355369136,2538,0,29.4539254948118,9.267675587057775,31.46499297246556,0.11963786934869844,0.037644047182975496,0.134765625,,
3.157919999999984,1500,,,,0,0.015625,-0.951171875,0.03486313727481974,1.1087649610505403,15.056463672026238,1.9543306057601377,2539,0,29.425307768756547,9.26982270095757,31.50289123160901,0.11961015834056946,0.03768065808398491,0.134765625,,
3.1660449999999836,1500,,,,-0.125,-0.06640625,-1.0234375,0.03486313727481974,1.1087649610505403,15.056736855679851,1.9474313063840258,2539,0,29.32196072473712,9.270825601280423,31.617345403028256,0.11959721914059145,0.037813465868097425,0.13671875,,
3.177190000000002,1500,,,,-0.0625,0.126953125,-1.0078125,0.03486313727481974,1.1087649610505403,15.056959000867737,1.9400635223275602,2539,0,29.211456914765122,9.267917650701074,31.726995602251336,0.11963474459299576,0.037956510155784384,0.13671875,,
3.1949799999999815,1500,,,,-0.03125,0.103515625,-1.015625,0.06154059656491651,1.1087649610505403,15.057636660744887,1.9255115100059166,2539,0,28.993652703751334,16.36053461507921,56.42798712616989,0.06777070475610324,0.038241644555088536,0.13671875,,
3.203109999999986,1500,,,,-0.0625,-0.04296875,-0.923828125,0.06154059656491651,1.1087649610505403,15.057953538853345,1.9203117606083502,2539,0,28.915965271354207,16.363904553458756,56.591244317442055,0.06775674823990502,0.03834438693799877,0.138671875,,
3.210989999999991,1500,,,,0.0625,-0.1796875,-0.90234375,0.06154059656491651,1.1087649610505403,15.058051829402313,1.9142920138550992,2538,0,28.825508361241013,16.353596413480123,56.73307200184294,0.067799457258013,0.03846471490304725,0.138671875,,
3.2181949999999486,1500,,,,-0.03125,0.14453125,-1.056640625,0.06154059656491651,1.1087649610505403,15.058135896474486,1.9102677242880692,2537,0,28.765070990978803,16.349698279037522,56.838720419515234,0.0678156221679102,0.038545531884773276,0.140625,,
3.226899999999965,1500,,,,-0.125,-0.046875,-0.912109375,0.06154059656491651,1.1087649610505403,15.058238712338344,1.9060639501448573,2539,0,28.701965962263834,16.365200650602286,57.017699317595806,0.067751382016189,0.03863027928150632,0.140625,,
3.2353649999999905,1500,,,,0.125,0.0703125,-0.97265625,0.06154059656491651,1.1087649610505403,15.058483464638321,1.903190443883848,2540,0,28.659161829282592,16.37001365197149,57.119652519793426,0.06773146221029623,0.0386879758610964,0.140625,,
3.243414999999979,1500,,,,-0.09375,0.078125,-1.03125,0.06154059656491651,1.1087649610505403,15.058574473704297,1.8974762689088376,2541,0,28.57328770745029,16.37428668156227,57.30627447989749,0.0677137870255459,0.03880424865359254,0.142578125,,
3.2511299999999466,1500,,,,-0.125,-0.017578125,-0.91015625,0.06154059656491651,1.1087649610505403,15.05863689200835,1.893277159236297,2541,0,28.510173276872468,16.37622740438791,57.43994343826859,0.06770576236340327,0.03889015160598738,0.142578125,,
3.258130000000005,1500,,,,0.125,0.12890625,-1.01953125,0.06154059656491651,1.1087649610505403,15.058703198865956,1.8876528852781997,2540,0,28.425604541887378,16.37009647140381,57.58926409913702,0.06773111954394358,0.039005853311463876,0.142578125,,
3.2655299999999117,1500,,,,-0.0625,0.0625,-1.021484375,0.06154059656491651,1.1087649610505403,15.058844749465905,1.8853509113337414,2540,0,28.391206672038873,16.367824576627992,57.65103528603408,0.06774052079185723,0.03905311154465686,0.142578125,,
3.2726999999999533,1500,,,,0,-0.12109375,-0.85546875,0.06154059656491651,1.1087649610505403,15.058895996013558,1.8836527236293354,2540,0,28.365730457741833,16.366811788847286,57.699243152683586,0.06774471261446763,0.03908818645450838,0.142578125,,
3.2799049999999697,1500,,,,-0.125,0.0234375,-1.03125,0.06154059656491651,1.1087649610505403,15.058886261984822,1.8802517855654732,2540,0,28.314497782724338,16.366389040367263,57.80215197866927,0.06774646247964661,0.039158913202657485,0.142578125,,
3.287034999999974,1500,,,,0,0.109375,-0.984375,0.06154059656491651,1.1087649610505403,15.059021637323204,1.876544400260407,2540,0,28.258922726919163,16.36620036382895,57.915160184923366,0.06774724348976133,0.03923592458796534,0.142578125,,
3.2941199999999373,1500,,,,-0.125,-0.00390625,-1.05859375,0.06154059656491651,1.4579596977508886,15.059063452637057,1.8719436779513112,2540,0,28.189718626031585,16.36829413604638,58.06476592828139,0.0890721834317578,0.051719554816859595,0.142578125,,
3.301984999999986,1500,,,,-0.09375,0.033203125,-0.955078125,0.06154059656491651,1.4579596977508886,15.059305018513403,1.869453496205232,2540,0,28.152670417280877,16.369286300717835,58.14470193445636,0.08906678464576391,0.051787616454883556,0.142578125,,
3.310399999999965,1500,,,,0.125,0.11328125,-1.08984375,0.06154059656491651,1.4579596977508886,15.059471747971033,1.8646847091708558,2540,0,28.081166696632085,16.372045591506097,58.302583252246706,0.08905177362242905,0.05191948445381898,0.142578125,,
3.319094999999972,1500,,,,-0.09375,0.05078125,-0.98046875,0.06154059656491651,1.4579596977508886,15.05964732759611,1.8622855788007613,2541,0,28.04536404000766,16.3731818626681,58.38106376266396,0.0890455935797751,0.0519857647656511,0.142578125,,
3.3281449999999606,1500,,,,0,0.041015625,-0.974609375,0.06154059656491651,1.4579596977508886,15.059490660800993,1.8605111833486658,2540,0,28.018350789955036,16.369175404657657,58.42305111879116,0.08906738804546278,0.0520358856479728,0.142578125,,
3.3358499999999767,1500,,,,0,0.046875,-1.025390625,0.06154059656491651,1.4579596977508886,15.059685396166145,1.8594203919598034,2539,0,28.00228612213058,16.36183805827264,58.43036524557779,0.08910732966298587,0.05206573818266372,0.140625,,
3.344200000000012,1500,,,,-0.1875,0.10546875,-0.97265625,0.07199454731001707,1.4579596977508886,15.05976967246665,1.858122375060399,2540,0,27.9828949916663,19.147098416128102,68.42429427630836,0.07614520310413253,0.05210181784926433,0.140625,,
3.3605649999999443,1500,,,,-0.03125,0.11328125,-1.0234375,0.07199454731001707,1.4579596977508886,15.059962263053837,1.8537733383573403,2541,0,27.917756519916875,19.15560271518505,68.61440567947932,0.07611139776850422,0.05222338323320365,0.140625,,
3.3689999999999416,1500,,,,-0.1875,-0.078125,-0.87890625,0.07199454731001707,1.4579596977508886,15.060061482684842,1.854080351496486,2541,0,27.922564087375005,19.160874392811266,68.62147162722324,0.07609045745312555,0.05221439167222093,0.142578125,,
3.376609999999928,1500,,,,0.03125,0.017578125,-0.962890625,0.07199454731001707,1.4579596977508886,15.060122429518476,1.8502089272388875,2541,0,27.86437296440569,19.159322904725876,68.7592106565622,0.07609661912380346,0.05232343464585782,0.140625,,
3.3839799999999234,1500,,,,-0.09375,0.072265625,-1.056640625,0.07199454731001707,1.4579596977508886,15.06021070780714,1.846387960097498,2541,0,27.80699172742652,19.156912721768165,68.89243147748833,0.07610619304509314,0.05243140689371578,0.140625,,
3.3917599999999513,1500,,,,0,0.06640625,-0.9140625,0.07199454731001707,1.4579596977508886,15.060390595761302,1.843947774547725,2541,0,27.77057372287354,19.155024003634757,68.97597505469435,0.07611369724591491,0.05250016482554785,0.140625,,
3.400119999999937,1500,,,,0,-0.03125,-0.95703125,0.07199454731001707,1.4579596977508886,15.060370636668848,1.8432168357206076,2540,0,27.759528709700305,19.15234962817024,68.99378526364401,0.07612432552956575,0.052521053689265934,0.140625,,
3.4160749999999536,1500,,,,-0.25,0.0078125,-0.77734375,0.07199454731001707,1.4579596977508886,15.060448711459866,1.8425971004283541,2539,0,27.75033912688589,19.144507462015035,68.98837298700575,0.07615550834324952,0.05253844614599127,0.14453125,,
3.4346099999999278,1500,,,,-0.0625,0.056640625,-1.0390625,0.07199454731001707,1.4579596977508886,15.060546673662069,1.8390032055290257,2540,0,27.69639360988405,19.151817556955894,69.14913842833732,0.07612644039736903,0.05264077765094242,0.14453125,,
3.4421449999999605,1500,,,,-0.1875,-0.0703125,-0.8828125,0.07199454731001707,1.6005707979163384,15.060467508779258,1.838428677547964,2541,0,27.68759536541913,19.15372560244156,69.17800318031199,0.08356446318267767,0.057808226998123394,0.146484375,,
3.449484999999986,1500,,,,-0.03125,0.142578125,-1.03125,0.07199454731001707,1.6005707979163384,15.060360633927798,1.8376741885496595,2541,0,27.676036007218503,19.15458759455127,69.2100111069206,0.0835607026262282,0.05783237156863343,0.146484375,,
3.4583399999999673,1500,,,,-0.03125,-0.076171875,-0.94140625,0.07199454731001707,1.6005707979163384,15.060537867487202,1.836863053612707,2541,0,27.66414557632235,19.15498749739307,69.24120408688044,0.08355895811125802,0.0578572287186871,0.146484375,,
3.4663749999999416,1500,,,,0.125,0.03515625,-0.9453125,0.07199454731001707,1.6005707979163384,15.060290231482922,1.8352872996621126,2541,0,27.639959391065982,19.155155733380028,69.30240186811388,0.08355822422926912,0.057907856349227786,0.146484375,,
3.4738799999999466,1500,,,,-0.0625,0.064453125,-1.05078125,0.07199454731001707,1.6005707979163384,15.060177256141726,1.8336182793448277,2541,0,27.6146163070347,19.15429452356703,69.36288489616841,0.08356198114981633,0.05796100080190505,0.146484375,,
3.4843449999999723,1500,,,,-0.0625,0.0078125,-0.94140625,0.07199454731001707,1.6005707979163384,15.059997069439289,1.8353202783990301,2540,0,27.639918014171894,19.152272662325146,69.29207479018261,0.08357080259539412,0.05790794303715637,0.146484375,,
3.4936049999999814,1500,,,,-0.03125,0.138671875,-0.998046875,0.07613329420145594,1.6005707979163384,15.060223050276244,1.8349785916933363,2541,0,27.635186883383426,20.25909648236511,73.30906270999948,0.0790050434534227,0.057917856849332,0.146484375,,
3.5012649999999557,1500,,,,-0.0625,0.025390625,-1.015625,0.07613329420145594,1.6005707979163384,15.060305321586583,1.834934831747216,2542,0,27.634678811327177,20.26599575660166,73.33537652080412,0.078978147293599,0.0579189216869161,0.146484375,,
3.5091899999999443,1500,,,,-0.0625,0.125,-0.93359375,0.07613329420145594,1.6005707979163384,15.060421821336979,1.8336062468443048,2542,0,27.61488353171377,20.26894368716945,73.39862094255072,0.07896666065185844,0.057960439922847926,0.14453125,,
3.5196699999999255,1500,,,,-0.0625,0.05859375,-0.9453125,0.07613329420145594,1.6005707979163384,15.060636135212473,1.8305148117468089,2542,0,27.568717519835648,20.270215312806997,73.52614534289674,0.07896170678093765,0.05805749929298417,0.146484375,,
3.528075000000012,1500,,,,-0.0625,-0.03125,-0.955078125,0.07613329420145594,1.6005707979163384,15.060545235020946,1.8316151952314013,2542,0,27.58512350093424,20.26442358216117,73.46142054239803,0.07898427465389765,0.05802297016586245,0.146484375,,
3.5352849999999743,1500,,,,0,0.02734375,-0.98046875,0.07613329420145594,1.6005707979163384,15.060326566704294,1.832358099336655,2541,0,27.59591136315561,20.259629376869782,73.41532993876481,0.07900296536242139,0.05800028768222975,0.146484375,,
3.5433149999999443,1500,,,,-0.25,0.18359375,-0.95703125,0.07613329420145594,1.6005707979163384,15.060371466389245,1.8303042539021872,2541,0,27.56506196027936,20.257789569164718,73.49081818990918,0.0790101403932361,0.05806519862798514,0.1484375,,
3.551324999999953,1500,,,,-0.03125,0.033203125,-1.01171875,0.07613329420145594,1.6005707979163384,15.060554995412112,1.82884772485101,2541,0,27.543461738352953,20.256951778728464,73.54540969162792,0.07901340810797976,0.058110734704331674,0.1484375,,
3.559344999999914,1500,,,,-0.0625,-0.04296875,-0.87890625,0.07613329420145594,1.6005707979163384,15.060591903409826,1.8262133815129766,2541,0,27.503854467513015,20.255211795096404,73.64499335546384,0.07902019559745219,0.058194417797218186,0.146484375,,
3.5672599999999512,1500,,,,-0.03125,0.05078125,-1.03515625,0.07613329420145594,1.6005707979163384,15.06056291300569,1.82436189746331,2540,0,27.475917132836617,20.253040458935377,73.711972419406,0.07902866738263921,0.058253589504515126,0.146484375,,
3.574649999999965,1500,,,,-0.0625,0.06640625,-1.005859375,0.07613329420145594,1.6005707979163384,15.060631988424355,1.8238880964788666,2540,0,27.468907409136026,20.24787992412017,73.71199597616986,0.0790488092538354,0.05826845509639733,0.146484375,,
3.5824749999999765,1500,,,,0,-0.04296875,-0.92578125,0.07613329420145594,1.6005707979163384,15.06072177687133,1.8252926716478954,2539,0,27.490225089051112,20.241799600256225,73.63271684638984,0.0790725542948305,0.0582232700071204,0.146484375,,
3.59004999999993,1500,,,,0,0.107421875,-1.021484375,0.07613329420145594,1.6602765365591674,15.060686873423135,1.8282339013947309,2539,0,27.534458320282788,20.23905506548243,73.50446059283351,0.08203330299697428,0.06029813687441068,0.146484375,,
3.5982699999999603,1500,,,,-0.1875,0.07421875,-0.96484375,0.07613329420145594,1.6602765365591674,15.060653008977244,1.8323798868782646,2540,0,27.59683765690252,20.249614861571615,73.37657710395953,0.08199052416102642,0.06016184017895613,0.146484375,,
3.6062299999999814,1500,,,,0,-0.0234375,-0.947265625,0.07613329420145594,1.6602765365591674,15.06049132284551,1.8324605105575762,2540,0,27.597755618709428,20.253725281244098,73.3890304743239,0.08197388448319981,0.06015983906436258,0.146484375,,
3.6144349999999394,1500,,,,0,0.14453125,-1.0546875,0.07613329420145594,1.6602765365591674,15.060467306171322,1.8329618639489158,2541,0,27.605262225461495,20.258265086041963,73.38551947301161,0.08195551442868153,0.060143480000266925,0.146484375,,
3.622194999999949,1500,,,,-0.03125,0.083984375,-0.98046875,0.07613329420145594,1.6602765365591674,15.060246384879202,1.8278627265231198,2541,0,27.528063019175256,20.26006996102188,73.5978769988622,0.0819482133947886,0.06031214529706164,0.146484375,,
3.629219999999972,1500,,,,0,-0.103515625,-0.92578125,0.07613329420145594,1.6602765365591674,15.059892392636451,1.8270096449772804,2541,0,27.514568653666768,20.260723617554422,73.6363483381534,0.08194556956103287,0.06034172504964595,0.146484375,,
3.6395849999999625,1500,,,,-0.1875,0.2734375,-0.98828125,0.07613329420145594,1.6602765365591674,15.059832048800406,1.827141921171334,2541,0,27.5164504621628,20.261032439400843,73.63243477664858,0.08194432053375977,0.060337598370188525,0.146484375,,
3.6482949999999255,1500,,,,0.03125,0.04296875,-0.982421875,0.0777990710705675,1.6602765365591674,15.059842433017813,1.826228994869118,2541,0,27.502720909337413,20.704476897051673,75.28155837854692,0.08018925302071223,0.06036771932610817,0.146484375,,
3.6558499999999765,1500,,,,0,-0.046875,-0.9453125,0.0777990710705675,1.6602765365591674,15.059563058687612,1.825009486499398,2541,0,27.48384544464078,20.704518961192512,75.33341359707651,0.080189090104972,0.0604091789085109,0.1484375,,
3.6631699999999836,1500,,,,-0.3125,0.2890625,-0.9765625,0.0777990710705675,1.6602765365591674,15.059582085196457,1.8239859659613837,2540,0,27.46846637664181,20.6961880564276,75.34526235518882,0.08022136888360638,0.06044300085027705,0.150390625,,
3.6713499999999186,1500,,,,0,-0.0625,-0.970703125,0.0777990710705675,1.6602765365591674,15.059699669149753,1.82510699280986,2540,0,27.48556317578155,20.692351723847057,75.28443783927914,0.08023624181130505,0.060405403591005644,0.150390625,,
3.6801849999999976,1500,,,,0,0.052734375,-1.025390625,0.0777990710705675,1.6602765365591674,15.059615528726571,1.8261938567983824,2540,0,27.501777364305987,20.69379874511056,75.24531404275213,0.08023063126345763,0.06036979045267116,0.150390625,,
3.689709999999963,1500,,,,-0.09375,0.1171875,-0.984375,0.0777990710705675,1.6602765365591674,15.05977275919469,1.8262815358529376,2541,0,27.50338492425831,20.701273773161983,75.26809456425568,0.08020166076503085,0.06036626186672695,0.150390625,,
3.6974799999999814,1500,,,,-0.125,0.0546875,-0.85546875,0.0777990710705675,1.6602765365591674,15.059957931919207,1.827760814326356,2540,0,27.526000973365313,20.697550022837532,75.19272430043463,0.08021609005545245,0.060316663439984715,0.150390625,,
3.705489999999991,1500,,,,0,-0.009765625,-0.994140625,0.0777990710705675,1.6602765365591674,15.059960063705821,1.8296672323817966,2540,0,27.554715449541014,20.695838893888073,75.10815682995126,0.0802227223101105,0.060253808085934085,0.150390625,,
3.713344999999972,1500,,,,-0.0625,0.11328125,-0.9921875,0.0777990710705675,1.6602765365591674,15.059962076077245,1.8294570826853593,2541,0,27.551554285052422,20.6991181050985,75.1286765564744,0.08021001320583879,0.06026072138732003,0.150390625,,
3.7204299999999346,1500,,,,-0.03125,0.041015625,-0.978515625,0.0777990710705675,1.6602765365591674,15.059963749893582,1.8293726767435181,2542,0,27.55028619680317,20.70777668271585,75.16356285663088,0.0801764748576292,0.06026349507584496,0.150390625,,
3.7284049999999116,1500,,,,-0.125,-0.109375,-0.9453125,0.0777990710705675,1.6602765365591674,15.059965546092402,1.8264137972572856,2541,0,27.505728859602513,20.705819945174937,75.27820859015826,0.08018405167992686,0.06036111767965563,0.150390625,,
3.7362999999999302,1500,,,,0.03125,0.09375,-1.03515625,0.0777990710705675,1.6602765365591674,15.060162857950857,1.8255125529742122,2541,0,27.492516347025276,20.705047766053134,75.31157753878519,0.08018704208358632,0.06039012637483841,0.150390625,,
3.7442549999999466,1500,,,,-0.125,-0.046875,-0.97265625,0.0777990710705675,1.7006652873125216,15.060220172392716,1.8235925313675059,2541,0,27.46370502712561,20.70474254381106,75.38947320968241,0.0821389246311046,0.06192410257948782,0.1484375,,
3.7522649999999556,1500,,,,-0.041015625,0.0234375,-0.990234375,0.0777990710705675,1.7006652873125216,15.060307367422233,1.822509482673731,2542,0,27.447552989108072,20.710568049150453,75.45506172214684,0.08211582044859861,0.06196054300313734,0.1484375,,
3.7605049999999465,1500,,,,0.0625,0.1015625,-0.8828125,0.0777990710705675,1.7006652873125216,15.060160613034794,1.8232927429238774,2542,0,27.459081553014354,20.712878806036368,75.43179754955274,0.08210665949616311,0.06193452916584637,0.1484375,,
3.768454999999958,1500,,,,-0.0625,-0.021484375,-1.01171875,0.0777990710705675,1.7006652873125216,15.060152747124237,1.8244595200066356,2540,0,27.4766390522449,20.69593710504871,75.3219382679841,0.08217387203489566,0.06189495316653635,0.1484375,,
3.7764699999999722,1500,,,,-0.0625,0.033203125,-0.9453125,0.0777990710705675,1.7006652873125216,15.060145285641953,1.8253537057186735,2539,0,27.49009200580815,20.68927117685137,75.26082914702543,0.08220034784093057,0.06186466334682337,0.1484375,,
3.784284999999916,1500,,,,0.125,0.1484375,-0.9609375,0.0777990710705675,1.7006652873125216,15.060138254543954,1.827460254807306,2539,0,27.521804092082153,20.686648770865073,75.16458115046495,0.08221076821818168,0.061793379591775825,0.1484375,,
3.8057999999999303,1500,,,,-0.0625,0.107421875,-0.947265625,0.078424679985051,1.7006652873125216,15.059910742105814,1.8289668673313162,2540,0,27.544077772278506,20.86156985610908,75.73885765420336,0.0815214434504554,0.061743410012592294,0.150390625,,
3.8133249999999532,1500,,,,-0.0625,0.03515625,-0.947265625,0.078424679985051,1.7006652873125216,15.060002709614764,1.829762435285372,2541,0,27.556227233349013,20.866969033106162,75.7250579203114,0.08150035036781612,0.061716187521285486,0.150390625,,
3.821659999999916,1500,,,,0,-0.16015625,-0.9453125,0.078424679985051,1.7006652873125216,15.060198443199777,1.8277393617411677,2542,0,27.52611749026929,20.872424236991904,75.82770888183006,0.08147904948666464,0.061783696444430304,0.150390625,,
3.830625,1500,,,,-0.09375,0.19921875,-0.994140625,0.078424679985051,1.7006652873125216,15.060187482427468,1.8254463790195818,2542,0,27.491564707153252,20.876844741047,75.939092457749,0.08146179695290634,0.06186134930581132,0.150390625,,
3.839689999999944,1500,,,,-0.03125,-0.04296875,-0.951171875,0.078424679985051,1.7006652873125216,15.06002919835103,1.8247189629876643,2543,0,27.480320861379038,20.882678064996174,75.99139096787178,0.08143904158361755,0.06188666049029449,0.150390625,,
3.848624999999942,1500,,,,0,0.0546875,-1.0078125,0.078424679985051,1.7006652873125216,15.059738308508232,1.8256958086677089,2542,0,27.49450110947601,20.878413786115487,75.9366889509398,0.08145567497294713,0.06185474253709538,0.150390625,,
3.8562399999999326,1500,,,,-0.0625,0.076171875,-1.029296875,0.078424679985051,1.7006652873125216,15.059554224871667,1.8267477770542067,2542,0,27.510007203711602,20.87393598982108,75.87761004658991,0.08147314853038881,0.06181987793456742,0.15234375,,
3.8646399999999557,1500,,,,-0.1875,-0.015625,-0.859375,0.078424679985051,1.7006652873125216,15.059576134186031,1.8277443026249875,2542,0,27.525054479205753,20.875180035040525,75.84064929212408,0.08146829318155961,0.06178608251610607,0.15234375,,
3.872329999999958,1500,,,,0,0.09765625,-1.060546875,0.078424679985051,1.7006652873125216,15.059791692905883,1.8248791884693487,2542,0,27.482300443067526,20.87865585771449,75.97128159255381,0.08145473055843964,0.06188220272300816,0.15234375,,
3.8806849999999393,1500,,,,-0.125,0.171875,-0.98828125,0.078424679985051,1.7006652873125216,15.05980189830168,1.8246900425834662,2542,0,27.47947056711066,20.877043263697267,75.97323686681345,0.0814610223215746,0.061888575442497644,0.15234375,,
3.8895199999999606,1500,,,,-0.0625,-0.056640625,-0.931640625,0.078424679985051,1.7165420463497982,15.059702887500416,1.8241303985655306,2542,0,27.470861830454606,20.873190718860986,75.98302101945946,0.08223668673705611,0.06248591896912438,0.15234375,,
3.8968299999999583,1500,,,,0,0.09375,-1.03515625,0.078424679985051,1.7165420463497982,15.059586778545851,1.8231260782383196,2542,0,27.455525383459946,20.87939055301462,76.04804592664254,0.08221226773795653,0.0625208231266955,0.15234375,,
3.9052149999999672,1500,,,,-0.03125,-0.0078125,-1.01953125,0.078424679985051,1.7165420463497982,15.059704566787705,1.8233406911274377,2544,0,27.458972132981724,20.889308235199735,76.07461828517978,0.08217323556255071,0.06251297528679205,0.15234375,,
3.9122149999999674,1500,,,,0.0625,0,-0.9296875,0.078424679985051,1.7165420463497982,15.059601295305635,1.8226725228914207,2544,0,27.44872148665363,20.892999303937994,76.11647527589503,0.08215871840029486,0.06253632057815266,0.150390625,,
3.9204199999999836,1500,,,,-0.03125,0.044921875,-1.013671875,0.078424679985051,1.7165420463497982,15.05942492724592,1.8206778368240728,2543,0,27.418361200352624,20.882704882674307,76.16321314785851,0.08219921968891859,0.06260556689754755,0.150390625,,
3.928499999999942,1500,,,,-0.0625,0.046875,-0.890625,0.078424679985051,1.7165420463497982,15.059650537524277,1.8200522980519735,2542,0,27.409351568680698,20.878625387001385,76.17336489951244,0.0822152806773612,0.0626261457535247,0.150390625,,
3.935544999999984,1500,,,,0,-0.03515625,-0.953125,0.078424679985051,1.7165420463497982,15.059751769876605,1.8217778032038128,2543,0,27.435521496120533,20.885515784595796,76.12582027117315,0.08218815680941148,0.06256640853692257,0.150390625,,
3.9437399999999907,1500,,,,-0.125,0.07421875,-0.8984375,0.07868584179134978,1.7165420463497982,15.059566351502069,1.8217400055322552,2543,0,27.43461448849874,20.958323905519258,76.39372484824052,0.08190263945189608,0.06256847702632798,0.150390625,,
3.9538949999999606,1500,,,,0,0.103515625,-1.01953125,0.07868584179134978,1.7165420463497982,15.059587846750448,1.8223488047518095,2544,0,27.443821912580557,20.962633541056746,76.38379817443443,0.08188580137070248,0.06254748525251565,0.150390625,,
3.9616449999999603,1500,,,,-0.0625,0.029296875,-0.99609375,0.07868584179134978,1.7165420463497982,15.05949243112884,1.822855295950684,2544,0,27.45127553241245,20.964485269183623,76.36980381633013,0.08187856865119408,0.0625305022465361,0.150390625,,
3.9693949999999605,1500,,,,-0.125,0.068359375,-0.935546875,0.07868584179134978,1.7165420463497982,15.059517025735621,1.8218204825798174,2543,0,27.435736575244647,20.953071818369928,76.3714572083913,0.08192316912906658,0.06256591805516312,0.150390625,,
3.9776149999999326,1500,,,,0.1875,-0.05859375,-0.8984375,0.07868584179134978,1.7165420463497982,15.0596068234615,1.8200631581764863,2542,0,27.4094355560055,20.948471571653055,76.42795682110707,0.0819411593098076,0.0626259538560143,0.150390625,,
3.9860349999999163,1500,,,,-0.09375,0.03125,-1.033203125,0.07868584179134978,1.7165420463497982,15.059626103043936,1.819152989325364,2543,0,27.395763843474658,20.955704003510938,76.49249761109448,0.08191287899763268,0.06265720701044289,0.15234375,,
3.994474999999977,1500,,,,-0.09375,0.10546875,-0.990234375,0.07868584179134978,1.7165420463497982,15.059573310400836,1.8183000525963329,2544,0,27.38282294238017,20.95873441497687,76.53971418169311,0.08190103526113567,0.06268681830072094,0.154296875,,
4.004814999999944,1500,,,,0.0625,-0.08203125,-0.95703125,0.07868584179134978,1.7165420463497982,15.059600142449678,1.8156062353480056,2543,0,27.34230392047935,20.95310371410933,76.63254631009892,0.08192304442200223,0.06277971495533376,0.154296875,,
4.01189499999996,1500,,,,-0.09375,0.046875,-0.982421875,0.07868584179134978,1.7165420463497982,15.059526190556525,1.8158560409548183,2543,0,27.34593160703937,20.953751002590497,76.62474734339129,0.0819205137131573,0.06277138665511499,0.15625,,
4.01967499999993,1500,,,,-0.125,0.1484375,-0.9765625,0.07868584179134978,1.7165420463497982,15.059458355735758,1.8157958237467577,2544,0,27.344901590233206,20.9604384670863,76.65208959674132,0.08189437683020064,0.06277375110257835,0.15625,,
4.0272849999999165,1500,,,,0.0625,0.03125,-0.9609375,0.07868584179134978,1.7165420463497982,15.059289712063439,1.8150981019589765,2544,0,27.33408817321669,20.963434578841188,76.69337439023195,0.08188267241677746,0.06279858451732633,0.15625,,
4.034544999999984,1500,,,,0,-0.001953125,-0.96484375,0.07868584179134978,1.7165420463497982,15.059234327429797,1.8142334193796419,2544,0,27.320966187092242,20.958942685161833,76.71376825269036,0.0819002214059704,0.06282874604781644,0.15625,,
4.042594999999914,1500,,,,-0.25,0.12890625,-0.93359375,0.07868584179134978,1.7235020712507199,15.059206682390023,1.8175257804449847,2543,0,27.370496378293257,20.95683408416053,76.56724158200062,0.0822405743314715,0.06296933922680259,0.158203125,,
