Time (s),ESC signal (µs),Servo 1 (µs),Servo 2 (µs),Servo 3 (µs),AccX (g),AccY (g),AccZ (g),Torque (N·m),Thrust (N),Voltage (V),Current (A),Motor Electrical Speed (RPM),Motor Optical Speed (RPM),Electrical Power (W),Mechanical Power (W),Motor Efficiency (%),Propeller Mech. Efficiency (N/W),Overall Efficiency (N/W),Vibration (g),App message,90% settling time (s),Max acceleration (RPM/s),
0,1000,,,,-0.0625,0.05078125,-0.953125,-0.00038547543567286506,0.0056945163958727315,22.559848352678024,0.0659794528281638,0,0,1.4884864501960484,0,0,0,0,0.05859375,,
0,1200,,,,-0.0625,0.05078125,-0.95703125,-0.00038547543567286506,0.0056945163958727315,22.560099907455484,0.06497662877569217,0,0,1.4658792368292624,0,0,0,0,0.05859375,,
0.008834999999031425,1200,,,,-0.0625,0.05078125,-0.95703125,-0.00038547543567286506,0.0056945163958727315,22.5600950221188,0.06553380864337235,0,0,1.4784489501558307,0,0,0,0,0.05859375,,
0.016269999999552965,1200,,,,-0.0625,0.052734375,-0.951171875,-0.00038547543567286506,0.0056945163958727315,22.560025128760632,0.06456852742589271,0,0,1.4566676012552096,0,0,0,0,0.05859375,,
0.024469999999739228,1200,,,,-0.0625,0.05078125,-0.951171875,-0.00038547543567286506,0.0056945163958727315,22.55992581108605,0.0657793318064711,0,0,1.4839768454568008,0,0,0,0,0.05859375,,
0.03212999999895692,1200,,,,-0.0625,0.01953125,-0.95703125,-0.00038547543567286506,0.0056945163958727315,22.559537438915452,0.06842003618415839,0,0,1.5435243678684711,0,0,0,0,0.05859375,,
0.039299999999813734,1200,,,,-0.09375,0.017578125,-1.03125,-0.0003916950629257363,0.0056945163958727315,22.55813241187371,0.11198693378764707,0,0,2.5262160807814764,0,0,0,0,0.05859375,,
0.04700499999988824,1200,,,,0.25,-0.1796875,-1.01171875,-0.0003916950629257363,0.0056945163958727315,22.556869608061984,0.15524957222581362,0,0,3.5019443574050793,0,0,0,0,0.060546875,,
0.05566499999910593,1200,,,,-0.0625,-0.048828125,-0.904296875,-0.0003916950629257363,0.0056945163958727315,22.55587921167858,0.19298131649813532,0,0,4.352863265042655,0,0,0,0,0.064453125,,
0.06250499999988825,1200,,,,-0.0625,0.24609375,-1.015625,-0.0003916950629257363,0.0056945163958727315,22.555107132872305,0.21834309045643638,0,0,4.924751796967351,0,0,0,0,0.06640625,,
0.07060999999940396,1200,,,,-0.03125,-0.01953125,-1.03125,-0.0003916950629257363,0.0056945163958727315,22.55426449486082,0.2343168836465143,0,0,5.284844969375011,0,0,0,0,0.06640625,,
0.07883499999996274,1200,,,,-0.0625,0.01171875,-0.9375,-0.0003916950629257363,0.0056945163958727315,22.553493064389382,0.24571750766622655,0,0,5.541788104949285,0,0,0,0,0.06640625,,
0.08635500000044703,1200,,,,-0.03125,0.03125,-0.982421875,-0.0003916950629257363,0.0056945163958727315,22.55303319793889,0.2613189297656762,0,0,5.893534498255157,0,0,0,0,0.068359375,,
0.10256499999947846,1200,,,,-0.125,0.01953125,-0.896484375,-0.0003916950629257363,0.0008034289425966232,22.551776395784657,0.2834203027417187,0,0,6.391631293456833,0,0,0,0,0.07421875,,
0.11062999999988823,1200,,,,0.1875,-0.03515625,-0.91796875,-0.0003916950629257363,0.0008034289425966232,22.55161099193983,0.2848958823813079,0,0,6.424861112668701,0,0,0,0,0.076171875,,
0.117625,1200,,,,-0.25,0.33203125,-0.85546875,-0.0003916950629257363,0.0008034289425966232,22.551630002345124,0.28625025358661865,0,0,6.455409806962889,0,0,0,0,0.078125,,
0.12455999999959022,1200,,,,0,0.025390625,-0.94140625,-0.0003916950629257363,0.0008034289425966232,22.55173114681208,0.28562198601454597,0,0,6.441270238218561,0,0,0,0,0.078125,,
0.13662000000011176,1200,,,,0,0.111328125,-0.978515625,-0.0003916950629257363,0.0008034289425966232,22.551917440067502,0.28401340158332833,4,0,6.405046784379957,0.00015404748815496703,0.002405095440218235,0,0.0001254368577847007,0.078125,,
0.1540099999997765,1200,,,,-0.0625,0.080078125,-1.013671875,-0.0003916950629257363,0.0008034289425966232,22.55216985614713,0.2725705948726454,4,0,6.1470583533589656,0.00015404749417114515,0.0025060359820233084,0,0.00013070136907966748,0.080078125,,
0.16225999999977647,1200,,,,-0.03125,0.029296875,-0.98828125,-0.0003916950629257363,0.0008034289425966232,22.55237910814061,0.2670655327907879,4,0,6.0229631422154055,0.00015404749702401443,0.002557669595290794,0,0.00013339429839198728,0.078125,,
0.170785000000149,1200,,,,-0.125,0.18359375,-0.99609375,-0.0003916950629257363,0.0008034289425966232,22.552458401122987,0.26282497114976033,4,0,5.927349228631319,0.00015404749166241096,0.0025989272054075,0,0.00013554607829006603,0.080078125,,
0.178214999999851,1200,,,,-0.03125,0.00390625,-0.953125,-0.0003916950629257363,0.0008034289425966232,22.552436001974616,0.25814344786161003,4,0,5.821763587228031,0.00015404749588453833,0.0026460623757119336,0,0.00013800439172061382,0.080078125,,
0.18521999999973923,1200,,,,-0.0625,0.02734375,-0.9609375,-0.0003826582318844474,0.0008034289425966232,22.55267581894778,0.2542298601788952,212,0,5.733563620111045,0.00849915689309193,0.14823515454298425,0.09453042845339707,0.0001401273267080383,0.080078125,,
0.193589999999851,1200,,,,-0.0625,0.046875,-0.962890625,-0.0003826582318844474,0.0008034289425966232,22.552936894271,0.247738792958184,534,0,5.587237363848792,0.021384641634418777,0.38274088322762573,0.03757037206101677,0.0001437971738582407,0.080078125,,
0.20274499999918044,1200,,,,-0.03125,0.044921875,-0.98046875,-0.0003826582318844474,0.0008034289425966232,22.55303268175511,0.2416084910424938,669,0,5.449004194670899,0.02679466356886982,0.4917350512424798,0.029984662450849027,0.00014744509526756706,0.080078125,,
0.21134499999973924,1200,,,,-0.03125,0.087890625,-1.021484375,-0.0003826582318844474,0.0008034289425966232,22.553266473275,0.2356871860145506,716,0,5.3155159105224925,0.028703501404612627,0.5399946475146793,0.027990624950986396,0.00015114787654123483,0.080078125,,
0.2194449999993667,1200,,,,-0.0625,0.0390625,-0.95703125,-0.0003826582318844474,0.0008034289425966232,22.553532286488245,0.23061831900270938,733,0,5.201257703483251,0.02936027991474186,0.5644842380157296,0.027364485111506714,0.0001544682052686164,0.080078125,,
0.22761999999918042,1200,,,,-0.0625,0.04296875,-0.990234375,-0.0003826582318844474,0.0008034289425966232,22.55385302465289,0.22586552535722074,739,0,5.094137862242767,0.029619887702860608,0.5814504535183512,0.027124645125478658,0.000157716372097339,0.080078125,,
0.23574000000022352,1200,,,,-0.0625,0.0546875,-0.984375,-0.0003826582318844474,0.0008034289425966232,22.554091709358133,0.22081933691567754,742,0,4.980379575995843,0.029721246142744,0.5967666859368072,0.027032141880523688,0.00016131881723813692,0.078125,,
0.2503099999995902,1200,,,,-0.03125,0.0234375,-0.9609375,-0.0003826582318844474,-0.001109133036273638,22.554346785057067,0.20968212510716744,780,0,4.729243364294776,0.031271270871063475,0.661232008214207,0.0354681151542185,0.00023452653010996649,0.078125,,
0.2588899999996647,1200,,,,-0.0625,0.09375,-0.984375,-0.0003826582318844474,-0.001109133036273638,22.55442794503437,0.20548084207705855,789,0,4.634502846712003,0.03160327399530708,0.6819129265985533,0.0350955105612899,0.00023932082317319625,0.078125,,
0.26781499999947844,1200,,,,-0.03125,0.033203125,-0.95703125,-0.0003826582318844474,-0.001109133036273638,22.554736934770485,0.19831089020910828,792,0,4.472849959966589,0.03174262434153008,0.7096733542514623,0.03494144102075761,0.0002479700965158069,0.078125,,
0.2802649999996647,1200,,,,-0.125,0.126953125,-1.001953125,-0.0003826582318844474,-0.001109133036273638,22.552142503065166,0.26706538642485955,794,0,6.022896652289598,0.03180025669189927,0.5279894131972269,0.034878115828422734,0.00018415275909673833,0.080078125,,
0.2899500000001863,1200,,,,0.03125,0.005859375,-0.955078125,-0.0003826582318844474,-0.001109133036273638,22.550133518756425,0.3258538917669972,794,0,7.348048766952192,0.031811601421716365,0.43292583419953423,0.03486567751086188,0.00015094252521321818,0.083984375,,
0.2982649999996647,1200,,,,-0.09375,-0.044921875,-0.9140625,-0.0003826582318844474,-0.001109133036273638,22.548520982941454,0.37686817695594105,851,0,8.49781999589393,0.03409919614583534,0.401269927608631,0.03252666225708375,0.00013051971409250385,0.083984375,,
0.30595499999914316,1200,,,,0.0625,-0.046875,-1.0546875,-0.0003826582318844474,-0.001109133036273638,22.547494795604766,0.40486241015650715,866,0,9.128633085939848,0.034704210216148494,0.38016874913727006,0.031959610357521935,0.00012150045092533654,0.0859375,,
0.31337999999895694,1200,,,,0,0.07421875,-0.828125,-0.0003826582318844474,-0.001109133036273638,22.54660463685901,0.4258761252799154,873,0,9.60206062096369,0.03499943289879299,0.3644991870013871,0.031690028792206185,0.00011550989730809703,0.0859375,,
0.321160000000149,1200,,,,-0.0625,-0.017578125,-0.94140625,-0.0003826582318844474,-0.001109133036273638,22.54618607918778,0.4399150948243607,876,0,9.918407586953574,0.035115536789911174,0.35404409913645085,0.031585250793953294,0.00011182571663344064,0.0859375,,
0.328695000000298,1200,,,,0,-0.0625,-0.95703125,-0.0003826582318844474,-0.001109133036273638,22.54575531300694,0.4503059434861702,1095,0,10.152487617831925,0.0438804007800085,0.432213290296819,0.025276274066734335,0.00010924741580827406,0.0859375,,
0.3374199999999255,1200,,,,-0.03125,0.001953125,-0.9296875,0.014714077829479229,-0.001109133036273638,22.54556978744838,0.45626900363341377,1183,0,10.286844663266669,1.8221599071854184,17.71349686743279,0.0006086913842741988,0.0001078205292857435,0.0859375,,
0.345570000000298,1200,,,,-0.09375,0.078125,-0.998046875,0.014714077829479229,-0.001109133036273638,22.54549198820048,0.46098966534271807,1217,0,10.39323880662747,1.8751893417326182,18.04239637539035,0.0005914778905733501,0.00010671678549004143,0.087890625,,
0.3529699999997392,1200,,,,0,0.1015625,-0.96875,0.014714077829479229,-0.001109133036273638,22.545484280470582,0.4605349528385235,1292,0,10.382983539828192,1.9908319625134483,19.173987465903185,0.0005571203683475851,0.00010682218959695961,0.0859375,,
0.3597049999991432,1200,,,,-0.09375,-0.01953125,-0.994140625,0.014714077829479229,-0.001109133036273638,22.54525298914619,0.45997733311453304,1376,0,10.370305344339918,2.1208386178427467,20.451072050644044,0.0005229690872952015,0.00010695278484533723,0.087890625,,
0.3667649999996647,1200,,,,-0.0625,0.078125,-0.9609375,0.014714077829479229,-0.001109133036273638,22.5452853464096,0.45830289979298666,1414,0,10.332569650919849,2.179278720814885,21.091352823553205,0.0005089450127145307,0.0001073433883094994,0.087890625,,
0.3765750000001863,1200,,,,-0.0625,0.123046875,-0.974609375,0.014714077829479229,-0.001109133036273638,22.545422854942164,0.45554781701691127,1432,0,10.270518165292081,2.207038654310129,21.489068212434866,0.0005025435481646914,0.00010799192586230099,0.087890625,,
0.38474500000011175,1200,,,,0,0.09765625,-1,0.014714077829479229,-0.001109133036273638,22.54549091290979,0.4515364181595103,1474,0,10.180110212463076,2.271618059786397,22.314277668677413,0.0004882568315106331,0.0001089509851195691,0.087890625,,
0.39257499999925494,1200,,,,0,0.072265625,-0.947265625,0.014714077829479229,0.09848033801422211,22.54561315792094,0.44625636462076207,1505,0,10.061123365999817,2.318742675603422,23.04655843341802,0.042471438961459544,0.009788204997766241,0.0859375,,
0.4009550000000745,1200,,,,-0.03125,0.0625,-0.984375,0.014714077829479229,0.09848033801422211,22.54618416495716,0.4395118320667855,1518,0,9.90931470845547,2.338619260916438,23.600211818087974,0.042110462211634433,0.00993815827952162,0.087890625,,
0.40850499999988826,1200,,,,-0.03125,0.046875,-1.01171875,0.014714077829479229,0.09848033801422211,22.546317198122743,0.43525804056226436,1530,0,9.813465845550187,2.3567392511971055,24.015361018102936,0.041786692339510635,0.010035225022857442,0.087890625,,
0.4166749999998137,1200,,,,-0.0625,0.0390625,-1.02734375,0.014714077829479229,0.09848033801422211,22.546600236273555,0.42872711672523733,1552,0,9.666338911254115,2.3916606135411467,24.742155592709832,0.04117655216490349,0.01018796660435375,0.087890625,,
0.42458999999891966,1200,,,,-0.03125,0.0546875,-0.98046875,0.014714077829479229,0.09848033801422211,22.54706402160786,0.4221528181575223,1561,0,9.518306617899837,2.405214002072571,25.269347780301583,0.04094452216283528,0.010346413702309506,0.0859375,,
0.4325599999995902,1200,,,,-0.125,-0.046875,-0.9453125,0.014714077829479229,0.09848033801422211,22.54724145186967,0.41633780804127857,1564,0,9.387269083448874,2.4105291627543943,25.678705290386418,0.04085424044473846,0.01049084000243024,0.087890625,,
0.441445000000298,1200,,,,0,0.04296875,-0.955078125,0.014714077829479229,0.09848033801422211,22.54727353047444,0.4113176348115343,1576,0,9.27409122000346,2.4289640695283414,26.19085807878689,0.04054417241064629,0.010618866655291038,0.0859375,,
0.45750499999988825,1200,,,,0,0.0859375,-0.91796875,0.014714077829479229,0.09848033801422211,22.547746876166503,0.39788459726427855,1585,0,8.971401185040405,2.4417625462172095,27.21718152888748,0.04033166049122522,0.01097714124951136,0.087890625,,
0.4655849999999627,1200,,,,-0.03125,0.025390625,-0.984375,0.014714077829479229,0.09848033801422211,22.54814333048907,0.39244506747471264,1589,0,8.848907630763275,2.448992387381456,27.675646413886394,0.04021259458446932,0.011129095491047358,0.087890625,,
0.4728649999992922,1200,,,,-0.03125,0.0625,-0.99609375,0.014714077829479229,0.09848033801422211,22.54794337752322,0.3862910928514678,1595,0,8.71006968885646,2.458037666291013,28.220642935105232,0.0400646171394197,0.011306492546232604,0.087890625,,
0.48091500000003723,1200,,,,-0.125,-0.03515625,-0.94921875,0.014714077829479229,0.09848033801422211,22.548338097799558,0.3812045257320727,1598,0,8.595528530618108,2.4616778409641813,28.639051481191014,0.040005372098426036,0.011457159110510259,0.087890625,,
0.4887599999997765,1200,,,,-0.03125,0.060546875,-0.9921875,0.021608537792395337,0.09848033801422211,22.548495835445436,0.3757822226970705,1598,0,8.473323883519324,3.6170907970544683,42.6879799093923,0.02722639367925691,0.011622397463853244,0.087890625,,
0.49615999999921767,1200,,,,-0.03125,0.064453125,-0.96484375,0.021608537792395337,0.09848033801422211,22.54886595937063,0.3704810561105949,1602,0,8.353927674723874,3.6259164003561497,43.4037322507224,0.027160123715083185,0.01178850737625966,0.087890625,,
0.5048149999994784,1200,,,,-0.0625,-0.01953125,-0.98046875,0.021608537792395337,0.09848033801422211,22.549154417224734,0.3660974500546528,1604,0,8.255187933034586,3.6293979688399958,43.96505565083893,0.027134069853931655,0.011929508911618562,0.087890625,,
0.5126899999994785,1200,,,,-0.03125,-0.013671875,-0.96484375,0.021608537792395337,0.09848033801422211,22.54948756764096,0.3618132530027625,1605,0,8.158703450393526,3.630740269303797,44.50143691800285,0.02712403827032936,0.012070586780485571,0.087890625,,
0.5200849999999627,1200,,,,-0.0625,0.15625,-0.96875,0.021608537792395337,0.09848033801422211,22.549611630908423,0.3587507539877505,1607,0,8.089690174719346,3.635582890919268,44.94094102986332,0.027087908863307766,0.012173561148482262,0.08984375,,
0.527984999999404,1200,,,,-0.0625,0.0390625,-0.955078125,0.021608537792395337,0.09848033801422211,22.549915087433543,0.3543025376765288,1607,0,7.989492139867949,3.6374432619907844,45.527840797786986,0.027074054746993773,0.012326232542717015,0.08984375,,
0.535464999999851,1200,,,,-0.125,0.0078125,-0.984375,0.021608537792395337,0.42109503759674777,22.55024833749964,0.3512653568310426,1608,0,7.921121028900436,3.6381739933528974,45.93003919620614,0.11574351264291009,0.05316104072395442,0.08984375,,
0.5438649999992922,1200,,,,-0.03125,0.05078125,-0.935546875,0.021608537792395337,0.42109503759674777,22.550139767636242,0.34584249069933687,1609,0,7.798796502857484,3.6404679842133976,46.679868911562544,0.11567057845936106,0.05399487439407585,0.08984375,,
0.5515299999993295,1200,,,,0,0.0546875,-0.97265625,0.021608537792395337,0.42109503759674777,22.55013296501635,0.343156051162513,1610,0,7.7382145814646215,3.643378591911819,47.08293565080011,0.1155781720108816,0.054417596354254444,0.08984375,,
0.5598149999994785,1200,,,,-0.0625,0.16796875,-0.99609375,0.021608537792395337,0.42109503759674777,22.55029201837825,0.3391674431269006,1611,0,7.648324885638306,3.6445345250230257,47.65140837396402,0.11554151420587444,0.05505715877570287,0.091796875,,
0.567839999999851,1200,,,,-0.09375,0.04296875,-0.96875,0.021608537792395337,0.42109503759674777,22.550473135140418,0.3355467068641767,1611,0,7.566736998725454,3.645423595393821,48.176956540287556,0.11551333516599356,0.055650809281157426,0.091796875,,
0.5757599999997765,1200,,,,0.0625,0.0703125,-1,0.021608537792395337,0.42109503759674777,22.55067854033027,0.3317733540248648,1612,0,7.481714254861917,3.6466609935101486,48.740981936598324,0.1154741387658896,0.05628322911732473,0.091796875,,
0.583875,1200,,,,-0.09375,0.095703125,-0.994140625,0.021608537792395337,0.42109503759674777,22.550937058048007,0.3291639988526438,1612,0,7.422956619901357,3.647147392351541,49.13335183144324,0.11545873865142638,0.05672874828175187,0.091796875,,
0.6019950000001117,1200,,,,0,0.052734375,-0.9921875,0.021608537792395337,0.42109503759674777,22.551087650553402,0.32152268484514734,1612,0,7.250686247584175,3.6470686169466453,50.29963361277419,0.11546123251974674,0.0580765769222259,0.09375,,
0.6119399999994785,1200,,,,-0.1875,-0.015625,-1.01171875,0.021608537792395337,0.42109503759674777,22.551136059043788,0.3174971899759999,1612,0,7.159922329512847,3.6469748675465037,50.93595572278561,0.11546420057455421,0.0588127940803233,0.09375,,
0.6198349999999627,1200,,,,-0.0625,0.037109375,-1.00390625,0.021608537792395337,0.42109503759674777,22.55104255525033,0.3159008787854196,1612,0,7.123894160730974,3.646940534062298,51.19307575013284,0.11546528759208843,0.059110232142126566,0.09375,,
0.627699999999255,1200,,,,0,0.03515625,-0.98046875,0.021608537792395337,0.42109503759674777,22.55089154006138,0.3133768518453746,1612,0,7.066927397130926,3.6469278821921502,51.60556600132544,0.11546568816261582,0.05958672191364332,0.095703125,,
0.6356799999997019,1200,,,,-0.0625,0.171875,-0.984375,0.021608537792395337,0.42109503759674777,22.55081545849509,0.31207453498986476,1612,0,7.03753524785211,3.646922986853704,51.82102623168762,0.11546584315454314,0.059835584869755085,0.095703125,,
0.6436949999993667,1200,,,,-0.03125,0.021484375,-0.97265625,0.020664382703362766,0.42109503759674777,22.550776081586232,0.3096419279697346,1612,0,6.982665783116138,3.487573902130379,49.946166843087646,0.1207415382193113,0.06030577012792766,0.095703125,,
0.6515200000004843,1200,,,,0,0.03125,-0.95703125,0.020664382703362766,0.42109503759674777,22.550639288132757,0.30776503593752463,1613,0,6.940298310926333,3.4899122590566063,50.28475870500158,0.12066063738535887,0.060673910361144626,0.095703125,,
0.6598549999995157,1200,,,,-0.03125,-0.005859375,-0.95703125,0.020664382703362766,0.42109503759674777,22.550640743678922,0.30575834063191454,1614,0,6.895046493973711,3.492004795445545,50.6451232562038,0.12058833313916462,0.06107210995093158,0.09765625,,
0.6677149999989197,1200,,,,-0.1875,0.16796875,-1.0390625,0.020664382703362766,0.42109503759674777,22.550707379371545,0.30482602063602626,1614,0,6.8740423929813,3.4928202883928248,50.811736220293724,0.12056017854571874,0.061258719909365746,0.099609375,,
0.675785000000149,1200,,,,0,0.029296875,-1,0.020664382703362766,0.42109503759674777,22.55086870418188,0.30287636574441645,1614,0,6.830125157502106,3.4933547712614113,51.14627756746687,0.12054173285259977,0.06165260926942508,0.09765625,,
0.6838150000004097,1200,,,,-0.125,0.01171875,-0.97265625,0.020664382703362766,0.42109503759674777,22.550924417294564,0.30154968167519164,1614,0,6.800224079516482,3.493672798573539,51.375848173843565,0.12053075999809719,0.061923700259402185,0.09765625,,
0.691824999999255,1200,,,,-0.03125,0.06640625,-0.974609375,0.020664382703362766,0.5815032916062728,22.550977230574585,0.299917974855042,1615,0,6.763443421996094,3.4937978069771227,51.657086324025144,0.16643873622137187,0.08597740164649058,0.09765625,,
0.6998499999996275,1200,,,,-0.03125,-0.001953125,-1.009765625,0.020664382703362766,0.5815032916062728,22.551027332926935,0.29932632944115484,1615,0,6.750116236692175,3.493847253192674,51.75980873041674,0.16643638071896122,0.08614715231796252,0.09765625,,
0.7078099999995903,1200,,,,-0.0625,0.22265625,-0.984375,0.020664382703362766,0.5815032916062728,22.551076991491506,0.2971349702006621,1615,0,6.7007135898596655,3.4948434418574568,52.156287460879966,0.16638893881243863,0.08678229323012318,0.099609375,,
0.7158049999997019,1200,,,,-0.0625,-0.03515625,-0.96484375,0.020664382703362766,0.5815032916062728,22.551492523971895,0.2965495913908957,1615,0,6.6876358932387046,3.4952059771980473,52.26370025215862,0.1663716803529955,0.08695199632416906,0.099609375,,
0.724089999999851,1200,,,,0,0.087890625,-0.9609375,0.020664382703362766,0.5815032916062728,22.551520691091948,0.2932448180535218,1615,0,6.613116581889491,3.495369103575924,52.85509578264885,0.1663639159055815,0.08793180709966049,0.099609375,,
0.7321949999993667,1200,,,,-0.125,0.078125,-0.98828125,0.020664382703362766,0.5815032916062728,22.55154435103537,0.29175070235814893,1616,0,6.579428903675516,3.496382922479159,53.141130843832784,0.16631567665762131,0.0883820313464324,0.099609375,,
0.7400649999994785,1200,,,,-0.03125,0.033203125,-0.919921875,0.020664382703362766,0.5815032916062728,22.55147809783479,0.29060324417250794,1616,0,6.553532696116048,3.4967527818088304,53.356761062337895,0.1662980850780843,0.08873127190635682,0.099609375,,
0.7499599999999628,1200,,,,-0.0625,0.0859375,-1.05078125,0.020664382703362766,0.5815032916062728,22.551438137676648,0.2897694128322185,1616,0,6.534716987676662,3.4969280816225723,53.51307620845967,0.16628974861171744,0.08898675990144436,0.099609375,,
0.757554999999702,1200,,,,-0.09375,-0.0078125,-0.939453125,0.020664382703362766,0.5815032916062728,22.55155402010525,0.2869307836960282,1616,0,6.4707350685521146,3.497715437549736,54.054375592483986,0.16625231582979627,0.08986665122984079,0.099609375,,
0.7654999999990687,1200,,,,-0.03125,0.056640625,-0.94140625,0.020664382703362766,0.5815032916062728,22.551482971601146,0.2862267922324928,1617,0,6.454838631047081,3.4982449150959543,54.195698995010844,0.16622715267788005,0.09008796731328099,0.1015625,,
0.7743049999997019,1200,,,,-0.03125,0.060546875,-0.98046875,0.020664382703362766,0.5815032916062728,22.551405220131027,0.2878479851127604,1617,0,6.491376554076103,3.498482890513861,53.89431442421982,0.1662158454977783,0.08958089039544809,0.1015625,,
0.7829349999995903,1200,,,,-0.0625,0.2421875,-0.96484375,0.020664382703362766,0.5815032916062728,22.551383251935864,0.29299547277630716,1617,0,6.607453197660644,3.498798209846018,52.95229652303494,0.16620086576295143,0.0880071752626493,0.103515625,,
0.7907949999999255,1200,,,,-0.09375,-0.044921875,-0.970703125,0.018922100641384648,0.5815032916062728,22.551020745916208,0.2941794001150112,1617,0,6.634045755014802,3.2039995090721045,48.29631310049587,0.18149294029532462,0.08765439870032603,0.103515625,,
0.7989900000002235,1200,,,,0.03125,0.115234375,-0.990234375,0.018922100641384648,0.5815032916062728,22.55106880854339,0.29067839485641817,1617,0,6.555108483564031,3.2040768676325473,48.87908225571397,0.18148855836780795,0.08870994172931031,0.103515625,,
0.8075349999992177,1200,,,,-0.09375,-0.025390625,-0.947265625,0.018922100641384648,0.5815032916062728,22.551120763204477,0.2876792584841006,1623,0,6.487489699144068,3.216286954748087,49.576756247835434,0.18079956788302756,0.08963456106650834,0.10546875,,
0.8159500000001862,1200,,,,-0.0625,0.14453125,-0.90625,0.018922100641384648,0.5815032916062728,22.55129232744492,0.2862688999236558,1628,0,6.455733646434436,3.2259835323703103,49.97082762471236,0.18025612523167775,0.09007547762250735,0.10546875,,
0.8240299999993295,1200,,,,-0.03125,0.00390625,-0.998046875,0.018922100641384648,0.5815032916062728,22.551327171898556,0.2842666593373971,1630,0,6.4105904387802735,3.2298846606972345,50.38357529687665,0.18003840777420946,0.09070978674421663,0.10546875,,
0.831855000000447,1200,,,,-0.03125,0.064453125,-0.978515625,0.018922100641384648,0.5815032916062728,22.55129501698022,0.28088948539634173,1629,0,6.33442165234066,3.228261336504223,50.96378980883494,0.1801289396960543,0.09180053421158016,0.10546875,,
0.8391299999998882,1200,,,,-0.125,-0.05078125,-0.94140625,0.018922100641384648,0.6499238126058442,22.5513291170357,0.27965310702453344,1626,0,6.306549255111862,3.2213522719402485,51.07947534587376,0.20175496429466544,0.10305537724597004,0.10546875,,
0.8573749999990686,1200,,,,-0.041015625,0.0625,-0.97265625,0.018922100641384648,0.6499238126058442,22.551402837041792,0.27815115835881243,1624,0,6.272698821739383,3.2173234942059477,51.29089703869765,0.20200760469883952,0.10361151253642113,0.10546875,,
0.8752099999999627,1200,,,,0,0.123046875,-0.994140625,0.018922100641384648,0.6499238126058442,22.551580390359216,0.27622622107898626,1619,0,6.229337830587896,3.2077224192017906,51.4937944680239,0.20261223624442268,0.10433272849877005,0.10546875,,
0.8854599999999627,1200,,,,-0.0625,0.0234375,-0.974609375,0.018922100641384648,0.6499238126058442,22.551517451795675,0.27530261521988514,1618,0,6.208491731656229,3.2065463529947866,51.64775104144951,0.20268654841020503,0.10468304391740972,0.107421875,,
0.8934950000001117,1200,,,,-0.09375,0.1171875,-1.001953125,0.018922100641384648,0.6499238126058442,22.551475548683957,0.27415226576241675,1618,0,6.1825381179574475,3.2056641310923353,51.85029303388112,0.20274232921100863,0.10512249179962393,0.107421875,,
0.9034199999989941,1200,,,,-0.0625,0.044921875,-0.96484375,0.018922100641384648,0.6499238126058442,22.551634994956864,0.27412986765661745,1618,0,6.182076716607868,3.2053158009221256,51.84852838061991,0.2027643617576995,0.10513033765172364,0.107421875,,
0.9196049999995157,1200,,,,0.0625,0.00390625,-0.9609375,0.018922100641384648,0.6499238126058442,22.551673979078352,0.2727620635931212,1615,0,6.151241132012706,3.2000614501028823,52.023020743714724,0.20309729133012402,0.10565734599859314,0.107421875,,
0.9352249999996275,1200,,,,-0.0625,-0.03515625,-0.9921875,0.018922100641384648,0.6499238126058442,22.551569552701928,0.2725043212469765,1614,0,6.14540015401302,3.197397136608787,52.029112124144575,0.20326652737769205,0.10575776944019441,0.107421875,,
0.9495249999994412,1200,,,,-0.03125,0.091796875,-0.990234375,0.01805626417404937,0.6499238126058442,22.551603249696342,0.2724286939823635,1613,0,6.143703820523199,3.050732916094315,49.656249800051626,0.21303858137732548,0.105786970139211,0.107421875,,
0.966429999999702,1200,,,,-0.01953125,-0.029296875,-0.99609375,0.01805626417404937,0.6499238126058442,22.551787592380663,0.2727954195945641,1613,0,6.1520243588709675,3.050631924994575,49.587448732963615,0.21304563401466403,0.10564389454483883,0.107421875,,
0.973894999999553,1200,,,,-0.041015625,0.0390625,-0.9921875,0.01805626417404937,0.6499238126058442,22.551832201751548,0.2730264398744406,1614,0,6.157246458689992,3.051491781909579,49.559357456008186,0.21298560148804707,0.10555429557129034,0.107421875,,
0.9916499999994413,1200,,,,-0.09375,0.01953125,-0.9375,0.01805626417404937,0.6732456330279174,22.55173348309785,0.2706907069130259,1614,0,6.104544678653912,3.051698663237312,49.99060247537134,0.22061340496630913,0.11028597028408874,0.109375,,
1.000035000000149,1200,,,,0,0.08984375,-1.03515625,0.01805626417404937,0.6732456330279174,22.551676095690524,0.2708531143424773,1613,0,6.108191704160577,3.050129244940654,49.93506086036998,0.22072691973451658,0.11022012170465084,0.109375,,
1.0079550000000745,1200,,,,-0.0625,0.111328125,-0.982421875,0.01805626417404937,0.6732456330279174,22.551692028026547,0.27099250514442913,1613,0,6.111339517920565,3.0495853560333663,49.90044076410622,0.22076628604474163,0.11016334979487359,0.109375,,
1.0159349999995901,1200,,,,-0.0625,0.044921875,-0.94921875,0.01805626417404937,0.6732456330279174,22.55190428550034,0.2708588429056761,1613,0,6.108382700090179,3.049369456738701,49.92106104769242,0.22078191658283128,0.11021667535958055,0.109375,,
1.024234999999404,1200,,,,-0.0625,0.060546875,-0.98046875,0.01805626417404937,0.6732456330279174,22.552006481206032,0.26962312294734475,1613,0,6.08054241619153,3.050116174892731,50.16190935155309,0.22072786557108587,0.11072131184138606,0.109375,,
1.0319049999993295,1200,,,,0.0625,-0.1015625,-1.05859375,0.01805626417404937,0.6732456330279174,22.55187507488874,0.2723859620286898,1613,0,6.142814187824401,3.0504138060457695,49.65824641240099,0.22070632898840734,0.10959889269682772,0.109375,,
1.0400949999997393,1200,,,,-0.125,0.140625,-1.021484375,0.01805626417404937,0.6732456330279174,22.551491946246752,0.2751953641812537,1613,0,6.206066038977984,3.0505303410514655,49.15401031655517,0.22069789766321785,0.10848186738579849,0.111328125,,
1.0481650000000373,1200,,,,0.125,0.0078125,-0.96484375,0.01805626417404937,0.6732456330279174,22.55125287366405,0.27942016197893954,1615,0,6.3012747307872345,3.0543170103107684,48.471414766091065,0.2204242816823446,0.10684276781942613,0.111328125,,
1.0587949999999255,1200,,,,-0.03125,0.048828125,-0.96484375,0.01805626417404937,0.6732456330279174,22.551289476470686,0.27585139706637024,1617,0,6.220804707732571,3.0576448471863817,49.15191829419873,0.2201843793753327,0.10822484624715209,0.111328125,,
1.078125,1200,,,,-0.0625,0.138671875,-1.021484375,0.01805626417404937,0.6732456330279174,22.55162768896408,0.274116551878924,1622,0,6.1817744213561,3.067403460131781,49.62011311080617,0.21948388654389586,0.10890815276307464,0.11328125,,
1.085839999999851,1200,,,,-0.0625,-0.01171875,-0.974609375,0.01805626417404937,0.6732456330279174,22.551845856116685,0.27626084014240015,1625,0,6.230191882972701,3.07356224635567,49.33334805876215,0.2190440860035245,0.10806178135025307,0.11328125,,
1.0944449999993666,1200,,,,0,0.076171875,-0.970703125,0.017502063330532783,0.6732456330279174,22.551951414741378,0.2755509471151343,1627,0,6.214211571626479,2.9815258414531938,47.97914919837245,0.22580573465691578,0.10833967032952263,0.11328125,,
1.1030699999993667,1200,,,,-0.03125,0.029296875,-0.931640625,0.017502063330532783,0.6732456330279174,22.552174037756814,0.27461445320574396,1627,0,6.1931529419793625,2.981617596613513,48.14377465802699,0.22579878579754223,0.1087080586149298,0.11328125,,
1.1112099999999627,1200,,,,-0.125,0.1796875,-1.0390625,0.017502063330532783,0.6732456330279174,22.552034393975887,0.2723292256103008,1627,0,6.141578062448323,2.9816484967294774,48.54857280021043,0.22579644574683763,0.10962095184369111,0.115234375,,
1.1195599999995902,1200,,,,-0.03125,0.037109375,-0.970703125,0.017502063330532783,0.6732456330279174,22.55203280492058,0.2691012587343969,1627,0,6.068780414823539,2.9816607938266766,49.13113657142221,0.22579551450715862,0.11093590260465755,0.115234375,,
1.1277199999997392,1200,,,,-0.03125,0.083984375,-0.96875,0.017502063330532783,0.6732456330279174,22.552031132033214,0.2669985441521352,1623,0,6.021359479926498,2.974477488052892,49.398769463423584,0.2263408063204497,0.11180957311589303,0.115234375,,
1.1362549999998883,1200,,,,-0.1875,-0.01953125,-0.97265625,0.017502063330532783,0.6766386953950834,22.552327726352193,0.265282561649458,1622,0,5.982739270404807,2.9719885608970635,49.67605015981202,0.22767203894985621,0.11309847626859733,0.115234375,,
1.145339999999851,1200,,,,0,0.029296875,-1.005859375,0.017502063330532783,0.6766386953950834,22.552376292658373,0.2648518794083326,1621,0,5.973039246234494,2.9710313944358098,49.74069769102553,0.22774538722892732,0.11328214456679621,0.115234375,,
1.154269999999553,1200,,,,-0.0625,0.08984375,-0.943359375,0.017502063330532783,0.6766386953950834,22.552434556520677,0.2631481186306092,1619,0,5.934630724088354,2.9665884059804526,49.98775060997858,0.22808647604467916,0.11401529882030276,0.1171875,,
1.1612750000003724,1200,,,,0,-0.01953125,-0.96484375,0.017502063330532783,0.6766386953950834,22.55247899501689,0.2643121314117208,1617,0,5.960893791790977,2.963456139113005,49.71496293381569,0.22832755527051896,0.11351295947042604,0.115234375,,
1.1693899999996646,1200,,,,-0.03125,0.064453125,-0.943359375,0.017502063330532783,0.6766386953950834,22.55245764091138,0.2639068288250698,1616,0,5.951747578224637,2.962291951018462,49.77180083806733,0.22841728856686425,0.11368739794521322,0.1171875,,
1.177195000000298,1200,,,,-0.0625,0.0078125,-0.95703125,0.017502063330532783,0.6766386953950834,22.552823326571215,0.26490774391346644,1615,0,5.974417546320979,2.9606134040160206,49.55484582491482,0.22854679184970073,0.11325601033890818,0.1171875,,
1.185789999999106,1200,,,,-0.125,0.18359375,-1.0546875,0.017502063330532783,0.6766386953950834,22.552718816554304,0.26512374952313367,1614,0,5.979261374585807,2.9576193591544695,49.46462738233029,0.22877815338229404,0.1131642611027278,0.1171875,,
1.1941650000000372,1200,,,,-0.03125,-0.001953125,-0.958984375,0.017502063330532783,0.6766386953950834,22.552898278179807,0.2645247499519136,1613,0,5.965799777726456,2.9563523414594326,49.55500438511343,0.2288762019012436,0.11341961188864234,0.1171875,,
1.201519999999553,1200,,,,-0.03125,0.07421875,-0.958984375,0.017502063330532783,0.6766386953950834,22.552854694562786,0.2643906331862303,1613,0,5.9627635328525015,2.955922741069614,49.57303312102908,0.22890946572921547,0.11347736526311467,0.1171875,,
1.2122249999996275,1200,,,,-0.1875,-0.0703125,-0.94921875,0.017502063330532783,0.6766386953950834,22.552878703928666,0.26377162953032585,1613,0,5.948809566335047,2.956021635584824,49.69097770944406,0.22890180750020664,0.11374354614144223,0.119140625,,
1.2199599999999629,1200,,,,0.03125,0.06640625,-0.984375,0.017502063330532783,0.6766386953950834,22.552744226730432,0.2625272787549867,1613,0,5.920710570300778,2.9560640823484556,49.92752216560866,0.22889852064963537,0.11428335963409701,0.119140625,,
1.2280099999997764,1200,,,,-0.09375,0.03515625,-0.998046875,0.017502063330532783,0.6766386953950834,22.552710821815857,0.2617606411237142,1613,0,5.903412043796247,2.9560760289269594,50.07402510609823,0.22889759558745174,0.11461823948171578,0.119140625,,
1.2353349999999628,1200,,,,0,0.08984375,-0.91015625,0.017502063330532783,0.6766386953950834,22.55274332233161,0.26260826076572696,1613,0,5.922536699373367,2.9563593288466783,49.91711286752306,0.2288756609498652,0.1142481220026336,0.119140625,,
1.2437499999990687,1200,,,,0,0.04296875,-0.97265625,0.017854222424061227,0.6766386953950834,22.552800368103686,0.2633084889788529,1613,0,5.938343787167099,3.01594489537309,50.78764388634114,0.22435379918019993,0.11394400857311689,0.119140625,,
1.2512099999999629,1200,,,,-0.0625,0.04296875,-0.98046875,0.017854222424061227,0.6766386953950834,22.552762117927866,0.264637413914807,1613,0,5.968304643524256,3.0159886145203507,50.53342271649564,0.22435054699392257,0.11337201027920911,0.119140625,,
1.2591849999995903,1200,,,,-0.0625,0.1171875,-1.046875,0.017854222424061227,0.6766386953950834,22.55292109125167,0.2630589391701783,1613,0,5.932747497453404,3.015868818155857,50.83426893611098,0.2243594586480835,0.11405149059276945,0.119140625,,
1.267304999999702,1200,,,,-0.03125,0.0078125,-0.9765625,0.017854222424061227,0.6766386953950834,22.552876014078187,0.2634748271863372,1613,0,5.942115110364139,3.015684338413502,50.75102522254399,0.2243731834847977,0.11387169094299458,0.119140625,,
1.2773699999991803,1200,,,,-0.0625,0.119140625,-0.96484375,0.017854222424061227,0.6766386953950834,22.552945454506307,0.2629678050451461,1613,0,5.9306985634744285,3.0156030021844455,50.84734909234353,0.2243792352325353,0.1140908930294179,0.119140625,,
1.2862450000001118,1200,,,,-0.0625,-0.013671875,-0.982421875,0.017854222424061227,0.6781123910155271,22.553110537116225,0.26202333349443513,1613,0,5.909441203603664,3.0155782862096294,51.029838225155466,0.22486976846748252,0.11475067906623798,0.119140625,,
1.29425,1200,,,,0.0625,0.015625,-0.94140625,0.017854222424061227,0.6781123910155271,22.553186893399793,0.2628095249236082,1613,0,5.927192332967747,3.015569720892921,50.876866338889734,0.22487040717955464,0.11440701649645912,0.119140625,,
1.3029749999996274,1200,,,,-0.09375,0.001953125,-0.98828125,0.017854222424061227,0.6781123910155271,22.55304967666674,0.2626936589406599,1613,0,5.924543139834052,3.015566005337684,50.89955350417367,0.22487068424807763,0.1144581742440517,0.119140625,,
1.3107849999992176,1200,,,,-0.0625,0.064453125,-0.95703125,0.017854222424061227,0.6781123910155271,22.552802344002906,0.2637638297055493,1612,0,5.948613516846495,3.0144681647641645,50.67513894165724,0.2249525800079494,0.11399503247187101,0.1171875,,
1.3188700000001117,1200,,,,0.0625,-0.01953125,-0.9609375,0.017854222424061227,0.6781123910155271,22.552957432372384,0.26403545433846176,1611,0,5.95478036233243,3.0118545807787647,50.578768611358996,0.22514778613255293,0.11387697778158135,0.1171875,,
1.3266099999994039,1200,,,,-0.03125,0.044921875,-0.966796875,0.017854222424061227,0.6781123910155271,22.553004890509442,0.2626007660395161,1610,0,5.922436360740733,3.010850670022502,50.83804175560491,0.22522285736956166,0.11449889027270427,0.1171875,,
1.3341199999991804,1200,,,,-0.0625,0.0234375,-1.08203125,0.017854222424061227,0.6781123910155271,22.553020645246356,0.2641664748269639,1610,0,5.957751960554469,3.0104184614446945,50.52943595799723,0.2252551928246222,0.11382017840038063,0.119140625,,
1.3415099999997764,1200,,,,-0.03125,-0.005859375,-0.91796875,0.017854222424061227,0.6781123910155271,22.55314791000644,0.2650368836660674,1612,0,5.977416038927989,3.0138111250700037,50.41996584213856,0.22500162182518194,0.11344574086851453,0.119140625,,
1.3494499999992549,1200,,,,-0.0625,0.064453125,-0.947265625,0.017854222424061227,0.6781123910155271,22.553090819796676,0.26454970329044447,1613,0,5.9664134846596575,3.015435777716548,50.540174352139424,0.22488039573803514,0.11365494408978408,0.119140625,,
1.3575400000000373,1200,,,,-0.0625,-0.01953125,-0.96875,0.017854222424061227,0.6781123910155271,22.55303754869444,0.26446676097343746,1613,0,5.964528790615533,3.0160624760902905,50.5666513142782,0.2248336685301564,0.1136908572027442,0.1171875,,
1.3677099999990314,1200,,,,0,0.0546875,-1.001953125,0.017854222424061227,0.6781123910155271,22.553084302910644,0.26512615371892645,1614,0,5.979412495729394,3.017769986514787,50.46933939864717,0.22470645345594314,0.11340786264534307,0.1171875,,
1.3749199999999255,1200,,,,-0.0625,0.044921875,-0.91796875,0.017854222424061227,0.6781123910155271,22.553099613682978,0.26432526926945626,1615,0,5.961354128247623,3.0193456606029976,50.64865457826028,0.22458918826806348,0.11375140218601011,0.1171875,,
1.3902449999991804,1200,,,,-0.03125,0.064453125,-0.96484375,0.018071113541913906,0.6781123910155271,22.552915873999986,0.26449124655541917,1615,0,5.965048832973757,3.0556358954891163,51.225664383468086,0.22192185659835675,0.11368094545463556,0.1171875,,
1.3980300000002608,1200,,,,-0.0625,0.00390625,-0.958984375,0.018071113541913906,0.6781123910155271,22.552871598597363,0.2660950212564563,1614,0,6.001206847422894,3.0546729026367574,50.900976758508655,0.22199181798816775,0.1129960036799481,0.1171875,,
1.406074999999255,1200,,,,0,0.171875,-0.9765625,0.018071113541913906,0.6781123910155271,22.552961287109476,0.2662582542233997,1614,0,6.004912099873687,3.0542833223369805,50.863081283092,0.222020133514225,0.11292628097416965,0.1171875,,
1.416355000000447,1200,,,,-0.0625,0.044921875,-0.97265625,0.018071113541913906,0.6781123910155271,22.55315318506535,0.26618031857091407,1614,0,6.0032054995793205,3.054114086509355,50.87472162536123,0.22203243618530424,0.11295838382728134,0.1171875,,
1.4249199999999256,1200,,,,-0.09375,0.107421875,-0.935546875,0.018071113541913906,0.6781123910155271,22.55333131347156,0.266352800703628,1614,0,6.007142960539983,3.053798015478147,50.83611353247436,0.22205541675596116,0.11288434376706952,0.119140625,,
1.4336849999995902,1200,,,,-0.0625,-0.00390625,-0.923828125,0.018071113541913906,0.680096537237107,22.553171336447942,0.2679687749848628,1614,0,6.043545695051677,3.0536491854389918,50.52744431036987,0.22271600172019643,0.11253270373945466,0.119140625,,
1.4409550000000746,1200,,,,-0.0625,0.05078125,-1.05078125,0.018071113541913906,0.680096537237107,22.553032090903145,0.2709828990129733,1614,0,6.111486017525553,3.0552708129135855,49.992273632831086,0.22259779210489994,0.11128169732972204,0.119140625,,
1.448,1200,,,,-0.03125,0.0703125,-0.935546875,0.018071113541913906,0.680096537237107,22.552815310732775,0.2740941342861708,1617,0,6.181594388311198,3.059254311321626,49.48972901079344,0.22230794436416076,0.11001959923528859,0.119140625,,
1.4560449999999254,1200,,,,-0.0625,-0.01953125,-0.9609375,0.018071113541913906,0.680096537237107,22.552840900217316,0.2731135648626361,1618,0,6.159486776038214,3.061124662232429,49.69772277360657,0.22217211393838612,0.11041448126536046,0.119140625,,
1.4636049999995158,1200,,,,0,0.072265625,-0.984375,0.018071113541913906,0.680096537237107,22.55289062984319,0.2713723719074572,1618,0,6.120231423590013,3.0618064575604365,50.02762552015456,0.2221226412132494,0.11112268314164091,0.119140625,,
1.4723899999996648,1200,,,,-0.09375,0.01171875,-0.9765625,0.018071113541913906,0.680096537237107,22.553061444057317,0.27013012667903064,1622,0,6.092261344883164,3.0693045778257853,50.380382653867386,0.22158000941010209,0.11163285662528477,0.12109375,,
1.4802149999989196,1200,,,,0,0.08984375,-1.05078125,0.018071113541913906,0.680096537237107,22.553140688594944,0.2692351493599796,1625,0,6.072098201830493,3.0752446795336112,50.64550304220292,0.2211520084119777,0.11200354714818103,0.119140625,,
1.4884699999997393,1200,,,,-0.0625,0.044921875,-0.970703125,0.018071113541913906,0.680096537237107,22.553084569784527,0.2685459066688385,1626,0,6.056538543971777,3.0775730287419902,50.814058333784985,0.22098469504559826,0.11229129184920715,0.12109375,,
1.497449999999255,1200,,,,-0.0625,0.083984375,-0.939453125,0.018071113541913906,0.680096537237107,22.553098426951056,0.26871102718759293,1623,0,6.060266244568905,3.072155498110091,50.69340808026872,0.22137438604767382,0.11222222090433674,0.12109375,,
1.5054749999996275,1200,,,,-0.0625,-0.1171875,-1.01953125,0.018071113541913906,0.680096537237107,22.553044587254355,0.26821028053266066,1621,0,6.048958415613095,3.0673289388716944,50.708381974565185,0.2217227270992585,0.11243200738191475,0.12109375,,
1.5131899999994785,1200,,,,-0.03125,0.083984375,-0.9765625,0.018071113541913906,0.680096537237107,22.55289596421007,0.2671001913696613,1620,0,6.023882827980572,3.0654317165044467,50.887970500782345,0.22185995322467342,0.11290002755002132,0.12109375,,
1.5246500000003724,1200,,,,-0.0625,0.16796875,-0.9296875,0.018071113541913906,0.680096537237107,22.553176900088786,0.2671047351537304,1619,0,6.024060342773446,3.06468276243505,50.87403824086009,0.22191417185925463,0.11289670065356518,0.12109375,,
1.541339999999851,1200,,,,0,-0.044921875,-0.978515625,0.017849289536976832,0.680096537237107,22.552951454309287,0.26643535491011094,1616,0,6.008903624999398,3.0205629478727496,50.268121048006535,0.22515555840876256,0.1131814686472318,0.12109375,,
1.5486299999998883,1200,,,,0,0.15625,-0.94921875,0.017849289536976832,0.680096537237107,22.552904944743293,0.26530250305799336,1615,0,5.9833421330693914,3.01923339444518,50.460651042469216,0.22525470819458882,0.11366499225880379,0.12109375,,
1.5572599999988452,1200,,,,-0.0625,0.048828125,-1.0078125,0.017849289536976832,0.680096537237107,22.552860713362694,0.2636953108363915,1615,0,5.947083616060018,3.0178833395250924,50.74560127884094,0.2253554762471799,0.11435799143642701,0.12109375,,
1.5645049999998883,1200,,,,0,-0.02734375,-0.98828125,0.017849289536976832,0.680096537237107,22.552942305818938,0.26365724151746456,1614,0,5.9462465564547475,3.01737284776809,50.74415968326578,0.22539360282908527,0.1143740897354569,0.12109375,,
1.5722549999998883,1200,,,,-0.03125,0.091796875,-0.982421875,0.017849289536976832,0.680096537237107,22.552801665494385,0.26216599695131837,1614,0,5.912577732679689,3.0171510113763085,51.029367355291924,0.22541017492090096,0.11502538621659264,0.12109375,,
1.579410000000149,1200,,,,-0.0625,-0.078125,-0.953125,0.017849289536976832,0.680096537237107,22.552938952152182,0.26340583037930443,1613,0,5.940575612185405,3.0152808217798817,50.757384782627604,0.22554998271625482,0.11448327260443952,0.12109375,,
1.5876150000002236,1200,,,,-0.03125,0.099609375,-1.0078125,0.017849289536976832,0.688746620019419,22.552892747287263,0.2641276747532894,1613,0,5.9568431203013095,3.0143959904038193,50.60391770484204,0.22848578030624042,0.11562275623343608,0.12109375,,
1.596660000000149,1200,,,,-0.09375,0.009765625,-0.986328125,0.017849289536976832,0.688746620019419,22.553065012776393,0.2629754499707788,1612,0,5.930902419955101,3.0140272754422286,50.81903329417863,0.22851373165439046,0.1161284693712147,0.12109375,,
1.605589999999851,1200,,,,-0.03125,0.05078125,-0.96484375,0.017849289536976832,0.688746620019419,22.553006959918385,0.262376232335728,1613,0,5.917372993984836,3.0144773418693287,50.94283130256658,0.22847961417826265,0.11639398441158737,0.119140625,,
1.6161399999996646,1200,,,,0.0625,0.01953125,-0.9765625,0.017849289536976832,0.688746620019419,22.55311077814943,0.2626775945781853,1613,0,5.924196889459638,3.014649813445726,50.88706316985188,0.2284665425972597,0.11625991385344411,0.119140625,,
1.6239850000003353,1200,,,,-0.09375,0.10546875,-0.966796875,0.017849289536976832,0.688746620019419,22.55326478365774,0.2621085917056953,1613,0,5.911404470810182,3.014700960799506,50.99804920616994,0.22846266643865126,0.11651150304811125,0.119140625,,
1.6322499999990687,1200,,,,-0.0625,0.05859375,-1.01171875,0.017849289536976832,0.688746620019419,22.55326821345126,0.26087626708978445,1612,0,5.883612422199857,3.0133513124104176,51.2160063609992,0.22856499246630552,0.11706186108056038,0.12109375,,
1.6393250000001862,1200,,,,0,0.01171875,-0.990234375,0.017849289536976832,0.688746620019419,22.553386962492983,0.26034935378821744,1612,0,5.8717597214206565,3.0128485716183255,51.310828687815835,0.2286031321014799,0.11729816148757168,0.12109375,,
1.6474599999999628,1200,,,,-0.125,0.05078125,-0.953125,0.017849289536976832,0.688746620019419,22.553319037655854,0.26089754069341065,1612,0,5.884105471398291,3.012615285585563,51.199206068439985,0.22862083430129948,0.11705205206930906,0.119140625,,
1.6565799999991433,1200,,,,-0.03125,0.001953125,-0.947265625,0.017849289536976832,0.688746620019419,22.55324644840057,0.26184255890065977,1612,0,5.905399761566422,3.012711761698612,51.01622046497124,0.2286135131729606,0.11662997389303366,0.119140625,,
1.6637999999998137,1200,,,,0.0625,0.01171875,-0.9765625,0.017849289536976832,0.688746620019419,22.55331448063678,0.26116279373856144,1612,0,5.890086617827454,3.0131053714507714,51.155535851222325,0.22858364879811569,0.11693319041095218,0.119140625,,
1.6707599999997764,1200,,,,-0.0625,0.021484375,-0.94921875,0.017849289536976832,0.688746620019419,22.553086971751075,0.26090999114141233,1612,0,5.8843257220110745,3.0132538029346705,51.20814083529075,0.22857238887366021,0.11704767080501238,0.119140625,,
1.6815149999996648,1200,,,,-0.09375,0.03515625,-0.9609375,0.017849289536976832,0.688746620019419,22.55313301812911,0.26308543125500616,1612,0,5.933400726226015,3.013325036801196,50.78580018170869,0.22856698550865925,0.11607957254178272,0.119140625,,
1.688914999999106,1200,,,,0,0.01171875,-0.970703125,0.017728712643308806,0.688746620019419,22.553065227108835,0.2663216390503597,1611,0,6.006369296893298,2.9908959848335948,49.79540612630312,0.23028103401520966,0.11466937611972387,0.119140625,,
1.699859999999404,1200,,,,0,0.0625,-0.953125,0.017728712643308806,0.688746620019419,22.552931867699854,0.26467861299330164,1611,0,5.969278725675229,2.9902302947980526,50.093661767482736,0.23033229956154064,0.11538188308362327,0.1171875,,
1.708484999999404,1200,,,,-0.0625,0.08984375,-0.95703125,0.017728712643308806,0.688746620019419,22.55293612354537,0.26380318503296335,1611,0,5.949536381236242,2.9914273583932043,50.28000783099038,0.23024012870878066,0.11576475474485724,0.1171875,,
1.717324999999255,1200,,,,-0.03125,0.05078125,-1.025390625,0.017728712643308806,0.688746620019419,22.552884444126235,0.2642306265220698,1614,0,5.959162786551317,2.9959315074697463,50.274369316290326,0.22989398065415356,0.11557774886999019,0.1171875,,
1.724769999999553,1200,,,,0,-0.021484375,-0.955078125,0.017728712643308806,0.688746620019419,22.552903633029633,0.2632474385302909,1614,0,5.936994112815543,2.997328744676874,50.48562770521983,0.2297868130890224,0.11600931497181322,0.1171875,,
1.733714999999851,1200,,,,-0.1875,0.04296875,-0.98828125,0.017728712643308806,0.6953133962256803,22.553000844298726,0.2628667004983839,1615,0,5.928432918278072,2.998034935274506,50.57044545500723,0.23192304667457656,0.1172845178161577,0.1171875,,
1.7419249999998137,1200,,,,0,0.046875,-0.96875,0.017728712643308806,0.6953133962256803,22.552853551286855,0.2642504739057298,1613,0,5.959602238854073,2.9952664826340305,50.25950327869479,0.23213740755854995,0.1166711079629665,0.1171875,,
1.750214999999851,1200,,,,-0.03125,0.048828125,-1.025390625,0.017728712643308806,0.6953133962256803,22.553026307936403,0.2628638236614011,1613,0,5.928374730440335,2.9941109963486707,50.5047526934297,0.23222699394699045,0.11728566898031349,0.119140625,,
1.7572749999994413,1200,,,,-0.0625,0.052734375,-0.94921875,0.017728712643308806,0.6953133962256803,22.55298211469904,0.2652056318675147,1613,0,5.981177872225517,2.9937463483468485,50.05278913788456,0.23225527994702472,0.11625024553348777,0.119140625,,
1.765414999999106,1200,,,,0,-0.05859375,-0.91015625,0.017728712643308806,0.6953133962256803,22.55293351816078,0.2658417904928586,1612,0,5.995512227334267,2.992203763496328,49.907391562884456,0.23237501560161833,0.11597230893061353,0.1171875,,
1.7726249999990686,1200,,,,-0.125,0.11328125,-1.00390625,0.017728712643308806,0.6953133962256803,22.55295043672766,0.26461815698066543,1611,0,5.967920179043166,2.991652867969746,50.12890216721022,0.23241780611316293,0.1165084946456438,0.119140625,,
1.7802799999993295,1200,,,,-0.03125,0.0234375,-0.99609375,0.017728712643308806,0.6953133962256803,22.553098710831758,0.26495401895678033,1611,0,5.975534143363856,2.9913881474616146,50.060598361465445,0.23243837374153486,0.11636004071667173,0.1171875,,
1.7897099999999628,1200,,,,-0.03125,0.078125,-0.96875,0.017728712643308806,0.6953133962256803,22.55317672363681,0.26387698622260397,1611,0,5.951264303579063,2.9911443269023303,50.26065343969801,0.232457320755818,0.11683456838028887,0.1171875,,
1.7968250000001862,1200,,,,-0.125,0.02734375,-1.0625,0.017728712643308806,0.6953133962256803,22.55325812441988,0.2651253688042824,1611,0,5.979440877974999,2.9909007640432996,50.01973972282505,0.2324762508287668,0.11628401558193106,0.1171875,,
1.8056450000004842,1200,,,,-0.0625,0.05078125,-0.958984375,0.017728712643308806,0.6953133962256803,22.553395295274512,0.2654455885536987,1611,0,5.986699288038363,2.9908169484039093,49.957694624476424,0.23248276581980182,0.11614303020279325,0.1171875,,
1.8139199999989941,1200,,,,0,0.013671875,-0.990234375,0.017728712643308806,0.6953133962256803,22.553525452412803,0.2664004325014053,1611,0,6.0082689349542235,2.9914267238861467,49.78849575928542,0.23243537629509517,0.11572607746976256,0.1171875,,
1.8228449999997391,1200,,,,0,0.03515625,-0.970703125,0.017728712643308806,0.6953133962256803,22.55351520918922,0.26726050040476207,1612,0,6.027663760694323,2.9930066240291864,49.65450534162549,0.23231268205135117,0.11535371311846161,0.1171875,,
1.8325649999994784,1200,,,,-0.125,0.109375,-0.94140625,0.017728712643308806,0.6953133962256803,22.553701625339333,0.2665153993391441,1612,0,6.010908795253215,2.993555215232268,49.8020402105629,0.2322701090287828,0.1156752530956327,0.1171875,,
1.8408650000002236,1200,,,,-0.03125,0.005859375,-0.9921875,0.01756500473083054,0.6953133962256803,22.55359624810469,0.2670956291672379,1613,0,6.0239669798713775,2.966457067649054,49.24424515541407,0.23439186220103395,0.11542450324661749,0.1171875,,
1.8488200000002981,1200,,,,-0.03125,0.06640625,-0.974609375,0.01756500473083054,0.6953133962256803,22.553517773729034,0.2676342166304131,1613,0,6.0360930616320685,2.9671555546664212,49.15688880820779,0.2343366848873719,0.11519262362692567,0.1171875,,
1.8567050000000744,1200,,,,-0.0625,0.06640625,-0.92578125,0.01756500473083054,0.6953133962256803,22.553638774900712,0.26655558238818505,1613,0,6.011798318616412,2.9674289971541232,49.36008894318769,0.23431509124313074,0.11565813744492073,0.1171875,,
1.8646900000004099,1200,,,,-0.0625,0.02734375,-1.05078125,0.01756500473083054,0.6953133962256803,22.553559575968855,0.2681615129374108,1613,0,6.047996658015838,2.967537066639951,49.06644686562226,0.23430655813609158,0.1149659028505137,0.1171875,,
1.8727299999995157,1200,,,,-0.0625,0.080078125,-0.982421875,0.01756500473083054,0.6953133962256803,22.55348281368,0.26704365490472703,1613,0,6.022764481396053,2.9664960553683435,49.25472454603972,0.2343887816629322,0.11544754877489571,0.1171875,,
1.8804699999997392,1200,,,,-0.125,-0.0078125,-0.97265625,0.01756500473083054,0.6953133962256803,22.553475626682168,0.2663118385270583,1613,0,6.006257559316927,2.966089796325195,49.383326756012764,0.23442088539838926,0.11576483182062478,0.1171875,,
1.8883399999989197,1200,,,,-0.03125,0.091796875,-1.009765625,0.01756500473083054,0.6981866667463359,22.553202854192946,0.2660853466016513,1612,0,6.001076798435281,2.96592644970867,49.42323768431034,0.23540255585734965,0.1163435646963193,0.1171875,,
1.8957599999997765,1200,,,,-0.0625,0.0390625,-0.962890625,0.01756500473083054,0.6981866667463359,22.55332057274525,0.2646725461811928,1613,0,5.969244780829163,2.966199351593948,49.69136734215021,0.2353808979059856,0.11696398663171485,0.1171875,,
1.9033700000001117,1200,,,,-0.125,0.14453125,-0.890625,0.01756500473083054,0.6981866667463359,22.55338581807473,0.26437377831366365,1613,0,5.962523822490215,2.9665099144992975,49.75258804518036,0.23535625596052637,0.11709582846660094,0.1171875,,
1.911699999999255,1200,,,,0,0.013671875,-0.97265625,0.01756500473083054,0.6981866667463359,22.55331794936316,0.2650438107025322,1613,0,5.97761733328503,2.9666343633898378,49.6290444500486,0.23534638287832335,0.11680016097026469,0.1171875,,
1.9205,1200,,,,-0.1875,0.046875,-1.0390625,0.01756500473083054,0.6981866667463359,22.553467370413255,0.26371287629691037,1613,0,5.947639750720195,2.966686592449821,49.880065316507896,0.2353422395622146,0.11738886281096514,0.1171875,,
1.9288099999995902,1200,,,,-0.03125,0.0546875,-1,0.01756500473083054,0.6981866667463359,22.553295617907843,0.2644225737387204,1613,0,5.963600473577396,2.96670419687109,49.746863660895905,0.2353408430414789,0.11707468832624754,0.1171875,,
1.9368449999997392,1200,,,,-0.03125,0.044921875,-1.025390625,0.01756500473083054,0.6981866667463359,22.553169141139062,0.2633021689744812,1613,0,5.938298352110253,2.966710978944768,49.95894114835958,0.23534030503863726,0.1175735244926227,0.1171875,,
1.9445349999992176,1200,,,,-0.0625,0.171875,-0.97265625,0.01756500473083054,0.6981866667463359,22.553244988894892,0.26239949783714867,1613,0,5.91796015968421,2.9667136202704074,50.13067915666257,0.23534009551036414,0.1179775882072839,0.1171875,,
1.951429999999702,1200,,,,0,-0.05078125,-1.001953125,0.01756500473083054,0.6981866667463359,22.553193379762575,0.26277874441834376,1613,0,5.9264998389581125,2.966468394592069,50.05430650806495,0.23535955010312734,0.11780759060462206,0.1171875,,
1.961449999999255,1200,,,,0,0.03515625,-1.00390625,0.01756500473083054,0.6981866667463359,22.55313477093478,0.26352968868704735,1613,0,5.943420585101466,2.966347358486477,49.90976687603601,0.23536915349744225,0.11747219580867277,0.1171875,,
1.9687999999988823,1200,,,,-0.03125,-0.01171875,-0.94921875,0.01756500473083054,0.6981866667463359,22.55306697513464,0.26465809756296943,1613,0,5.968851799849368,2.9662950410367417,49.6962420998893,0.2353733047749406,0.11697168737946477,0.1171875,,
1.9769299999997019,1200,,,,-0.125,0.12109375,-1.046875,0.01756500473083054,0.6981866667463359,22.552933418171484,0.2635395585348253,1613,0,5.943590116690221,2.9665332335551793,49.9114705979614,0.23535440589337633,0.11746884509847925,0.1171875,,
1.9865699999993667,1200,,,,0,0.015625,-0.974609375,0.01756500473083054,0.6981866667463359,22.552885653208254,0.2636156081168457,1613,0,5.945292666260179,2.966646200716223,49.899077593809345,0.2353454438138852,0.11743520562218554,0.1171875,,
1.9975949999997393,1200,,,,-0.03125,0.091796875,-0.9921875,0.017536454492137168,0.6981866667463359,22.552822532040494,0.26449157250894,1613,0,5.965031496014444,2.9618738597411443,49.65395173051693,0.23572464588595093,0.11704660188514203,0.1171875,,
2.005834999999963,1200,,,,-0.09375,0.001953125,-0.947265625,0.017536454492137168,0.6981866667463359,22.552832411526005,0.2647906386581921,1613,0,5.971778897799145,2.9615997486289474,49.593258546802915,0.23574646340024735,0.11691435310902877,0.1171875,,
2.015019999999553,1200,,,,0,-0.015625,-1.046875,0.017536454492137168,0.6981866667463359,22.553078823348105,0.2667026177345557,1613,0,6.014965160160713,2.961502346989899,49.23556941950385,0.23575421692843831,0.11607493113520896,0.1171875,,
2.0231449999995528,1200,,,,-0.0625,0.05859375,-0.94140625,0.017536454492137168,0.6981866667463359,22.553092640654338,0.2657928717345229,1613,0,5.99445125945425,2.9614675571258227,49.403480467959334,0.23575698645300822,0.11647215675416145,0.119140625,,
2.0307350000003352,1200,,,,-0.0625,0.0703125,-0.95703125,0.017536454492137168,0.6981866667463359,22.55304515972626,0.26561766759359,1613,0,5.990487252459394,2.961961471454234,49.44441656625179,0.23571767339821179,0.11654922835528869,0.1171875,,
2.0393549999995155,1200,,,,-0.0625,0.04296875,-0.97265625,0.017536454492137168,0.6993304096060703,22.553097831494632,0.26612286551441855,1613,0,6.001895021144371,2.9622039891326657,49.35447852214961,0.2360844871493251,0.11651826750424073,0.1171875,,
2.0476349999997763,1200,,,,0.0625,0.17578125,-0.9375,0.017536454492137168,0.6993304096060703,22.55304992713477,0.26569505869633175,1613,0,5.992233924171373,2.962280692370009,49.43533129474153,0.2360783741417031,0.11670612637219034,0.119140625,,
2.0556200000001117,1200,,,,-0.09375,0.033203125,-0.9453125,0.017536454492137168,0.6993304096060703,22.552992760295155,0.26636834039040375,1612,0,6.007403252396611,2.9611785739490712,49.292155853991154,0.23616623994190025,0.11641143106667218,0.119140625,,
2.0628149999994783,1200,,,,0,-0.0625,-0.9765625,0.017536454492137168,0.6993304096060703,22.553064769281786,0.26528347166313804,1612,0,5.982955318638681,2.9603267489497114,49.47933907725192,0.23623419605764276,0.11688711888378116,0.119140625,,
2.070894999999553,1200,,,,-0.0625,0.078125,-1.009765625,0.017536454492137168,0.6993304096060703,22.55301289961194,0.26542973789212904,1612,0,5.986240302621802,2.9599272343783234,49.44551312251799,0.2362660816399939,0.11682297640136224,0.1171875,,
2.0787399999992924,1200,,,,-0.0625,0.05859375,-0.951171875,0.017536454492137168,0.6993304096060703,22.552963048283914,0.2649284495127455,1612,0,5.9749215323001,2.960128897452773,49.542556859541634,0.23624998567050665,0.11704428348146972,0.1171875,,
2.08580999999959,1200,,,,0,0.046875,-1.046875,0.017536454492137168,0.6993304096060703,22.552921699742203,0.26418510218350416,1612,0,5.958145923782962,2.960871279826069,49.69450761531776,0.23619075046286755,0.11737383047544589,0.1171875,,
2.0938049999987705,1200,,,,-0.0625,0.013671875,-0.96484375,0.017536454492137168,0.6993304096060703,22.553074129008618,0.2648710012093992,1613,0,5.973655324900312,2.9612219026809425,49.571355252746514,0.23616278434687096,0.11706909280336504,0.1171875,,
2.101730000000447,1200,,,,0,0.07421875,-0.98046875,0.017536454492137168,0.6993304096060703,22.55308678404329,0.26508865371700674,1613,0,5.978567412744853,2.9613575388511815,49.532895331050156,0.23615196761326096,0.11697290694009199,0.1171875,,
2.1100800000000746,1200,,,,-0.03125,0.087890625,-0.978515625,0.017536454492137168,0.6993304096060703,22.552834900831947,0.2649241265432217,1612,0,5.97479008717639,2.960869883788215,49.55604867429718,0.23619086182582555,0.11704685845064809,0.1171875,,
2.1178650000002235,1200,,,,-0.1875,-0.03515625,-0.94921875,0.017536454492137168,0.6993304096060703,22.552989640611848,0.2659893913912164,1612,0,5.998855988558754,2.960411114788989,49.34959466330243,0.236227463852066,0.11657729589439385,0.1171875,,
2.1259449999993665,1200,,,,-0.03125,0.064453125,-1.009765625,0.017536454492137168,0.6993304096060703,22.552941260560186,0.26546372607726026,1612,0,5.98698782102989,2.9602293005940092,49.44438487407489,0.2362419726964193,0.11680839021412448,0.1171875,,
2.1339150000000373,1200,,,,-0.03125,-0.005859375,-0.966796875,0.017536454492137168,0.6993304096060703,22.553156737252007,0.26597428374791815,1612,0,5.9985597094451375,2.960607076599906,49.355298938480686,0.23621182801779045,0.11658305384623034,0.1171875,,
2.1434249999998136,1200,,,,-0.03125,0.078125,-0.974609375,0.01734040293504308,0.6993304096060703,22.552905854294146,0.26576964041015827,1613,0,5.993877679099908,2.9285412036573817,48.858875012897435,0.2387982141868771,0.1166741210025974,0.1171875,,
2.1609550000000746,1200,,,,0.0625,0.10546875,-0.921875,0.01734040293504308,0.6993304096060703,22.553104904492596,0.26733280290227135,1613,0,6.029184748266968,2.9291416192638775,48.5827146050854,0.23874926531610274,0.11599087419026034,0.1171875,,
2.1686349999997763,1200,,,,-0.0625,0.08203125,-1.01171875,0.01734040293504308,0.6993304096060703,22.55331121882266,0.268172270781645,1613,0,6.048172683196823,2.9291895456487995,48.430984019135956,0.23874535898330623,0.11562672665563382,0.119140625,,
2.17719000000041,1200,,,,-0.09375,0.037109375,-0.966796875,0.01734040293504308,0.6993304096060703,22.55344493250524,0.2699582340820831,1613,0,6.08848816644662,2.9292088714399784,48.11061122829662,0.2387437838334432,0.11486109367183274,0.119140625,,
2.186034999999218,1200,,,,0.0625,0.07421875,-1.05859375,0.01734040293504308,0.7014571568253521,22.553292644295254,0.26956897520350154,1613,0,6.079667985587341,2.929216643564487,48.18053634686274,0.2394691967787563,0.11537754339352894,0.119140625,,
2.1949199999999256,1200,,,,-0.0625,0.03125,-0.96875,0.01734040293504308,0.7014571568253521,22.553148497223248,0.2689612836554669,1615,0,6.065923770285529,2.9320525555557095,48.33645569234865,0.2392375796594156,0.11563896669152074,0.1171875,,
2.2139249999998136,1200,,,,-0.03125,-0.005859375,-0.953125,0.01734040293504308,0.7014571568253521,22.55288270501011,0.2688099665055552,1615,0,6.062439644537483,2.9335324665055293,48.38864613107971,0.23911688888207164,0.11570542520079273,0.1171875,,
2.221979999999516,1200,,,,0,0.033203125,-0.986328125,0.01734040293504308,0.7014571568253521,22.553035853912924,0.26926311934018166,1616,0,6.072700784615551,2.933864101733574,48.31234414127832,0.23908985982372946,0.11550991588494011,0.1171875,,
2.2313349999999628,1200,,,,-0.03125,0.0703125,-0.982421875,0.01734040293504308,0.7014571568253521,22.55356385023048,0.2699823969669826,1616,0,6.089065228433114,2.9340023908155684,48.18477517887534,0.23907859074046875,0.11519948144911836,0.119140625,,
2.2389699999997394,1200,,,,-0.125,0.18359375,-0.96484375,0.01734040293504308,0.7014571568253521,22.553622920140125,0.2692517305572902,1615,0,6.072602001584293,2.933398200394215,48.30545785198692,0.23912783362691242,0.11551179488501759,0.119140625,,
2.247254999999888,1200,,,,-0.03125,-0.029296875,-0.962890625,0.01734040293504308,0.7014571568253521,22.553552451911123,0.26864295441536995,1615,0,6.058852963243415,2.932031650029845,48.3925202974438,0.2392392854347981,0.11577391976349419,0.119140625,,
2.255379999998957,1200,,,,-0.125,0.02734375,-0.953125,0.01734040293504308,0.7014571568253521,22.55360855145828,0.2684608006517671,1614,0,6.05475980931103,2.9313902474144213,48.414641368704984,0.23929163216806754,0.1158521855394906,0.119140625,,
2.2621749999998135,1200,,,,-0.0625,0.046875,-1.015625,0.01734040293504308,0.7014571568253521,22.55362734577004,0.2678278832820805,1614,0,6.0404902723504375,2.9311485553328382,48.52501077188703,0.23931136330471664,0.11612586482196346,0.119140625,,
2.2695,1200,,,,0,0.16015625,-0.890625,0.01734040293504308,0.7014571568253521,22.553499880870515,0.26723999817088656,1614,0,6.027197266910926,2.9313058438709936,48.63464250562606,0.23929852229238185,0.11638198083814581,0.119140625,,
2.278110000000335,1200,,,,-0.0625,0.03125,-1.0078125,0.01734040293504308,0.7014571568253521,22.553625039054687,0.26484920530681166,1614,0,5.973309668381443,2.9313804903718617,49.07464459591901,0.23929242864557937,0.11743190890276117,0.119140625,,
2.285589999999851,1200,,,,-0.03125,0.001953125,-0.908203125,0.01734040293504308,0.7014571568253521,22.553835798220845,0.2632893502041123,1614,0,5.938184771923813,2.931408746018634,49.3654013576431,0.23929012212235967,0.11812652919489718,0.119140625,,
2.299714999999851,1200,,,,0,0.068359375,-1.01171875,0.017222659639261388,0.7014571568253521,22.55398222113394,0.26307676242403805,1614,0,5.9334286225052315,2.910491103152006,49.05243305890025,0.24100989556906308,0.11822121768934006,0.119140625,,
2.3080899999989195,1200,,,,-0.0625,0.01953125,-0.9453125,0.017222659639261388,0.7014571568253521,22.554184140078448,0.2622277419675665,1613,0,5.914332778973471,2.909679717355709,49.19709164320529,0.24107710296816795,0.11860292327803398,0.119140625,,
2.3168849999997763,1200,,,,-0.09375,0.0625,-0.98046875,0.017222659639261388,0.7014571568253521,22.554284525922526,0.26094381566308317,1613,0,5.885401063745057,2.9094557818747653,49.43513195383479,0.24109565823109175,0.11918595678150673,0.119140625,,
2.3248700000001117,1200,,,,-0.0625,-0.013671875,-0.974609375,0.017222659639261388,0.7014571568253521,22.554303305584924,0.2622112708122118,1612,0,5.913992532041492,2.907788378815764,49.1679413367809,0.24123390888267807,0.11860974680385862,0.119140625,,
2.3329899999992922,1200,,,,0,0.140625,-1.0390625,0.017222659639261388,0.7027776561397002,22.553992496433633,0.2623499443951604,1612,0,5.917038677328229,2.9071308536891096,49.13151683168972,0.2417426980446666,0.11877185437919624,0.119140625,,
2.341179999999702,1200,,,,-0.09375,0.080078125,-0.98828125,0.017222659639261388,0.7027776561397002,22.55389404263638,0.26162348519917966,1612,0,5.900628364247545,2.9068722078844376,49.26377376174792,0.24176420767088608,0.11910217230386771,0.119140625,,
2.3500849999999627,1200,,,,0,-0.03125,-0.98828125,0.017222659639261388,0.7027776561397002,22.554079902226892,0.26145538155196774,1612,0,5.896885566390299,2.9075082688704654,49.30582823994427,0.24171131812901828,0.119177767353199,0.119140625,,
2.3579049999993296,1200,,,,-0.03125,0.056640625,-0.98828125,0.017222659639261388,0.7027776561397002,22.55410884672031,0.2604541882202985,1612,0,5.874312110704791,2.908083907500259,49.50509698319981,0.24166347275164984,0.11963573655867293,0.119140625,,
2.36593499999959,1200,,,,-0.0625,0.087890625,-0.98046875,0.017222659639261388,0.7027776561397002,22.554006714150404,0.26114950692700456,1613,0,5.889967732628728,2.90830768361451,49.377310974104695,0.24164487825657854,0.11931774298974748,0.119140625,,
2.3758300000000747,1200,,,,-0.0625,-0.009765625,-1.0078125,0.017222659639261388,0.7027776561397002,22.554006425201635,0.26134042209172115,1613,0,5.8942735590215865,2.9092839138172857,49.35780269927291,0.24156379265768607,0.11923058017286138,0.119140625,,
2.3833349999990316,1200,,,,0.0625,0.09765625,-0.91015625,0.017222659639261388,0.7027776561397002,22.55412724675011,0.2620565933582896,1614,0,5.9104577524527135,2.910198182813251,49.23811834380478,0.24148790288238522,0.11890409940720116,0.119140625,,
2.3918349999999626,1200,,,,-0.03125,0.0234375,-0.986328125,0.017222659639261388,0.7027776561397002,22.554023587410562,0.2617251931091219,1614,0,5.90295617880272,2.910468514238868,49.30527054715812,0.2414654728960321,0.1190552046893634,0.119140625,,
2.3999599999990315,1200,,,,-0.03125,0.001953125,-0.9765625,0.017222659639261388,0.7027776561397002,22.553791895609873,0.261030054272411,1613,0,5.887217522559708,2.9093341862917663,49.41781368096647,0.2415596185034555,0.11937348220049103,0.119140625,,
2.4077599999997763,1200,,,,-0.03125,0.08203125,-1.005859375,0.017222659639261388,0.7027776561397002,22.55350907141712,0.2618609243740137,1613,0,5.9058827333189905,2.9082745859554278,49.24369001686957,0.24164762829945216,0.11899620901289941,0.119140625,,
2.415829999999143,1200,,,,-0.125,0.0859375,-0.9921875,0.017222659639261388,0.7027776561397002,22.553830379388135,0.26282295258236277,1612,0,5.92766429235258,2.9078520159559855,49.05561233802451,0.24168274461128486,0.1185589502844097,0.119140625,,
2.423804999999702,1200,,,,-0.03125,0.078125,-0.97265625,0.017222659639261388,0.7027776561397002,22.55380615301145,0.26197507325614716,1613,0,5.908535019140118,2.9083057758703847,49.222112866374054,0.24164503676693905,0.11894279273341382,0.119140625,,
2.432195000000298,1200,,,,0.0625,-0.046875,-0.96875,0.017222659639261388,0.7027776561397002,22.553848373525526,0.26148569781412484,1613,0,5.897508780345286,2.9097228579573713,49.33816915465471,0.24152735172622283,0.11916517334944166,0.119140625,,
2.4402149999989198,1200,,,,-0.0625,0.09375,-0.931640625,0.017222659639261388,0.7027776561397002,22.553954105610213,0.26022162808482097,1614,0,5.869026657112221,2.910282243834311,49.587136229949884,0.24148092771022348,0.11974347659301532,0.119140625,,
2.4502949999989942,1200,,,,-0.03125,0.03515625,-0.9921875,0.01700981587017903,0.7027776561397002,22.55385900768416,0.2588689623098632,1614,0,5.83849407740216,2.8745327501239823,49.234146888147684,0.24448413611199546,0.12036967869159874,0.119140625,,
2.4580849999999628,1200,,,,0.0625,0.09765625,-0.921875,0.01700981587017903,0.7027776561397002,22.55362255239253,0.2596448439220745,1614,0,5.855931807493337,2.874336734156375,49.08419067445989,0.24450080875648247,0.12001124317062839,0.119140625,,
2.467859999999404,1200,,,,-0.09375,0.06640625,-1.005859375,0.01700981587017903,0.7027776561397002,22.55353588143873,0.259932656675909,1614,0,5.862400499097808,2.8742768864018435,49.02900930845956,0.24450589971499606,0.1198788203309982,0.119140625,,
2.475769999999553,1200,,,,0,-0.009765625,-0.9375,0.01700981587017903,0.7027776561397002,22.553562072845555,0.2601276312995527,1614,0,5.866804679376743,2.8742543651556103,48.99181960598277,0.24450781554319823,0.11978882791345277,0.119140625,,
2.484519999999553,1200,,,,-0.0625,0.048828125,-1.001953125,0.01700981587017903,0.7033396688796243,22.553493359783914,0.2609172800880039,1612,0,5.884596143917676,2.8717811165740903,48.801668735455465,0.2449140934942416,0.11952216459350345,0.119140625,,
2.4940449999999257,1200,,,,0,0.00390625,-0.9375,0.01700981587017903,0.7033396688796243,22.553165152978806,0.26401265337603386,1612,0,5.95432097406584,2.870539937048287,48.209358372700756,0.24501999076969921,0.1181225654349226,0.1171875,,
2.503544999998994,1200,,,,-0.09375,0.0703125,-0.9765625,0.01700981587017903,0.7033396688796243,22.5532565107437,0.26618700069253,1611,0,6.00338370644414,2.8701231214043044,47.808423744820146,0.24505557396976463,0.11715720721376625,0.119140625,,
2.5102249999996276,1200,,,,0,0.0234375,-0.8984375,0.01700981587017903,0.7033396688796243,22.5533886809132,0.2668627961337249,1615,0,6.018660365679198,2.8764968286945027,47.79297474729485,0.2445125827581165,0.11685983693154504,0.1171875,,
2.5171499999994413,1200,,,,-0.03125,0.07421875,-0.966796875,0.01700981587017903,0.7033396688796243,22.553328812331305,0.2656591013235424,1616,0,5.991497064138291,2.878896037924249,48.04969454388438,0.24430881129933002,0.11738963757312296,0.119140625,,
2.5246699999999254,1200,,,,-0.1875,-0.01953125,-0.9921875,0.01700981587017903,0.7033396688796243,22.553270333040736,0.26563108658617074,1617,0,5.9908497046372595,2.8799539630913373,48.07254571688034,0.24421906665642001,0.11740232246774597,0.119140625,,
2.5330499999998137,1200,,,,-0.03125,0.076171875,-0.982421875,0.01700981587017903,0.7033396688796243,22.55340550823304,0.2643129913438581,1619,0,5.961158074872121,2.883267114093942,48.36756680296209,0.24393843547882546,0.11798708573832146,0.119140625,,
2.5411499999994414,1200,,,,-0.0625,0.08984375,-0.99609375,0.01700981587017903,0.7033396688796243,22.553136940506786,0.26337817006373165,1620,0,5.940003936587424,2.885984093974637,48.58555860878193,0.2437087821613633,0.11840727319175785,0.119140625,,
2.5499499999992548,1200,,,,-0.03125,-0.009765625,-0.986328125,0.01700981587017903,0.7033396688796243,22.553147619602,0.2627650655257115,1621,0,5.926179312075764,2.887089572196406,48.717553421196506,0.2436154650874049,0.1186834943462528,0.1171875,,
2.557039999999106,1200,,,,-0.03125,0.091796875,-0.970703125,0.01700981587017903,0.7033396688796243,22.553097229274073,0.262005346476924,1620,0,5.909032053683707,2.885461814480888,48.83137861271344,0.24375289437200864,0.11902789873024301,0.1171875,,
2.5652299999995156,1200,,,,-0.03125,0.0234375,-0.994140625,0.01700981587017903,0.7033396688796243,22.553043481085723,0.26231319472052644,1619,0,5.915960886194539,2.8836619471106895,48.743762891333354,0.24390503525711177,0.11888849206574957,0.1171875,,
2.5734749999996276,1200,,,,-0.125,0.22265625,-0.96484375,0.01700981587017903,0.7033396688796243,22.553122158552142,0.2641266332976854,1618,0,5.956880226089804,2.8829568854581953,48.397093378367565,0.2439646851561711,0.11807181648527257,0.119140625,,
2.581164999999106,1200,,,,0,-0.05078125,-0.962890625,0.01700981587017903,0.7033396688796243,22.553262689870625,0.26369353589602124,1618,0,5.947149584683796,2.88267499903513,48.47154015528935,0.24398854158552094,0.11826500390893062,0.119140625,,
2.589324999999255,1200,,,,-0.0625,0.01953125,-0.984375,0.01700981587017903,0.7033396688796243,22.55319988146445,0.2637597516656863,1618,0,5.9486264000016496,2.8812347342760862,48.43529481487167,0.24411050599677683,0.11823564325361385,0.119140625,,
2.597079999999143,1200,,,,-0.0625,0.064453125,-0.97265625,0.016725712739961124,0.7033396688796243,22.55333753982835,0.26254160972972695,1617,0,5.921189542484416,2.832563501350013,47.83774410574813,0.2483049960025289,0.11878350858947788,0.119140625,,
2.6104750000005588,1200,,,,0,0.06640625,-0.9921875,0.016725712739961124,0.7033396688796243,22.5535329850665,0.26117830674112374,1617,0,5.8904935560697504,2.8323482807461167,48.083377968007035,0.24832386386265523,0.11940250204583976,0.119140625,,
2.6293799999998884,1200,,,,-0.0625,0.12890625,-1.009765625,0.016725712739961124,0.7033396688796243,22.55360136643062,0.2612142902662465,1617,0,5.891322973880021,2.832957127167885,48.08694311495371,0.2482704952131608,0.11938569180436652,0.119140625,,
2.6407449999991806,1200,,,,-0.0625,-0.00390625,-0.990234375,0.016725712739961124,0.712367266663088,22.55348656408769,0.26078692286036587,1617,0,5.8816543608210345,2.8328278537629634,48.16379338155332,0.25146860431946855,0.1211168190039047,0.12109375,,
2.6490999999996276,1200,,,,0,0.015625,-0.9921875,0.016725712739961124,0.712367266663088,22.55331230083392,0.2614059915989759,1617,0,5.895570965840871,2.8324483097838393,48.043664069097574,0.25150230074894214,0.12083092049787324,0.12109375,,
2.663589999999851,1200,,,,-0.125,0.0546875,-1.02734375,0.016725712739961124,0.712367266663088,22.553554990857087,0.26193194170300926,1617,0,5.907496451060792,2.832090754256034,47.94062557155635,0.251534053275853,0.12058699866593575,0.12109375,,
2.670325000000186,1200,,,,-0.0625,0.0078125,-1,0.016725712739961124,0.712367266663088,22.55357374398435,0.2616512274103548,1617,0,5.901170252603457,2.831918064147323,47.98909272102338,0.2515493917997865,0.12071627086996996,0.123046875,,0.20668500000052153,5625,
2.684535000000149,1200,,,,-0.03125,0.056640625,-1.013671875,0.016725712739961124,0.712367266663088,22.55369049145267,0.2615455422124654,1617,0,5.898817208479114,2.8318059285500556,48.006334633993134,0.2515593528077099,0.12076442471197661,0.123046875,,
2.7011849999995903,1500,,,,-0.03125,0.125,-0.9765625,0.016725712739961124,0.712367266663088,22.55364528367405,0.2612373559591312,1616,0,5.891854661147139,2.830336806227317,48.03813007967601,0.25168992788976036,0.12090713495712582,0.123046875,,
2.708674999999814,1500,,,,0,-0.015625,-1.02734375,0.016725712739961124,0.712367266663088,22.553761105203066,0.26185061768285084,1616,0,5.90571627646888,2.830175948726846,47.922653514588625,0.251704233082592,0.12062334750172311,0.123046875,,
2.7164050000002606,1500,,,,-0.03125,0.029296875,-0.974609375,0.016725712739961124,0.712367266663088,22.553863684270254,0.2628900752776417,1616,0,5.929186921759476,2.829866336169999,47.72773018480316,0.25173177176531275,0.12014586081757297,0.123046875,,
2.724964999999851,1500,,,,-0.0625,0.052734375,-1.017578125,0.016725712739961124,0.712367266663088,22.553763177237595,0.26370773686840276,1615,0,5.947601845335243,2.8294542258636115,47.57302690130103,0.25176843652441766,0.11977386603674621,0.125,,
2.745054999999702,1500,,,,-0.0625,0.07421875,-0.5859375,0.016633523973453142,0.712367266663088,22.512571423821218,1.3428329863834187,1686,0,30.230623516219858,2.9359692142139844,9.711904263697132,0.242634446987484,0.02356442520217542,0.130859375,,
2.7749749999996274,1500,,,,0.09375,-0.005859375,-0.974609375,0.016633523973453142,0.712367266663088,22.47252516221626,2.471711814088254,2153,0,55.545605935845494,3.7507317645737372,6.7525265075077,0.18992754251090707,0.012824907653106956,0.1484375,,
2.79255999999959,1500,,,,-0.25,-0.291015625,-0.833984375,0.016633523973453142,0.7215162077198224,22.463338041892346,2.7251595520556315,3287,0,61.21618023591757,5.725544732669928,9.352992477813178,0.12601704141840947,0.011786364404626555,0.18359375,,
2.8011550000002607,1500,,,,0.5625,0.6328125,-1.5,0.016633523973453142,0.7215162077198224,22.461076708235314,2.7795917463155955,5238,0,62.432623431572345,9.124110388180165,14.61433123690599,0.07907797878623991,0.011556717755271352,0.19921875,,
2.8088399999989195,1500,,,,-0.3125,-0.921875,-0.5859375,0.016633523973453142,0.7215162077198224,22.45954162403423,2.817818190304725,4344,0,63.28690493410978,7.5670631792504155,11.956759754847786,0.0953495683369324,0.01140071881333142,0.208984375,,
2.8171299999998882,1500,,,,0.1875,1.84765625,-1.78515625,0.016633523973453142,0.7215162077198224,22.458642691471777,2.846142521176784,3900,0,63.92049793211403,6.793188264257273,10.627558426518977,0.1062117196892833,0.011287712565789141,0.2265625,,
2.8252549999998884,1500,,,,0.15625,-0.943359375,-0.57421875,0.016633523973453142,0.7215162077198224,22.45792589537364,2.8621437472263285,3626,0,64.2778121771159,6.315232431316411,9.824902586782116,0.1142501428992412,0.011224965245109814,0.23828125,,
2.8332249999996275,1500,,,,0.1875,1.466796875,-1.5,0.016633523973453142,0.7215162077198224,22.457336795291454,2.869245906756707,3568,0,64.43562167654679,6.215397586876267,9.645903034933456,0.1160852862000807,0.011197474144684774,0.259765625,,
2.841290000000037,1500,,,,-0.375,-1.64453125,-0.1484375,0.016633523973453142,0.7215162077198224,22.457205115452446,2.869992246917608,3572,0,64.45200456878696,6.2212753864290775,9.652570820802582,0.11597560996796868,0.011194627887015958,0.28125,,
2.8486549999993294,1500,,,,0.21875,0.13671875,-1.75,0.016633523973453142,0.7215162077198224,22.457467130287387,2.8623547750602643,3593,0,64.28123827613703,6.258664574915644,9.736378362890115,0.11528277303941425,0.011224366970349248,0.3046875,,
2.8569699999997393,1500,,,,0.875,1.78515625,-1.19921875,0.016633523973453142,0.7215162077198224,22.458266202945904,2.853380776898183,3630,0,64.08198506594799,6.323640770335729,9.868047570355303,0.11409822820810175,0.011259267436508034,0.326171875,,
2.8659249999998138,1500,,,,-1.375,-0.21484375,-0.326171875,0.016633523973453142,0.7215162077198224,22.45880903978741,2.8330234449250034,3658,0,63.62633255481134,6.372223349391116,10.01507252347402,0.11322832991859354,0.011339899358465574,0.359375,,
2.872769999999553,1500,,,,0.71875,-0.109375,-1.25,0.016633523973453142,0.7215162077198224,22.45951875199655,2.814112677495884,3690,0,63.20361645045003,6.427074605273302,10.168839959200687,0.11226199352467932,0.01141574245653288,0.404296875,,
2.8804349999995904,1500,,,,-1.6875,-0.78515625,-0.72265625,0.016633523973453142,0.7215162077198224,22.460062103798876,2.7975327997521533,3711,0,62.83276041984771,6.463534648633202,10.286886339934686,0.11162873674273507,0.011483121271430067,0.42578125,,
2.888409999999218,1500,,,,0.25,1.318359375,-1.0703125,0.016633523973453142,0.7215162077198224,22.460937040270316,2.774022549644425,3727,0,62.30714583585357,6.49201295928846,10.41937144158631,0.1111390584468122,0.011579991316255069,0.451171875,,
2.8965049999989567,1500,,,,-2.0625,-2.796875,-0.1875,0.018006457238727167,0.7215162077198224,22.46147630201461,2.7548722621187935,3740,0,61.87849803065866,7.0526906533684235,11.397643572205094,0.1023036799969697,0.011660208807303887,0.4765625,,
2.904405000000261,1500,,,,1.15625,1.486328125,-1.93359375,0.018006457238727167,0.7215162077198224,22.46228867634613,2.7307261671147236,3751,0,61.33835946178313,7.073101035341076,11.53128498610722,0.10200846900316188,0.011762887270719445,0.49609375,,
2.9142799999993296,1500,,,,-0.875,-0.439453125,-0.40625,0.018006457238727167,0.7215162077198224,22.462766113252847,2.710541054213052,3763,0,60.88624974115759,7.094785648621291,11.652525289015118,0.10169668873083326,0.011850232372451334,0.537109375,,
2.921949999999255,1500,,,,0.1875,-0.828125,-0.62890625,0.018006457238727167,0.7215162077198224,22.463574344875568,2.686428380760642,3777,0,60.34678365340037,7.121127864136337,11.800343668746763,0.1013204960626457,0.011956166742271226,0.572265625,,
2.9306100000003354,1500,,,,1.0625,0.728515625,-0.919921875,0.018006457238727167,0.7215162077198224,22.46439860308103,2.6658716763776136,3782,0,59.887203962810545,7.1320434730931614,11.909127494952179,0.1011654248101353,0.012047919421448994,0.599609375,,
2.9381349999997766,1500,,,,-1.375,-0.1328125,0.37109375,0.018006457238727167,1.2576529047377234,22.465078386794467,2.6446461683025793,3785,0,59.41218347625308,7.137660468282867,12.013799275927596,0.17619959793916642,0.02116826602140291,0.6171875,,
2.946674999999814,1500,,,,-0.4375,1.349609375,-1.220703125,0.018006457238727167,1.2576529047377234,22.465816047560377,2.624046719982243,3794,0,58.95135091132525,7.15436413553472,12.136047817286375,0.17578821554401158,0.021333741895575686,0.638671875,,
2.954614999999292,1500,,,,-0.4375,-0.33203125,-0.71875,0.018006457238727167,1.2576529047377234,22.466710612169237,2.6019580606079864,3801,0,58.45743877268073,7.168080242745252,12.262049780557875,0.1754518451450906,0.021513992592598324,0.6484375,,
2.963160000000149,1500,,,,-0.75,1.138671875,-1.474609375,0.018006457238727167,1.2576529047377234,22.467165998334313,2.5823486561750895,3807,0,58.018055923861276,7.178101938803925,12.372186252196988,0.17520688831946066,0.021676922549562442,0.66796875,,
2.973679999999702,1500,,,,-0.15625,-1.783203125,-0.421875,0.018006457238727167,1.2576529047377234,22.468020107217868,2.5567277680637344,3815,0,57.44461090153825,7.192767401906999,12.521222250483364,0.17484965583681814,0.021893314011533254,0.6953125,,
2.9825600000005217,1500,,,,0.78125,1.53125,-2.111328125,0.018006457238727167,1.2576529047377234,22.468748815809573,2.537214731561417,3813,0,57.00804049522519,7.190743149506933,12.613559573424046,0.17489887743020832,0.02206097409790923,0.7265625,,
2.9905649999994783,1500,,,,-1.21875,0.271484375,-0.884765625,0.018006457238727167,1.2576529047377234,22.469503208423482,2.5233655336274134,3814,0,56.698769953866396,7.191179128594515,12.683130753005223,0.17488827384884323,0.02218130844392263,0.7421875,,
2.9991049999995156,1500,,,,2.0625,0.734375,-1.58203125,0.018006457238727167,1.2576529047377234,22.470284341195683,2.5053075310468573,3815,0,56.294972584761815,7.193421196393993,12.778088106469996,0.17483376412994905,0.02234041242038282,0.75390625,,
3.0072249999996274,1500,,,,-1.1875,0.185546875,-0.498046875,0.018006457238727167,1.2576529047377234,22.47103991743278,2.492358635238031,3822,0,56.00589038099208,7.207554768788756,12.869279855668431,0.17449092585238507,0.022455725570690328,0.763671875,,
3.01543499999959,1500,,,,0.59375,0.4296875,-1.220703125,0.018006457238727167,1.2576529047377234,22.471790381279163,2.4784595059169927,3818,0,55.69542248545538,7.199957686681889,12.9273778084045,0.17467504108587542,0.0225809024981569,0.783203125,,
3.023584999999963,1500,,,,-0.75,-0.6953125,-0.67578125,0.018006457238727167,1.2576529047377234,22.472266910764752,2.4647096780335103,3818,0,55.387613742314095,7.198939957429374,12.997382394774753,0.17469973526308044,0.02270639263480172,0.7890625,,
3.031464999999851,1500,,,,1.03125,0,-1.2265625,0.018006457238727167,1.2576529047377234,22.472940013867614,2.451340448883543,3820,0,55.08882686132717,7.202689655884623,13.07468331829911,0.17460878710916225,0.022829545960446045,0.80859375,,
3.0394249999998135,1500,,,,-0.0625,1.078125,-0.884765625,0.018006457238727167,1.2576529047377234,22.473282109029242,2.440207903119661,3822,0,54.839480611490835,7.207254622815639,13.142456023380827,0.17449819252346593,0.022933348213990925,0.833984375,,
3.046905000000261,1500,,,,1.125,-1.3515625,-1.10546875,0.06305660559303918,1.2576529047377234,22.473745218108235,2.4223982175090737,3825,0,54.440360357098456,25.256396410820994,46.39277963105515,0.04979542149563694,0.023101480160825912,0.8515625,,
3.053530000000261,1500,,,,-1.21875,0.3828125,-1.185546875,0.06305660559303918,1.2576529047377234,22.474090523848336,2.4134417530059453,3827,0,54.23990843109083,25.27261955416681,46.59414126090283,0.04976345653612185,0.023186855234748602,0.87109375,,
3.0605400000000373,1500,,,,0.75,0.82421875,-1.5703125,0.06305660559303918,1.2576529047377234,22.47443161820912,2.4013733361204888,3821,0,53.96950083243063,25.229228734409176,46.74719674125421,0.04984904286917257,0.02330303014368425,0.87890625,,
3.070910000000149,1500,,,,-2.125,-3.5546875,0.79296875,0.06305660559303918,1.2576529047377234,22.474881772704386,2.3936731350951175,3822,0,53.797520713761415,25.237753600410358,46.91248456353963,0.04983220474572167,0.023377525359008142,0.90625,,
3.0784599999990316,1500,,,,0.353515625,-0.298828125,-1.1015625,0.06305660559303918,1.2576529047377234,22.475410031715786,2.38023706015098,3826,0,53.49680389957902,25.26135227920146,47.22030184573372,0.04978565244003949,0.02350893535805454,0.927734375,,
3.096129999999888,1500,,,,0,0.47265625,-1.33984375,0.06305660559303918,3.226343702987842,22.47615504130449,2.3552060130826247,3821,0,52.935975504257684,25.231297164271577,47.66379938014404,0.1278707028807247,0.06094803528704869,0.9609375,,
3.1028999999994413,1500,,,,0.3125,0.818359375,-1.16015625,0.06305660559303918,3.226343702987842,22.476493542541906,2.3436754981701675,3825,0,52.67760720043545,25.25686072796779,47.946104749721826,0.1277412793987972,0.061246967629182136,0.978515625,,
3.1104500000001862,1500,,,,-0.5,-1.87890625,-0.06640625,0.06305660559303918,3.226343702987842,22.47673682679142,2.3321016762111553,3827,0,52.41803562951728,25.271607965141367,48.211665434693614,0.12766673602400488,0.06155025964328671,0.994140625,,
3.1187949999999254,1500,,,,-0.09375,0.2265625,-0.921875,0.06305660559303918,3.226343702987842,22.476900148058313,2.3224924658402095,3829,0,52.20243124930812,25.285748841489855,48.437875854345364,0.12759533930408776,0.06180447204804476,1.01171875,,
3.1264399999994783,1500,,,,-0.5625,-0.79296875,-0.5078125,0.06305660559303918,3.226343702987842,22.477175606386083,2.3148096939907647,3827,0,52.03038398719525,25.27313930015111,48.573808923591386,0.12765900051714396,0.06200883898496405,1.01953125,,
3.1342000000001864,1500,,,,-0.1875,-0.544921875,-0.90234375,0.06305660559303918,3.226343702987842,22.47761207067456,2.3087407137275013,3824,0,51.89497813493908,25.250595175172393,48.65710726289341,0.12777297646275443,0.06217063421047397,1.0390625,,
3.1422799999993294,1500,,,,1.625,-0.76953125,-2.30859375,0.06305660559303918,3.226343702987842,22.478187652905284,2.3020546514159625,3821,0,51.74601644177147,25.233628682073803,48.76438886937044,0.127858887979907,0.06234960533857458,1.052734375,,
3.150405000000261,1500,,,,-0.40625,-0.39453125,-0.75390625,0.06305660559303918,3.226343702987842,22.47827660670365,2.2982612581516415,3825,0,51.660952275203336,25.259678272864953,48.89510773689185,0.1277270307299884,0.06245226928456079,1.07421875,,
3.1584349999995904,1500,,,,-0.5625,0.220703125,-0.9296875,0.06305660559303918,3.226343702987842,22.478554619892783,2.291520827755926,3827,0,51.5100760893335,25.272627184908917,49.06346311948522,0.12766158735227945,0.06263519582833504,1.0859375,,
3.1659399999994786,1500,,,,0.96875,0.736328125,-1.51171875,0.06305660559303918,3.226343702987842,22.478689126344676,2.287970650093099,3828,0,51.4305809736435,25.280477138876257,49.15456263624881,0.12762194658210696,0.06273200967030176,1.09375,,
3.173859999999404,1500,,,,-1.625,0.4375,-0.15234375,0.06305660559303918,3.226343702987842,22.479284196180412,2.28310311577267,3827,0,51.32252378863885,25.2730796621714,49.243641575876765,0.12765930175961163,0.06286408899677008,1.103515625,,
3.1825049999998885,1500,,,,0.28125,1.529296875,-1.552734375,0.06305660559303918,3.226343702987842,22.479685750445245,2.278273487848966,3826,0,51.214872060415594,25.26575872129748,49.33285529151131,0.1276962919885811,0.06299622693935245,1.115234375,,
3.1907050000000745,1500,,,,-0.625,-0.66015625,-0.4921875,0.08141506427981345,3.226343702987842,22.479571000456026,2.2776695723699842,3829,0,51.20103486766938,32.64785159078681,63.76404632282563,0.0988225425497313,0.06301325180880474,1.123046875,,
3.1985400000000372,1500,,,,0.28125,1.021484375,-1.40234375,0.08141506427981345,3.226343702987842,22.479295999246798,2.2846951950207184,3834,0,51.35833955692762,32.69022321607547,63.65124631772866,0.09869445312937729,0.0628202494633152,1.12890625,,
3.2066249999990686,1500,,,,-0.71875,-1.30078125,-0.322265625,0.08141506427981345,3.226343702987842,22.47903995132649,2.2862004568891923,3832,0,51.39159140715303,32.67150890111933,63.57364698492658,0.09875098553765624,0.06277960293984548,1.140625,,
3.21593499999959,1500,,,,1.5625,3.0234375,-1.61328125,0.08141506427981345,3.226343702987842,22.479154382456944,2.277713632386894,3835,0,51.20107638145177,32.692539841739084,63.851274528248716,0.09868745954294803,0.06301320071772212,1.1640625,,
3.225089999999851,1500,,,,-0.5,-2.10546875,-0.3828125,0.08141506427981345,3.226343702987842,22.47920023781452,2.2653325527000443,3839,0,50.92286405738381,32.73276929496223,64.27912078565812,0.09856617000274388,0.06335746746986087,1.173828125,,
3.234910000000149,1500,,,,0.59375,0.98046875,-1.97265625,0.08141506427981345,4.100000543608831,22.479587404549253,2.2568716553955874,3842,0,50.73354363831487,32.75446315750855,64.56174910827993,0.12517379765599845,0.08081439319197169,1.1953125,,
3.2425949999997394,1500,,,,-0.6875,-0.203125,-1.24609375,0.08141506427981345,4.100000543608831,22.479680696714908,2.250165738697245,3843,0,50.5830073206017,32.76826986216096,64.78118166140536,0.12512105646271218,0.08105489888377916,1.2109375,,
3.251854999999516,1500,,,,-0.0625,-0.595703125,-0.505859375,0.08141506427981345,4.100000543608831,22.480030853622768,2.242615727417501,3837,0,50.41407074516509,32.71300503058332,64.88864030826281,0.12533243398996058,0.08132651228133642,1.228515625,,
3.260785000000149,1500,,,,-0.1875,0.96875,-1.65234375,0.08141506427981345,4.100000543608831,22.48035629591282,2.2395087220418906,3836,0,50.344953999306085,32.708450310022535,64.96867652411275,0.1253498867952331,0.08143816247533651,1.236328125,,
3.2697599999997764,1500,,,,0.8125,-0.603515625,-0.796875,0.08141506427981345,4.100000543608831,22.480557609843114,2.2336512006910527,3837,0,50.213724497430455,32.7118112433304,65.14516015438038,0.12533700788105334,0.08165099451682055,1.25390625,,
3.277535000000149,1500,,,,0.3125,0.76171875,-1.271484375,0.08141506427981345,4.100000543608831,22.4807900227608,2.229623713571292,3836,0,50.12370253456439,32.70822821922672,65.25501223033498,0.12535073792834636,0.08179763936595759,1.265625,,
3.2858449999997394,1500,,,,-0.96875,-1.427734375,-0.373046875,0.08141506427981345,4.100000543608831,22.480948273020037,2.227133130718813,3837,0,50.0680647088188,32.71390819930485,65.33887097406173,0.1253289738000779,0.08188853648434855,1.279296875,,
3.293774999999441,1500,,,,1.5,2.34375,-1.75390625,0.08141506427981345,4.100000543608831,22.481293099711188,2.22552766303257,3831,0,50.032739694150486,32.65963537006815,65.2765280688527,0.12553724183235657,0.08194635290156173,1.29296875,,
3.301655000000261,1500,,,,-0.625,-0.5625,-0.55078125,0.08141506427981345,4.100000543608831,22.48162387018118,2.2206692488318946,3830,0,49.924250792316435,32.65222865356089,65.40354263781202,0.12556571825800034,0.08212442807934615,1.3046875,,
3.309679999999702,1500,,,,1.5,3.07421875,-1.6171875,0.08141506427981345,4.100000543608831,22.48167522937393,2.2167021129076354,3831,0,49.83517698265644,32.66347671914957,65.54301338293041,0.12552247817529877,0.082271214669022,1.326171875,,
3.320589999999851,1500,,,,-0.5,-1.25,-0.40625,0.08141506427981345,4.100000543608831,22.481814223524115,2.2158159113788187,3831,0,49.81556167314738,32.660553259340844,65.56295294557768,0.12553371374492076,0.08230360967341857,1.33203125,,
3.327790000000037,1500,,,,0.46875,1.564453125,-1.75,0.08141506427981345,4.100000543608831,22.481879317836924,2.2110366587676222,3830,0,49.70825932972706,32.64964372115956,65.68253276500083,0.125575659527081,0.08248127371374088,1.34375,,
3.3348149999994785,1500,,,,-0.78125,-1.71875,-0.767578125,0.08141506427981345,4.100000543608831,22.48197034933114,2.2085469203253925,3829,0,49.652486377862076,32.644024760659455,65.74499514935475,0.1255972746519264,0.08257392212763079,1.376953125,,
3.342950000000186,1500,,,,2.3125,-0.48828125,-0.79296875,0.08927484577880664,4.100000543608831,22.481971930429854,2.2019296193208078,3829,0,49.50371989435249,35.79773520045908,72.31322267671237,0.1145324004619223,0.08282206978301382,1.38671875,,
3.35119000000041,1500,,,,-0.875,-1.169921875,-0.59765625,0.08927484577880664,4.100000543608831,22.481885261946534,2.1989204237459594,3829,0,49.43587666680751,35.79856673181912,72.41414362507943,0.11452974009611944,0.08293573048663412,1.3984375,,
3.3596500000003724,1500,,,,0.28125,0.69140625,-1.509765625,0.08927484577880664,4.100000543608831,22.481782053021533,2.194266880785851,3830,0,49.331029779990885,35.80443375744625,72.5799439361569,0.114510972897488,0.0831119999297446,1.41015625,,
3.3680999999996275,1500,,,,-1.3125,0.03515625,-0.71484375,0.08927484577880664,4.100000543608831,22.481759952266863,2.1943741998428323,3830,0,49.33339400631423,35.80901839826714,72.58575883443963,0.11449631201862931,0.08310801691616979,1.412109375,,
3.3791699999999256,1500,,,,0.21875,1.26953125,-1.013671875,0.08927484577880664,4.100000543608831,22.481735991316246,2.1918124789303057,3829,0,49.275749493783536,35.79436213691274,72.64092886385916,0.11454319336454186,0.0832052396103295,1.42578125,,
3.3871349999997764,1500,,,,-0.0625,1.134765625,-1.08203125,0.08927484577880664,4.493399438671851,22.481625034814503,2.1894724327885613,3829,0,49.22289825801553,35.797680474437506,72.72566578017002,0.12552208352942051,0.09128677094791221,1.43359375,,
3.3946599999992175,1500,,,,-0.8125,-0.75,-0.46875,0.08927484577880664,4.493399438671851,22.481731968763345,2.1854864549917346,3829,0,49.133520702486955,35.798555189904405,72.85973949774866,0.1255190164752526,0.09145282842400528,1.443359375,,
3.412839999999851,1500,,,,-0.166015625,-0.71484375,-1.28125,0.08927484577880664,4.493399438671851,22.48183236885028,2.187003691110471,3828,0,49.16785037360243,35.79172285206968,72.79497187716343,0.12554297699620282,0.0913889747981396,1.4765625,,
3.4208899999996647,1500,,,,1.75,-0.40625,-0.98046875,0.08927484577880664,4.493399438671851,22.4820396253198,2.183698108359402,3829,0,49.09398740187196,35.79627975315933,72.91377548973423,0.12552699525361347,0.09152647149822907,1.4921875,,
3.4296599999992177,1500,,,,-0.71875,-0.986328125,-0.681640625,0.08927484577880664,4.493399438671851,22.4821449959657,2.1851998411586853,3832,0,49.12797967409078,35.82250644853022,72.91670996074437,0.12543509330169197,0.09146314317178383,1.505859375,,
3.4379699999997393,1500,,,,2.1875,0.18359375,-0.87890625,0.08927484577880664,4.493399438671851,22.482170688643766,2.185325875930772,3831,0,49.13086935298557,35.816146211880394,72.89947579505619,0.12545736808449168,0.09145776367986856,1.509765625,,
3.449834999999963,1500,,,,-1.1875,-0.4609375,-0.244140625,0.08927484577880664,4.493399438671851,22.482204826992458,2.1859406969850665,3829,0,49.14476648927692,35.79511716825175,72.8360713160821,0.1255310722284,0.09143190129211994,1.51171875,,
3.4578099999995904,1500,,,,0.45703125,-0.115234375,-1.08203125,0.08927484577880664,4.493399438671851,22.48236884930188,2.1863773641790476,3824,0,49.15494234523778,35.75175171262371,72.73277112507365,0.12568333643593918,0.09141297343230798,1.5234375,,
3.4648999999994414,1500,,,,1.5,2.25390625,-2.125,0.08927484577880664,4.493399438671851,22.48225161460251,2.1832221684806026,3831,0,49.08375012235902,35.811837874308445,72.9606800316489,0.1254724612135987,0.09154556095388852,1.53125,,
3.473785000000149,1500,,,,-1.4375,-0.12109375,-0.73828125,0.08927484577880664,4.493399438671851,22.48233793958282,2.180448225371891,3831,0,49.0215738625745,35.81971673321054,73.06929156054103,0.12544486245212985,0.09166167229286644,1.529296875,,
3.481579999999143,1500,,,,1.4375,2.9140625,-1.55859375,0.08927484577880664,4.493399438671851,22.482420501505366,2.1786559196675066,3828,0,48.98145851405878,35.78775823144151,73.06388849398925,0.12555688483231545,0.09173674233040945,1.544921875,,
3.4894050000002608,1500,,,,-1.0625,-0.638671875,-0.5703125,0.08927484577880664,4.493399438671851,22.48249669953219,2.1764810870464313,3824,0,48.93272885611563,35.748671798638334,73.05677127420302,0.1256941646386707,0.09182809836509381,1.541015625,,
3.497949999999255,1500,,,,1.0625,0.611328125,-1.8671875,0.0920119349324891,4.493399438671851,22.482373729393448,2.1743635483852857,3827,0,48.884853918368066,36.87630556268808,75.43503274913567,0.12185058590083737,0.09191802937931036,1.556640625,,
3.507019999999553,1500,,,,-0.6875,0.037109375,-0.73828125,0.0920119349324891,4.493399438671851,22.482682859769042,2.174622980438768,3828,0,48.891358808770555,36.883791724861545,75.44030811073512,0.1218258543533384,0.09190579988269391,1.5703125,,
3.514964999999851,1500,,,,2.25,0.20703125,-1.078125,0.0920119349324891,4.493399438671851,22.482812027768365,2.1733595840531392,3828,0,48.86323499701557,36.883666282786,75.48347194990008,0.12182626868546872,0.09195869735080568,1.576171875,,
3.522854999999516,1500,,,,-0.9375,-1.32421875,-0.703125,0.0920119349324891,4.493399438671851,22.48267309829492,2.1704244842810376,3829,0,48.79694416462591,36.891631259384866,75.60233922625119,0.12179996615163972,0.0920836235874218,1.58984375,,
3.5333300000000745,1500,,,,2.4375,1.09765625,-1.4765625,0.0920119349324891,4.666044300923304,22.482607045089168,2.173416289025038,3827,0,48.86406437154588,36.87075806575235,75.45577417670279,0.1265513525000559,0.09549030276000531,1.595703125,,
3.5409199999999257,1500,,,,-0.1875,0.5703125,-0.83203125,0.0920119349324891,4.666044300923304,22.481739775777648,2.183292827135226,3829,0,49.08422119397604,36.89566417783038,75.16807495431644,0.12646592505921078,0.0950620013401772,1.59765625,,
3.549429999999702,1500,,,,-1.25,-0.08984375,0.18359375,0.0920119349324891,4.666044300923304,22.48145212670538,2.1829730459174645,3834,0,49.076404025681704,36.94494695915879,75.28046867457013,0.12629722560114745,0.09507714335552299,1.60546875,,
3.5567649999996647,1500,,,,0.09375,0.77734375,-1.34375,0.0920119349324891,4.666044300923304,22.481737213303635,2.181671054959241,3837,0,49.047755343464566,36.97013771677835,75.37579947928134,0.12621116904321644,0.09513267769847164,1.609375,,
3.568239999999292,1500,,,,0.875,-2.15234375,-0.7109375,0.0920119349324891,4.666044300923304,22.482090827479716,2.182108580090025,3832,0,49.058363293006735,36.926870309314246,75.2713050958595,0.12635905133141936,0.0951121070439064,1.62109375,,
3.5761749999998136,1500,,,,0,1.0234375,-1.109375,0.0920119349324891,4.666044300923304,22.48224951402419,2.179837298270038,3836,0,49.007646039683365,36.95863417157203,75.41401629787566,0.12625045285121356,0.095210537089356,1.630859375,,
3.5852249999996273,1500,,,,-2.3125,-1.33203125,0.171875,0.0920119349324891,4.666044300923304,22.482270508412178,2.1780584071323483,3838,0,48.967698292270796,36.98555567959496,75.53051699273533,0.12615855609538876,0.09528820964941712,1.640625,,
3.6009949999991804,1500,,,,-0.90625,-1.52734375,-0.630859375,0.0920119349324891,4.666044300923304,22.48219726374802,2.1742944061096425,3835,0,48.882915747620835,36.953813745452436,75.59658252842867,0.12626692154331465,0.0954534775505981,1.67578125,,
3.608889999999665,1500,,,,2.375,-0.35546875,-0.83203125,0.0920119349324891,4.666044300923304,22.48218852290744,2.1766994426061776,3830,0,48.93696722637963,36.905760989597745,75.41489201583292,0.12643132605336266,0.09534804801732907,1.681640625,,
3.616799999999814,1500,,,,-0.78125,-0.71484375,-0.705078125,0.0920119349324891,4.666044300923304,22.481786002132836,2.191219786915864,3832,0,49.26253433308156,36.92432453585501,74.95417163517509,0.1263677632448601,0.09471791015408414,1.685546875,,
3.6251199999991806,1500,,,,0.15625,1,-1.61328125,0.0920119349324891,4.666044300923304,22.481439490044664,2.198552966558326,3835,0,49.4266354833392,36.95289634714587,74.76312313348134,0.12627005626539192,0.09440343764641114,1.6953125,,
3.6327449999991805,1500,,,,-1.125,0.359375,-0.7890625,0.0920119349324891,4.666044300923304,22.48110540014241,2.192452708853653,3841,0,49.28876043256672,37.00726252568414,75.08255878399453,0.1260845569889135,0.09466751161874004,1.693359375,,
3.6411150000002235,1500,,,,0.0625,0.6953125,-1.140625,0.0920119349324891,4.666044300923304,22.48134559450413,2.1834901915224396,3841,0,49.087797597825976,37.00710321462989,75.38961824652912,0.12608509976751417,0.09505507538048431,1.70703125,,
3.6502000000001864,1500,,,,-1.4375,-0.6640625,-0.41015625,0.09285034698237639,4.666044300923304,22.48141792355218,2.178026365566424,3841,0,48.96512097281421,37.34995895970741,76.27870250835156,0.1249276955285805,0.09529322522278513,1.708984375,,
3.6591500000003725,1500,,,,1.125,-0.078125,-1.0703125,0.09285034698237639,4.666044300923304,22.48148611085051,2.1716916075982056,3843,0,48.82285471326968,37.369118381355015,76.54021584935789,0.12486364418089631,0.09557090277343225,1.71875,,
3.666929999999702,1500,,,,-0.3125,0.04296875,-1.123046875,0.09285034698237639,4.666044300923304,22.48141312150348,2.1691745311215924,3843,0,48.76610876678812,37.36754015116094,76.62604439050484,0.12486891783746004,0.09568211241207514,1.73828125,,
3.6750999999996274,1500,,,,0.0625,0.8984375,-2.3125,0.09285034698237639,4.666044300923304,22.48140935693339,2.167314643567597,3836,0,48.724287707319334,37.30209744464586,76.55750181247362,0.12508798755478678,0.09576423833944266,1.7421875,,
3.6850649999994785,1500,,,,-0.65625,0.203125,-1.015625,0.09285034698237639,4.740329024223523,22.481633401613735,2.166935699215252,3834,0,48.716253994626825,37.27643198864442,76.51744321875782,0.12716691945376044,0.09730487538607462,1.751953125,,
3.6931149999992923,1500,,,,-0.5625,-0.6171875,-0.69921875,0.09285034698237639,4.740329024223523,22.481789172010064,2.1676279641775333,3834,0,48.732154893992686,37.28329868753223,76.50656690358714,0.12714349832486035,0.09727312560947049,1.759765625,,
3.7030599999995903,1500,,,,1.09375,0.66015625,-1.37890625,0.09285034698237639,4.740329024223523,22.48190911336634,2.1647190888252137,3838,0,48.66701781093765,37.31925591461254,76.68284927502839,0.12702099514174459,0.09740331825218514,1.76953125,,
3.723214999999851,1500,,,,0.33203125,-0.21875,-1.0078125,0.09285034698237639,4.740329024223523,22.482452327590952,2.1684178533172758,3833,0,48.75135101350276,37.27272520398125,76.45475341525972,0.12717956624532484,0.09723482376745998,1.7734375,,
3.7312649999996648,1500,,,,1.5,2.8359375,-1.890625,0.09285034698237639,4.740329024223523,22.482346590562877,2.1680357441245928,3830,0,48.74253102013799,37.242819171049206,76.40723284488925,0.12728169160481892,0.09725241847340786,1.783203125,,
3.739165000000037,1500,,,,-0.5625,-0.90234375,-0.21484375,0.09285034698237639,4.740329024223523,22.482559444849738,2.1672964918245414,3830,0,48.726372212059545,37.24492533545438,76.43689370791377,0.1272744939486047,0.0972846696567801,1.779296875,,
3.7469749999996274,1500,,,,0.03125,0.9609375,-0.837890625,0.09285034698237639,4.740329024223523,22.482761751942636,2.1662745098489506,3831,0,48.70383369424027,37.253831480889275,76.49055249893999,0.1272440668728329,0.09732968977315057,1.78125,,
3.754899999999441,1500,,,,-1.34375,-0.234375,-0.53125,0.09285034698237639,4.740329024223523,22.48262761527274,2.16531581200707,3833,0,48.681989070816876,37.27337321951866,76.56501702364237,0.12717735516733944,0.09737336363409156,1.78125,,
3.7629150000000373,1500,,,,1.5,0.44140625,-2.0859375,0.09285034698237639,4.740329024223523,22.48249803661499,2.1598918226442936,3829,0,48.55976366190111,37.2327255146495,76.67402538011414,0.1273161972082437,0.09761845336044496,1.7890625,,
3.770969999999739,1500,,,,-2.1875,-2.203125,0.78125,0.09285034698237639,4.740329024223523,22.48244135356224,2.1631606281717852,3831,0,48.63313196120702,37.24505647326143,76.5837094410669,0.1272740458220717,0.09747118544626573,1.8046875,,
3.7789999999990687,1500,,,,1.03125,1.0859375,-1.505859375,0.09285034698237639,4.740329024223523,22.48232038280588,2.168304742148294,3836,0,48.74852190053524,37.302713705820814,76.52070719586524,0.12707732369304353,0.09724046677549573,1.810546875,,
3.7870750000001863,1500,,,,-1.3125,-2.859375,0.328125,0.09285034698237639,4.740329024223523,22.48195082635628,2.17459383873797,3835,0,48.88911174980438,37.28482248977555,76.26406198702259,0.12713830206710633,0.09696083349770597,1.822265625,,
3.795864999999292,1500,,,,1.03125,0.81640625,-1.50390625,0.09354347859138397,4.740329024223523,22.48228354812143,2.171977982613144,3837,0,48.83102486538546,37.58424763528902,76.96796808770469,0.12612542015534936,0.09707617313565274,1.822265625,,
3.80325,1500,,,,-1.34375,-0.8828125,-0.12109375,0.09354347859138397,4.740329024223523,22.48210850921699,2.1693785979374973,3839,0,48.77220503640383,37.60484345801319,77.10302093158334,0.12605634243674557,0.09719324809459233,1.828125,,
3.811375,1500,,,,2.1875,1.68359375,-2.49609375,0.09354347859138397,4.740329024223523,22.482005047147187,2.1644207308820373,3836,0,48.660517795839965,37.57232704715018,77.21316736658787,0.1261654360208991,0.09741632927360214,1.8359375,,
3.8193300000000745,1500,,,,-0.59375,-1.41015625,-0.201171875,0.09354347859138397,4.740329024223523,22.482037398132867,2.1632300498108243,3839,0,48.63381888061178,37.60834126784445,77.32960753126727,0.1260446184122605,0.09746980873248448,1.837890625,,
3.826929999999702,1500,,,,0.21875,1.220703125,-1.310546875,0.09354347859138397,4.7721314259042655,22.48230273446165,2.1607508249346905,3838,0,48.57865417991946,37.60130693734167,77.40294080210356,0.12691397758744088,0.09823515094160185,1.841796875,,
3.8372049999991433,1500,,,,-2.125,-0.03125,-1.078125,0.09354347859138397,4.7721314259042655,22.48248439312514,2.1626124262550723,3834,0,48.62090012165816,37.554649055353146,77.2397239898577,0.12707165546589053,0.09814979595119676,1.83984375,,
3.844884999998845,1500,,,,0.625,0.8046875,-1.3671875,0.09354347859138397,4.7721314259042655,22.48251625271413,2.1616222160966645,3829,0,48.598706605621196,37.50695864773752,77.17686594441025,0.12723322812504628,0.09819461790681265,1.84765625,,
3.852785000000149,1500,,,,-0.90625,-0.484375,-0.6953125,0.09354347859138397,4.7721314259042655,22.482491751389663,2.161834009648059,3833,0,48.60341528978613,37.55209915764926,77.2622642539705,0.12708028400410196,0.09818510484194545,1.86328125,,
3.860329999999143,1500,,,,1.9375,-1.48828125,-2.0546875,0.09354347859138397,4.7721314259042655,22.482695644165982,2.1588649829490985,3835,0,48.537104348492164,37.56782702949605,77.40022305360934,0.12702708150134603,0.09831924442053196,1.873046875,,
3.8674099999992175,1500,,,,-0.6875,-1.1640625,-0.83984375,0.09354347859138397,4.7721314259042655,22.482580543399713,2.1586163121027955,3833,0,48.531265099147554,37.54342754916801,77.35925999964806,0.12710963642449902,0.09833107412623554,1.896484375,,
3.874179999999702,1500,,,,0.875,1.2421875,-1.484375,0.09354347859138397,4.7721314259042655,22.482641490836855,2.1578186422283023,3831,0,48.513462935463274,37.525153773258076,77.34997978432754,0.12717153551826554,0.09836715701479731,1.896484375,,
3.8821550000002607,1500,,,,-0.8125,-0.017578125,-1.111328125,0.09354347859138397,4.7721314259042655,22.48252378828123,2.1615267581478017,3830,0,48.59657675906436,37.516974806326004,77.2008592134594,0.1271992598161087,0.0981989214911965,1.892578125,,
3.8899749999996276,1500,,,,0.46875,0.861328125,-0.787109375,0.09354347859138397,4.7721314259042655,22.48240008554744,2.1623879149621446,3830,0,48.61567024433167,37.513303972210636,77.16298836090714,0.1272117067971245,0.0981603545095765,1.896484375,,
3.8978999999994413,1500,,,,-0.9375,0.2890625,-0.3984375,0.09354347859138397,4.7721314259042655,22.482348187987984,2.161090208880341,3836,0,48.586382541699514,37.576674623982015,77.33993077531886,0.12699717241234054,0.09821952523031653,1.888671875,,
3.9162299999995156,1500,,,,0.21875,0.5234375,-1.224609375,0.09354347859138397,4.7721314259042655,22.482405502845438,2.1508070808909956,3832,0,48.355316950982655,37.53816945311745,77.62986951604422,0.12712744109337362,0.09868886663987192,1.896484375,,
3.9253250000001865,1500,,,,-0.5,-2.251953125,-0.423828125,0.09354347859138397,4.7721314259042655,22.48249297186112,2.1476005795254705,3825,0,48.28341493554626,37.46927580673614,77.60278732718893,0.1273611865497102,0.09883583073555598,1.908203125,,
3.932679999999702,1500,,,,1.3125,2.60546875,-1.56640625,0.09354347859138397,4.7721314259042655,22.482365356529595,2.14721225837614,3831,0,48.27441049083141,37.52834869611051,77.73963123431231,0.12716070894957485,0.09885426621233667,1.91796875,,
3.941044999998994,1500,,,,-0.46875,-2.1796875,-0.26953125,0.09354347859138397,4.7721314259042655,22.48253970393382,2.146242861316265,3828,0,48.252990343827456,37.50189223795931,77.7193122555493,0.1272504170089297,0.09889814894165867,1.923828125,,
3.949389999999665,1500,,,,0.4375,2.484375,-1.95703125,0.09384514539781531,4.7721314259042655,22.482611290650127,2.1494441704253013,3827,0,48.32511777462597,37.612045642114985,77.83125499564517,0.12687774207528907,0.09875053896733521,1.9375,,
3.957199999999255,1500,,,,-0.40625,-0.607421875,-0.634765625,0.09384514539781531,4.7721314259042655,22.48238558413412,2.15631324135581,3830,0,48.47906573233538,37.640337573362736,77.64245660422608,0.1267823758648063,0.09843695116263904,1.93359375,,
3.9650499999998137,1500,,,,1.125,0.611328125,-1.44921875,0.09384514539781531,4.7721314259042655,22.48226901526464,2.162205043779834,3830,0,48.611275460420295,37.64336116357167,77.43750972800787,0.12677219245029492,0.098169228861106,1.9375,,
3.9742049999991433,1500,,,,-1.4375,-0.9453125,0.05859375,0.09384514539781531,4.7721314259042655,22.482436595270578,2.1650245915714406,3833,0,48.675028107206494,37.66765847596775,77.38600251653666,0.1266904187566881,0.0980406506472615,1.939453125,,
3.9821049999995157,1500,,,,1,1.0078125,-1.640625,0.09384514539781531,4.7840205378294876,22.482382065552837,2.165397615955214,3838,0,48.68329652574237,37.71970961392866,77.47977706066706,0.12683078917614213,0.09826821269795957,1.9375,,
3.9928250000001864,1500,,,,-1.46875,-0.021484375,-0.564453125,0.09384514539781531,4.7840205378294876,22.482363359345825,2.1609386903737926,3834,0,48.58300883425251,37.68274507504355,77.56362971178528,0.12695520266112031,0.09847106329191795,1.9375,,
4.00296499999892,1500,,,,0.0625,0.13671875,-1.25,0.09384514539781531,4.7840205378294876,22.482483347379812,2.157738311429589,3831,0,48.51131565471917,37.645903592830734,77.60231419155203,0.12707944507249266,0.09861659023803654,1.94921875,,
4.010794999999925,1500,,,,0.125,0.37890625,-0.8984375,0.09384514539781531,4.7840205378294876,22.48234869690996,2.159957332516486,3836,0,48.560913920083124,37.69504234697585,77.62424407623531,0.12691378600383224,0.0985158670140057,1.95703125,,
4.018439999999479,1500,,,,0.8125,-1.94140625,-0.40625,0.09384514539781531,4.7840205378294876,22.48259016774865,2.1579931855331025,3837,0,48.51727637513512,37.7125516641758,77.73014992140678,0.12685486202128193,0.09860447443173616,1.9609375,,
4.025879999999888,1500,,,,-0.28125,0.2890625,-0.94921875,0.09384514539781531,4.7840205378294876,22.48256142275197,2.1577513634971304,3837,0,48.51177756485105,37.7045115257487,77.72238705404047,0.12688191264757384,0.09861565124951686,1.970703125,,
4.0359150000000374,1500,,,,-0.3125,-0.62890625,-0.85546875,0.09384514539781531,4.7840205378294876,22.48265330947968,2.155788930209347,3831,0,48.46785512631084,37.645426718276724,77.67091533175945,0.1270810548551137,0.09870501851922214,1.9765625,,
4.043399999999441,1500,,,,0.875,1.419921875,-1.9296875,0.09384514539781531,4.7840205378294876,22.482533330415485,2.154976930516979,3829,0,48.44934066662444,37.62978224998548,77.6683061776065,0.12713388841975914,0.09874273771335514,1.98046875,,
4.050804999999702,1500,,,,-1.6875,-1.15625,0.70703125,0.09384514539781531,4.7840205378294876,22.48242326206955,2.152062648665698,3832,0,48.383583353792694,37.65389120380554,77.82369265308648,0.12705248740257644,0.09887693730428251,1.984375,,
4.05906500000041,1500,,,,1.03125,0.767578125,-1.3046875,0.09384514539781531,4.7840205378294876,22.482501635679533,2.1498478232294804,3836,0,48.333957202218876,37.697994789385554,77.99484455962349,0.1269038463333997,0.09897845768791856,1.982421875,,
4.0664749999996275,1500,,,,-2.6875,1.09765625,-0.03515625,0.09384514539781531,4.7840205378294876,22.48247938661727,2.1482498616150556,3832,0,48.297983231063895,37.66002066382808,77.9743130963825,0.1270318086262887,0.0990521801902598,1.9921875,,
4.074974999999627,1500,,,,0.8125,0.716796875,-1.587890625,0.09384514539781531,4.7840205378294876,22.482489503302418,2.1485069830749444,3829,0,48.30378569475438,37.629399846718684,77.9015543098625,0.12713518039928715,0.09904028160569234,1.986328125,,
4.082319999999367,1500,,,,-0.90625,-1.591796875,-0.265625,0.09384514539781531,4.7840205378294876,22.482555264876662,2.1487043689605168,3827,0,48.30836472303675,37.60796990819581,77.8498094974052,0.1272076251259422,0.09903089382671935,1.99609375,,
