Time (s),ESC signal (µs),Servo 1 (µs),Servo 2 (µs),Servo 3 (µs),AccX (g),AccY (g),AccZ (g),Torque (N·m),Thrust (N),Voltage (V),Current (A),Motor Electrical Speed (RPM),Motor Optical Speed (RPM),Electrical Power (W),Mechanical Power (W),Motor Efficiency (%),Propeller Mech. Efficiency (N/W),Overall Efficiency (N/W),Vibration (g),App message,90% settling time (s),Max acceleration (RPM/s),
0,1000,,,,-0.0625,0.05078125,-0.94921875,0.0004804629596564079,0.003805283091443501,22.574105965797596,0.0647752125724453,0,0,1.4622425125674448,0,0,0,0,0.060546875,,
0,1200,,,,-0.0625,0.046875,-0.953125,0.0004804629596564079,0.003805283091443501,22.57416219176877,0.06474466241805503,0,0,1.4615565104764903,0,0,0,0,0.060546875,,
0.007004999999888241,1200,,,,-0.0625,0.048828125,-0.95703125,0.0004804629596564079,0.003805283091443501,22.574125778508016,0.06486747871787242,0,0,1.4643266235119439,0,0,0,0,0.060546875,,
0.025429999999701976,1200,,,,-0.0625,0.05078125,-0.95703125,0.0004804629596564079,0.003805283091443501,22.574209578796594,0.06618854789971104,0,0,1.4941541520042942,0,0,0,0,0.060546875,,
0.03274000000022352,1200,,,,-0.0625,0.048828125,-0.953125,0.0004991379554165241,0.003805283091443501,22.574099986642636,0.06636318901542507,0,0,1.4980892642666697,0,0,0,0,0.060546875,,
0.04088499999977648,1200,,,,0,0.05078125,-1.02734375,0.0004991379554165241,0.003805283091443501,22.57328128284054,0.08284701455712473,0,0,1.8701289630415614,0,0,0,0,0.060546875,,
0.04852500000037253,1200,,,,-0.0625,0.05859375,-0.99609375,0.0004991379554165241,0.003805283091443501,22.571836486109355,0.12470107624203228,0,0,2.8147323025770086,0,0,0,0,0.0625,,
0.05714499999955296,1200,,,,0,0.0703125,-0.9921875,0.0004991379554165241,0.003805283091443501,22.570382907187827,0.16548616585154827,0,0,3.735086129111835,0,0,0,0,0.0625,,
0.06537999999988824,1200,,,,-0.09375,0.04296875,-0.984375,0.0004991379554165241,0.003805283091443501,22.569873457000586,0.1951307362144172,0,0,4.404076023930758,0,0,0,0,0.0625,,
0.07336500000022352,1200,,,,-0.09375,0.009765625,-1,0.0004991379554165241,0.003805283091443501,22.569195629597193,0.2144521144319574,0,0,4.840011723795611,0,0,0,0,0.0625,,
0.08115500000026077,1200,,,,-0.0625,0.15234375,-0.9375,0.0004991379554165241,0.003805283091443501,22.568613237136596,0.22716500206356838,0,0,5.126799072586011,0,0,0,0,0.064453125,,
0.08979499999992549,1200,,,,-0.09375,0.021484375,-0.982421875,0.0004991379554165241,0.003805283091443501,22.568388696612146,0.2362925214161534,0,0,5.3327414694223,0,0,0,0,0.064453125,,
0.09772499999962747,1200,,,,-0.03125,0.041015625,-0.955078125,0.0004991379554165241,0.003805283091443501,22.568075436644175,0.2459463063123599,0,0,5.550534794221334,0,0,0,0,0.064453125,,
0.10633499999996275,1200,,,,-0.0625,0.18359375,-0.921875,0.0004991379554165241,0.003805283091443501,22.567481768528825,0.2691962931063297,0,0,6.075082436832638,0,0,0,0,0.06640625,,
0.11432999999914319,1200,,,,-0.0625,-0.009765625,-1.13671875,0.0004991379554165241,0.003805283091443501,22.56691600951718,0.2944977746463625,1,0,6.645906545434181,0.00006437214733478962,0.0009685984431877706,0,0.0005725754741552568,0.06640625,,
0.12165500000026078,1200,,,,-0.0625,-0.021484375,-1.00390625,0.0004991379554165241,0.003568470154573347,22.566774358916927,0.292274539015455,2,0,6.595693572818235,0.0001031601174584124,0.0015640526097748008,0,0.000541030312457132,0.068359375,,
0.13104000000003727,1200,,,,-0.0625,0.109375,-0.99609375,0.0004991379554165241,0.003568470154573347,22.56676823536791,0.29083651106573755,2,0,6.563240139603514,0.00011990699245666767,0.0018269481217536444,0,0.000543705559856129,0.068359375,,
0.14185999999940396,1200,,,,-0.0625,0.025390625,-0.966796875,0.0004991379554165241,0.003568470154573347,22.566573879729233,0.28827738577596235,2,0,6.50543292396846,0.0001251591170748335,0.001923916802119353,0,0.000548536922335447,0.068359375,,
0.15183000000007452,1200,,,,-0.03125,0.072265625,-0.93359375,0.0004991379554165241,0.003568470154573347,22.566747614806676,0.28054903803730147,2,0,6.33107933496458,0.0001277344223710487,0.0020175773452341885,0,0.0005636432535074702,0.068359375,,
0.15918999999947847,1200,,,,-0.0625,0.056640625,-1.0234375,0.0004991379554165241,0.003568470154573347,22.566810345710962,0.2746696885753192,2,0,6.1984187697947215,0.00012835253908920373,0.0020707303565011387,0,0.0005757065288913236,0.0703125,,
0.1676349999997765,1200,,,,-0.03125,-0.005859375,-0.98046875,0.0004991379554165241,0.003568470154573347,22.56697873423949,0.26762553255975974,2,0,6.0394997020156165,0.00012859901934164595,0.0021292992083222963,0,0.0005908552579913878,0.0703125,,
0.1749550000000745,1200,,,,-0.0625,0.07421875,-0.9765625,0.0004991379554165241,0.003568470154573347,22.5671457021601,0.2630925138676842,420,0,5.937247093599606,0.021943789717038618,0.36959535911338737,0.1626186816674856,0.0006010311004943997,0.0703125,,
0.18307500000018626,1200,,,,-0.0625,0.0625,-0.96875,0.0005614552316485794,0.003568470154573347,22.56738437531126,0.2571061700306031,604,0,5.802213764344753,0.03549309625916154,0.6117164534211158,0.100539838184792,0.0006150187324193382,0.0703125,,
0.19040500000026078,1200,,,,-0.03125,0.0234375,-0.970703125,0.0005614552316485794,0.003568470154573347,22.567585329339362,0.25376639782444843,671,0,5.726894836622319,0.039471869042941324,0.6892368407138684,0.09040540114001745,0.0006231073306521559,0.0703125,,
0.1996699999999255,1200,,,,-0.0625,0.04296875,-0.9453125,0.0005614552316485794,0.003568470154573347,22.5678276176446,0.24663949826927914,705,0,5.566117680643445,0.04142170329848527,0.7441758452670175,0.08614976860943911,0.0006411057687448733,0.0703125,,
0.20734999999962747,1200,,,,-0.0625,0.05078125,-0.970703125,0.0005614552316485794,0.003568470154573347,22.56793336419473,0.2396105984451766,716,0,5.407516019065567,0.042079662922485835,0.7781699170954525,0.08480272670308124,0.0006599093080800505,0.0703125,,
0.21532500000018626,1200,,,,0,0.0078125,-0.96484375,0.0005614552316485794,0.003568470154573347,22.56833370635585,0.23430084565430234,720,0,5.287779672407671,0.04234347503332066,0.8007798671013935,0.08427438115944119,0.0006748522774490951,0.0703125,,
0.2232949999999255,1200,,,,-0.03125,0.0234375,-0.951171875,0.0005614552316485794,0.003568470154573347,22.568610477396227,0.2294425742713932,722,0,5.178200085662127,0.04244560015100326,0.819697953899667,0.08407161500551905,0.0006891333080106451,0.068359375,,
0.2347350000003353,1200,,,,-0.0625,0.060546875,-0.966796875,0.0005614552316485794,0.003568470154573347,22.568853805960845,0.2221831217129574,771,0,5.0144183920917405,0.04530271539509381,0.9034490513703624,0.07876945395992323,0.0007116418845705409,0.068359375,,
0.24269000000040977,1200,,,,-0.03125,0.029296875,-0.951171875,0.0005614552316485794,0.003568470154573347,22.568958856663443,0.21790877864937688,782,0,4.917974259843568,0.045977718721556586,0.9348914063454056,0.07761303200326629,0.000725597566402646,0.068359375,,
0.25076499999966473,1200,,,,-0.03125,0.02734375,-0.958984375,0.0005614552316485794,0.003568470154573347,22.569103756351403,0.2127129916877937,786,0,4.80074157972573,0.04624065682387066,0.9631982071093362,0.07717170126206356,0.0007433164429519692,0.068359375,,
0.25836000000033527,1200,,,,-0.0625,0.01953125,-0.96875,0.0005614552316485794,0.003568470154573347,22.569174768825096,0.20829328808544695,788,0,4.7010076219736865,0.0463441012059758,0.9858333560097172,0.07699944678424822,0.0007590862303420706,0.068359375,,
0.26648500000033526,1200,,,,-0.03125,0.021484375,-0.98046875,0.0005614552316485794,0.003568470154573347,22.56950848924544,0.20310908959562304,789,0,4.584072321871327,0.04638933664816182,1.0119678179340894,0.07692436263183229,0.0007784497939850593,0.068359375,,
0.275339999999851,1200,,,,-0.03125,0.0625,-0.9921875,0.0005614552316485794,0.07618230252523785,22.56964642433807,0.19644253479131976,789,0,4.433638552940817,0.046408393836273404,1.0467338120174654,0,0.017182795037431815,0.068359375,,
0.2842350000003353,1200,,,,-0.1875,0.107421875,-0.97265625,0.0005614552316485794,0.07618230252523785,22.5678248520269,0.2853891074370665,808,0,6.440611391316004,0.047508450738297375,0.737638833517481,0,0.011828427131616083,0.0703125,,
0.3128950000004843,1200,,,,0.03125,0.052734375,-0.890625,0.0005614552316485794,0.07618230252523785,22.56177594008011,0.4448800132452878,820,0,10.037283179060056,0.04821205591375797,0.48032973717767324,0,0.007589932571013898,0.078125,,
0.32137000000011173,1200,,,,-0.1875,0.0234375,-1.0234375,0.0005614552316485794,0.07618230252523785,22.561188849845642,0.46578229917277986,1000,0,10.508602414552389,0.058778583882434045,0.5593377840714292,0,0.007249518015805798,0.080078125,,
0.3294449999993667,1200,,,,0,0.1171875,-1.005859375,0.0005614552316485794,0.07618230252523785,22.56063649903039,0.4780490716010346,1064,0,10.785091333089895,0.06255724468574934,0.5800344452699864,0,0.00706366781443026,0.080078125,,
0.3370849999999627,1200,,,,-0.125,-0.046875,-0.94140625,0.006085962669771571,0.07618230252523785,22.560299818606808,0.48713922877373594,1088,0,10.990007054540376,0.6935837009502561,6.311039633625269,0.10983865742644036,0.006931961203224536,0.080078125,,
0.3457849999992177,1200,,,,0,-0.03125,-0.92578125,0.006085962669771571,0.07618230252523785,22.560076980213825,0.4914876761444066,1099,0,11.087999808644215,0.7004142415373125,6.316867366747868,0.10876749501556139,0.006870698398267111,0.080078125,,
0.3555999999996275,1200,,,,-0.0625,0.078125,-0.990234375,0.006085962669771571,0.07618230252523785,22.55985430939141,0.49440996781089896,1273,0,11.153816842924778,0.8114221412525637,7.274838314807678,0.09388738444780163,0.006830155416579456,0.080078125,,
0.37210499999951574,1200,,,,0,0.0703125,-0.9609375,0.006085962669771571,0.07618230252523785,22.55992458110976,0.49033402931927195,1358,0,11.061898720994439,0.8656747903223593,7.825734190454938,0.08800337421962945,0.006886910145059549,0.080078125,,
0.3794799999995157,1200,,,,-0.03125,0.04296875,-0.962890625,0.006085962669771571,0.07618230252523785,22.560017870108293,0.48723227465717023,1416,0,10.991968823159272,0.9027263553917987,8.212599306957825,0.08439135743652175,0.006930724035964087,0.080078125,,
0.4093050000006333,1200,,,,-0.041015625,0.0625,-0.9921875,0.006085962669771571,0.07618230252523785,22.560692791580117,0.4679124914977766,1505,0,10.55642997402418,0.9589263041285058,9.083812486684424,0.07944541952519914,0.007216672938928865,0.08203125,,
0.4183649999992922,1200,,,,-0.0625,0.04296875,-0.9765625,0.006085962669771571,0.07618230252523785,22.56099389120336,0.45953996517340784,1537,0,10.367678347041059,0.9793981146500917,9.446648341763154,0.07778481639456228,0.007348058068080431,0.08203125,,
0.42625499999988825,1200,,,,0,0,-0.88671875,0.006085962669771571,0.13127458216129442,22.561320352742467,0.4537164244840825,1547,0,10.236441602086272,0.9858434130156861,9.630723754773953,0.13315966859252695,0.012824239834918765,0.08203125,,
0.4348149999994785,1200,,,,-0.0625,0.10546875,-1.009765625,0.006085962669771571,0.13127458216129442,22.561518381706733,0.4463379145976638,1568,0,10.070061064647842,0.9993200309303532,9.923673992788247,0.13136390555393912,0.013036125731367174,0.08203125,,
0.4426450000004843,1200,,,,-0.0625,0.04296875,-0.958984375,0.006085962669771571,0.13127458216129442,22.561734784087484,0.4388388343220856,1576,0,9.900965392933003,1.0045544952691035,10.1460257197356,0.1306794034365733,0.013258765883071774,0.08203125,,
0.45297000000067056,1200,,,,-0.03125,0.03125,-0.974609375,0.006085962669771571,0.13127458216129442,22.561908213238397,0.4321377939038014,1579,0,9.749853241528898,1.0066425082175559,10.324693954672304,0.13040834366684953,0.013464262374959497,0.08203125,,
0.46059499999973924,1200,,,,-0.0625,-0.05859375,-0.98828125,0.006085962669771571,0.13127458216129442,22.5622166274702,0.42398938186986235,1589,0,9.56614028149502,1.0124900922244935,10.584102495162856,0.12965517704264873,0.013722836828478802,0.08203125,,
0.4765800000000745,1200,,,,-0.03125,0.10546875,-1.017578125,0.006085962669771571,0.13127458216129442,22.562710447498016,0.40913898537894927,1597,0,9.231284459888357,1.0180029234553456,11.027749473854447,0.12895305026798654,0.014220619322447146,0.08203125,,
0.48486499999929217,1200,,,,-0.125,0.05859375,-0.9453125,0.014827366550357322,0.13127458216129442,22.562878054154886,0.4018003472686424,1600,0,9.065772237539463,2.4843154457578835,27.40324134187768,0.05284135007309704,0.01448024268883724,0.08203125,,
0.49349500000011176,1200,,,,0,-0.03515625,-0.9609375,0.014827366550357322,0.13127458216129442,22.56293814803022,0.3939587817372506,1604,0,8.888867625210922,2.4912806291441667,28.02697412298399,0.05269361493265068,0.014768425821638832,0.083984375,,
0.5014949999991805,1200,,,,-0.0625,0.1015625,-0.88671875,0.014827366550357322,0.13127458216129442,22.562924923958576,0.38754856649752467,1606,0,8.744229210271417,2.4937206011569795,28.518472482717268,0.052642057053379855,0.01501271055510446,0.083984375,,
0.5097599999997765,1200,,,,-0.03125,0.037109375,-1.015625,0.014827366550357322,0.13127458216129442,22.563174162260374,0.3808888639162519,1607,0,8.594061773007882,2.494687120137917,29.02803337966685,0.052621661891627126,0.015275033578836954,0.083984375,,
0.5177599999997765,1200,,,,-0.03125,0.0546875,-0.9921875,0.014827366550357322,0.13127458216129442,22.563313348757035,0.3751891967700666,1608,0,8.465511411791473,2.49643114611972,29.489430994593924,0.05258489999427325,0.015506987797387434,0.083984375,,
0.5255,1200,,,,-0.125,0.0390625,-0.94921875,0.014827366550357322,0.13127458216129442,22.56341152531699,0.3707794055023696,1608,0,8.366048311462349,2.4971133462065245,29.848182238981597,0.05257053403711908,0.015691348803405156,0.083984375,,
0.5331950000002981,1200,,,,0,-0.0078125,-0.931640625,0.014827366550357322,0.13127458216129442,22.563538719015668,0.36686522824882184,1608,0,8.277777782252812,2.4973857245639772,30.169760414664204,0.05256480041112346,0.015858674346482374,0.083984375,,
0.5412199999997392,1200,,,,-0.03125,0.03515625,-0.98828125,0.014827366550357322,0.13127458216129442,22.563561270433247,0.361262904937056,1611,0,8.151377690281965,2.500668631036334,30.67786484752902,0.05249579273799714,0.01610458834680172,0.083984375,,
0.5493250000001862,1200,,,,-0.1875,0.0859375,-1.05078125,0.014827366550357322,0.13127458216129442,22.563583115784883,0.3575606253772562,1611,0,8.067848889631742,2.501981677714948,31.011756813273074,0.05246824280551371,0.016271323863043557,0.083984375,,
0.5569550000000745,1200,,,,-0.03125,0.0703125,-0.9921875,0.014827366550357322,0.13127458216129442,22.563428375197866,0.35412531243826123,1612,0,7.990281123045273,2.502456635206493,31.3187558318693,0.052458284517071026,0.01642928204148877,0.083984375,,
0.5726850000005216,1200,,,,-0.125,0.11328125,-0.890625,0.014827366550357322,0.4114478320595772,22.563677515916446,0.34521489366303704,1612,0,7.789317534304155,2.5033495901400022,32.13824034153506,0.16435891881827283,0.05282206435256502,0.083984375,,
0.5799099999992177,1200,,,,0,-0.00390625,-1.00390625,0.014827366550357322,0.4114478320595772,22.56360470203598,0.3403203721664949,1612,0,7.67885434961456,2.503478021770476,32.60223345551721,0.16435048699512794,0.05358192945543104,0.083984375,,
0.5868099999995903,1200,,,,-0.0625,0.1875,-0.9921875,0.014827366550357322,0.4114478320595772,22.56379409627464,0.3375419372951877,1612,0,7.616226771986262,2.5035335481809233,32.87104787096588,0.16434684183023499,0.05402252905243712,0.0859375,,
0.5958099999995902,1200,,,,-0.0625,0.037109375,-0.994140625,0.014827366550357322,0.4114478320595772,22.564004923640226,0.3339096860700329,1613,0,7.534339800535385,2.50379076390272,33.2317207637065,0.16432995839406458,0.054609672904630605,0.0859375,,
0.6064550000000745,1200,,,,0,-0.01953125,-0.943359375,0.014827366550357322,0.4114478320595772,22.563932541959822,0.3290031021471297,1613,0,7.423603802943351,2.5038944978970825,33.7288271890847,0.16432315035842573,0.055424271416053224,0.0859375,,
0.6170099999997765,1200,,,,-0.0625,0.11328125,-0.9921875,0.014827366550357322,0.4114478320595772,22.56414986305029,0.32355246053076964,1613,0,7.30068620797495,2.5039368164972076,34.29728035375656,0.1643203731614751,0.056357419061530085,0.0859375,,
0.625734999999404,1200,,,,-0.01953125,0.04296875,-0.974609375,0.014827366550357322,0.4114478320595772,22.564448633265542,0.3206796306044744,1612,0,7.235959052509231,2.5037004185579526,34.60080965618148,0.16433588819566414,0.056861547871376976,0.0859375,,
0.6342599999997764,1200,,,,-0.125,0.04296875,-0.9453125,0.021245550633901995,0.4114478320595772,22.564690268738865,0.31803416955112584,1612,0,7.1763425307967355,3.587346006455718,49.988500284941686,0.11469421441900048,0.05733391770165369,0.0859375,,
0.6427450000001118,1200,,,,0,0.01953125,-0.93359375,0.021245550633901995,0.4114478320595772,22.56487174155581,0.3140576419250766,1612,0,7.086670409494815,3.58730156751937,50.620409306930036,0.11469563523316904,0.05805940001221363,0.0859375,,
0.6506650000000372,1200,,,,-0.0625,0.021484375,-0.974609375,0.021245550633901995,0.4114478320595772,22.564959491761492,0.31155560837229834,1613,0,7.030239682352019,3.5882654976368316,51.04044328167699,0.11466482408577333,0.05852543450153384,0.087890625,,
0.658625,1200,,,,-0.0625,0.080078125,-0.99609375,0.021245550633901995,0.4114478320595772,22.564912746229822,0.30992112249480375,1613,0,6.993343087308851,3.588646695784557,51.31518146588636,0.11465264400167588,0.058834212324896655,0.087890625,,
0.666660000000149,1200,,,,0.0625,0.046875,-0.9609375,0.021245550633901995,0.4114478320595772,22.56486749146242,0.3085542132993947,1613,0,6.962484937033272,3.5887989842609085,51.544800695685275,0.11464777878728485,0.05909496907793612,0.087890625,,
0.674660000000149,1200,,,,-0.0625,0.0234375,-0.958984375,0.021245550633901995,0.4114478320595772,22.564922109165867,0.30771217033739473,1613,0,6.943501155705691,3.5895056527473654,51.69590343911381,0.11462520799895101,0.05925653684402107,0.087890625,,
0.6824799999995157,1200,,,,-0.0625,-0.0078125,-0.974609375,0.021245550633901995,0.4114478320595772,22.565009689998227,0.3068763796215777,1614,0,6.924668479792476,3.589794881973094,51.84067500774674,0.11461597266343784,0.059417693895420655,0.087890625,,
0.6910499999998138,1200,,,,0,0.05078125,-1.03515625,0.021245550633901995,0.4114478320595772,22.565286571428288,0.30493496204353193,1614,0,6.880944804159906,3.589905379685544,52.17169272329071,0.11461244477023452,0.05979525250817803,0.087890625,,
0.7009399999994784,1200,,,,-0.0625,0.08203125,-0.98828125,0.021245550633901995,0.4114478320595772,22.56536227281104,0.30155936019147533,1614,0,6.804796209477753,3.5901825907825993,52.759590151754665,0.11460359512519627,0.06046438708722984,0.087890625,,
0.7079850000003353,1200,,,,-0.0625,0.05859375,-0.97265625,0.021245550633901995,0.4114478320595772,22.56550408851035,0.2994194780003624,1614,0,6.756551454996813,3.5903959031376265,53.139473991311746,0.1145967863042667,0.060896129453034895,0.087890625,,
0.7147549999998882,1200,,,,0.125,-0.046875,-0.92578125,0.021245550633901995,0.4114478320595772,22.565525385487753,0.29683383901963595,1614,0,6.69821152966938,3.590464720807242,53.60333433638913,0.11459458985216588,0.06142652112987032,0.08984375,,
0.7228450000006705,1200,,,,-0.03125,0.0390625,-0.943359375,0.021245550633901995,0.4114478320595772,22.565546815666575,0.2952568158919779,1614,0,6.662631501655074,3.5906519984786787,53.89239968602075,0.1145886129410211,0.06175455328084239,0.08984375,,
0.7310449999999254,1200,,,,-0.0625,-0.0546875,-1.03515625,0.021245550633901995,0.5449255263360316,22.565670606717813,0.29351377718397603,1614,0,6.623335214467169,3.590902338383385,54.215923278952815,0.15175169775888578,0.08227358403146588,0.091796875,,
0.7384299999997019,1200,,,,-0.0625,0.14453125,-1.0625,0.021245550633901995,0.5449255263360316,22.56559172213587,0.2921667644051385,1614,0,6.592915920343814,3.5909956368333065,54.46748722750342,0.15174775506454535,0.08265318910780443,0.091796875,,
0.7469550000000745,1200,,,,-0.0625,0.06640625,-0.97265625,0.021245550633901995,0.5449255263360316,22.565709941837117,0.29104843787980544,1614,0,6.567714628220489,3.5910343106140736,54.67707587634724,0.15174612081131814,0.08297034161541796,0.091796875,,
0.7588450000006706,1200,,,,-0.03125,0.013671875,-0.97265625,0.021245550633901995,0.5449255263360316,22.565762435351857,0.2905732540704513,1613,0,6.557007021420941,3.588626018436699,54.72963513250934,0.1518479561638512,0.08310583236464847,0.091796875,,
0.7672450000001118,1200,,,,-0.03125,0.044921875,-1.001953125,0.021245550633901995,0.5449255263360316,22.565579189140042,0.28952559192763266,1613,0,6.53331267192564,3.5876845321899262,54.913712420447894,0.15188780436149682,0.08340723208880486,0.091796875,,
0.7757800000002608,1200,,,,-0.0625,0.119140625,-0.97265625,0.021245550633901995,0.5449255263360316,22.56578602053086,0.28757926807857154,1613,0,6.489452227401927,3.5880005457788067,55.28972893318107,0.15187442682446717,0.08397095891007035,0.09375,,
0.7841950000002981,1200,,,,-0.09375,0.05859375,-1,0.02260207760549151,0.5449255263360316,22.565697895982048,0.2877513689296093,1613,0,6.4933104604208385,3.818372210611849,58.80470730432895,0.1427114739683049,0.08392106455675531,0.09375,,
0.7918300000000745,1200,,,,0,-0.013671875,-0.962890625,0.02260207760549151,0.5449255263360316,22.56581090544304,0.2861568227857213,1613,0,6.457360752284961,3.8188720522251445,59.13982815461909,0.1426927948577171,0.08438827366787705,0.09375,,
0.7993600000003352,1200,,,,-0.0625,0.1171875,-0.9921875,0.02260207760549151,0.5449255263360316,22.56610798951565,0.2829551006210946,1614,0,6.385195356799887,3.819066815039004,59.811275953709156,0.14268551788363157,0.0853420288473579,0.09375,,
0.8078600000003353,1200,,,,-0.0625,0.056640625,-0.9921875,0.02260207760549151,0.5449255263360316,22.566269380609505,0.28227475128625273,1614,0,6.3698880768701285,3.8209079375438706,59.98391010068249,0.1426167641940928,0.08554711162268697,0.09375,,
0.8198100000005215,1200,,,,-0.03125,0.017578125,-0.982421875,0.02260207760549151,0.5449255263360316,22.56625195561144,0.2811514572041861,1615,0,6.344534620956971,3.8217164152061196,60.236355281006816,0.14258659385815306,0.08588896725948332,0.095703125,,
0.8274999999990686,1200,,,,0,-0.009765625,-0.953125,0.02260207760549151,0.5449255263360316,22.566215384761563,0.27936566881590374,1615,0,6.304225853607651,3.821949509029892,60.62519963244569,0.14257789775834784,0.08643813514774269,0.095703125,,
0.8419150000000373,1200,,,,-0.125,0.01953125,-0.88671875,0.02260207760549151,0.5449255263360316,22.56666147938774,0.27672725358455086,1615,0,6.244810253763247,3.8225299724913246,61.211306943838565,0.1425562468463466,0.08726054182473339,0.095703125,,
0.8500750000001862,1200,,,,0,0.0625,-1.01953125,0.02260207760549151,0.5449255263360316,22.566661741398345,0.2770647146895313,1615,0,6.252425696875695,3.8225986713507747,61.13785043876504,0.1425536848584405,0.08715425864370178,0.095703125,,
0.8574249999998137,1200,,,,-0.125,0.111328125,-0.96875,0.02260207760549151,0.5449255263360316,22.566529587464842,0.2759815749713028,1615,0,6.227946377185051,3.822455595942976,61.375859142683794,0.14255902067623677,0.08749682372543657,0.095703125,,
0.8657900000000373,1200,,,,-0.03125,0.005859375,-0.974609375,0.02260207760549151,0.5449255263360316,22.566602398344784,0.27640586484591084,1615,0,6.237541252548296,3.8222244920439787,61.27774290041673,0.14256764024988663,0.08736223205151658,0.095703125,,
0.8738400000007823,1200,,,,-0.0625,0.1171875,-0.984375,0.02260207760549151,0.5954119388929477,22.566476453918206,0.2761699839566106,1615,0,6.232183440235821,3.822135077586776,61.32898869616953,0.15577993106117002,0.09553825631140565,0.095703125,,
0.8817549999998883,1200,,,,-0.0625,0.0625,-0.95703125,0.02260207760549151,0.5954119388929477,22.566617024212754,0.27690270763961583,1615,0,6.248757356270762,3.8220990893767977,61.16574658705925,0.15578139785748754,0.09528485504328939,0.095703125,,
0.8899300000006333,1200,,,,-0.03125,0.044921875,-0.9765625,0.02260207760549151,0.5954119388929477,22.566586654381194,0.2772804966373424,1615,0,6.25727435493644,3.822084911854115,61.082265137356906,0.15578197570815086,0.09515515943826564,0.09765625,,
0.897984999999404,1200,,,,0,0.0625,-0.9375,0.02260207760549151,0.5954119388929477,22.566525703243165,0.27721194588942344,1615,0,6.255710502159728,3.8220793887375835,61.09744668360284,0.15578220082173902,0.0951789470896051,0.095703125,,
0.9077900000000373,1200,,,,-0.03125,-0.0546875,-0.947265625,0.02260207760549151,0.5954119388929477,22.56659897044709,0.27639096765043325,1615,0,6.237204126021141,3.8220771746450377,61.27869310384796,0.15578229106486963,0.09546135205178462,0.09765625,,
0.9182300000004471,1200,,,,0,0.02734375,-0.953125,0.02260207760549151,0.5954119388929477,22.56642136799666,0.27413023909066414,1613,0,6.186138485029597,3.8184224917393097,61.725460899070725,0.15593139318162114,0.09624937112769778,0.09765625,,
0.9268349999999628,1200,,,,-0.0625,0.109375,-1.0078125,0.02260207760549151,0.5954119388929477,22.56657905198479,0.27228055415114266,1613,0,6.144440649569986,3.817395533007402,62.12763294042981,0.15597334196697013,0.09690254538216057,0.09765625,,
0.9351399999996647,1200,,,,-0.0625,0.046875,-0.958984375,0.022817381591903916,0.5954119388929477,22.566645378058976,0.2710300416744538,1613,0,6.116238837267945,3.853463810653162,63.003815141634675,0.15451343729942163,0.09734936040511322,0.09765625,,
0.9440499999998138,1200,,,,-0.0625,-0.1171875,-0.94921875,0.022817381591903916,0.5954119388929477,22.56657430164351,0.2701174854422851,1613,0,6.0956263054064355,3.8533324249260588,63.214708905439245,0.1545187056900166,0.09767855000639639,0.099609375,,
0.9522050000000745,1200,,,,0,0.060546875,-1.01953125,0.022817381591903916,0.5954119388929477,22.56634820326833,0.26890023555500003,1613,0,6.068096347475006,3.853287043349939,63.500755800512785,0.1545205255135401,0.09812170156802215,0.09765625,,
0.9608049999997019,1200,,,,-0.03125,0.0703125,-1.009765625,0.022817381591903916,0.5954119388929477,22.5662915568032,0.2688051129634973,1613,0,6.0659345510937,3.8532679617159635,63.52307182445962,0.154521290709249,0.0981566704813183,0.099609375,,
0.9697749999994412,1200,,,,-0.0625,0.09375,-0.94921875,0.022817381591903916,0.5954119388929477,22.566241572769215,0.26860725234432725,1612,0,6.061456144599869,3.851084524564026,63.53398313365584,0.15460889915428516,0.0982291919118145,0.099609375,,
0.9779950000001117,1200,,,,-0.03125,0.03515625,-0.990234375,0.022817381591903916,0.5954119388929477,22.56626336621651,0.2677572606455672,1611,0,6.042280861944549,3.8502774862587934,63.72225280867998,0.15464130598844003,0.09854092394859812,0.099609375,,
0.9866899999994785,1200,,,,-0.03125,0.029296875,-0.958984375,0.022817381591903916,0.5954119388929477,22.56643260152602,0.2660517376396787,1611,0,6.0038386059646935,3.849958321717301,64.12494696130646,0.1546541258730718,0.09917187618957943,0.099609375,,
0.9950549999997019,1200,,,,-0.125,0.119140625,-1.005859375,0.022817381591903916,0.5954119388929477,22.566510539847016,0.26470637474519004,1613,0,5.973499195652025,3.8533853974167096,64.5080089777446,0.15451658152130565,0.0996755702798679,0.099609375,,
1.0027900000000372,1200,,,,0.0625,0.015625,-1.0390625,0.022817381591903916,0.5954119388929477,22.56651812316169,0.26535054572482003,1613,0,5.988037899089996,3.8547020938882834,64.37337503281474,0.15446380145355115,0.09943356219963684,0.1015625,,
1.0101150000002235,1200,,,,-0.09375,0.08984375,-0.955078125,0.022817381591903916,0.5954119388929477,22.566582534690145,0.26519502775578846,1613,0,5.984545481640444,3.855198281929877,64.41923273466568,0.1544439209998013,0.09949158891340523,0.1015625,,
1.0193349999999628,1200,,,,-0.0625,0.03515625,-0.951171875,0.022817381591903916,0.5954119388929477,22.56666372528721,0.2689122027353325,1613,0,6.068451250754508,3.854687598633498,63.5201213514607,0.15446438230273798,0.09811596308348335,0.1015625,,
1.0270599999995902,1200,,,,0.0625,-0.03125,-1.03125,0.022817381591903916,0.6180387802312624,22.56647300893937,0.27370129177663716,1613,0,6.176472813389321,3.854526444710539,62.40659614585722,0.160341040357728,0.10006338551211326,0.1015625,,
1.0347350000003352,1200,,,,-0.03125,0.126953125,-0.935546875,0.022817381591903916,0.6180387802312624,22.565968534741167,0.27736067231751027,1613,0,6.258912204291592,3.8544612969480716,61.58356550048995,0.1603437504277498,0.09874539857061541,0.1015625,,
1.0431049999995157,1200,,,,-0.125,0,-1.046875,0.022817381591903916,0.6180387802312624,22.566069597571126,0.2753454076497197,1617,0,6.213463632395168,3.8638873115874723,62.18572345772336,0.1599525892946764,0.0994676748422555,0.103515625,,
1.055929999999702,1200,,,,0,0.001953125,-0.9296875,0.022817381591903916,0.6180387802312624,22.566115452450994,0.2727232585999045,1624,0,6.154304540134093,3.879733951730236,63.040980933415135,0.15929926843453715,0.10042382144088635,0.103515625,,
1.0650999999996276,1200,,,,-0.01953125,0.04296875,-0.982421875,0.022817381591903916,0.6180387802312624,22.56610982751144,0.2702866857584335,1625,0,6.0993190357388825,3.8831678432004,63.66559644522655,0.1591583998393157,0.10132914455037882,0.103515625,,
1.0814150000000373,1200,,,,-0.1875,0.171875,-0.93359375,0.022817381591903916,0.6180387802312624,22.565902474810038,0.2667246405479049,1626,0,6.018882226232785,3.885612121201381,64.55703858544153,0.15905827986767057,0.10268331510751165,0.103515625,,
1.0897900000000373,1200,,,,0,-0.025390625,-0.93359375,0.022076029968608628,0.6180387802312624,22.565943755645115,0.26534559602815005,1626,0,5.987773795779364,3.7596116215432223,62.78813712357139,0.16438899611060717,0.10321678829399047,0.103515625,,
1.098554999999702,1200,,,,-0.03125,0.0546875,-0.978515625,0.022076029968608628,0.6180387802312624,22.565723843913776,0.2653276225080415,1623,0,5.987309857678666,3.7528472307928595,62.68002358321024,0.1646853021780719,0.1032247862432965,0.103515625,,
1.106070000000298,1200,,,,-0.0625,0.08984375,-0.958984375,0.022076029968608628,0.6180387802312624,22.565705042458298,0.26541813133303727,1621,0,5.989347264581777,3.7474254113831367,62.56817722932302,0.16492357082116024,0.10318967208431161,0.10546875,,
1.1130149999996648,1200,,,,-0.1875,0.05859375,-1.046875,0.022076029968608628,0.6180387802312624,22.565802913971734,0.26581763015601356,1620,0,5.998388253159631,3.7454178774552402,62.44040431164745,0.1650119694123899,0.10303414086370825,0.10546875,,
1.1207249999996274,1200,,,,-0.03125,0.0234375,-0.919921875,0.022076029968608628,0.6180387802312624,22.56572306842803,0.2675134365967725,1618,0,6.036634127326249,3.741606155578127,61.98166191058132,0.16518007361888343,0.10238135477410563,0.10546875,,
1.128144999999553,1200,,,,-0.0625,0.0546875,-0.90234375,0.022076029968608628,0.6180387802312624,22.5657640997601,0.2673109874597508,1617,0,6.032076684290667,3.7371219219170264,61.95415140609221,0.16537827588836806,0.10245870743666445,0.10546875,,
1.1361900000004097,1200,,,,-0.03125,0.01953125,-0.984375,0.022076029968608628,0.6180387802312624,22.56587386042111,0.2662402807346773,1616,0,6.007944591621833,3.7350378478794535,62.16831382047063,0.1654705535533329,0.10287025301350591,0.10546875,,
1.1441650000000372,1200,,,,-0.125,0.0078125,-0.94921875,0.022076029968608628,0.6180387802312624,22.56578173450752,0.26628717702516297,1615,0,6.008978315447993,3.734215986817052,62.143941794848224,0.1655069718551718,0.10285255625609378,0.10546875,,
1.152984999999404,1200,,,,-0.0625,0.083984375,-0.984375,0.022076029968608628,0.6180387802312624,22.565903113140035,0.26633675566929726,1615,0,6.010129423901412,3.7335142285108183,62.12036322650848,0.165538080854664,0.10283285710510856,0.10546875,,
1.1611100000003354,1200,,,,-0.03125,0.00390625,-0.935546875,0.022076029968608628,0.6180387802312624,22.566006427760914,0.26755467322048876,1615,0,6.0376404756710205,3.733274739756661,61.833339610069224,0.16554870008617337,0.10236428994433854,0.10546875,,
1.1691599999992177,1200,,,,0,0.03515625,-0.95703125,0.022076029968608628,0.6288851725192961,22.565908738623584,0.26647991388730213,1615,0,6.013361417457132,3.7331811074032073,62.08143579339118,0.16845825434832634,0.10458130301192384,0.10546875,,
1.1775650000004099,1200,,,,-0.0625,0.08984375,-1.005859375,0.022076029968608628,0.6288851725192961,22.566167854563023,0.26651873997670433,1614,0,6.014306622700946,3.730630108732608,62.02926360041867,0.16857344582278747,0.10456486706972581,0.10546875,,
1.1851900000004099,1200,,,,-0.0625,0.107421875,-0.990234375,0.022076029968608628,0.6288851725192961,22.56616069452542,0.2681394843079847,1613,0,6.050878691441159,3.7298154271217205,61.640889155445564,0.1686102663274691,0.10393286737161676,0.10546875,,
1.1925650000004098,1200,,,,-0.125,0.0546875,-0.9453125,0.022076029968608628,0.6288851725192961,22.56625148755909,0.2678784997883281,1613,0,6.045013594333456,3.7294323496551054,61.69435835762294,0.16862758552986082,0.10403370690659947,0.10546875,,
1.2017599999997766,1200,,,,-0.03125,-0.0234375,-0.9921875,0.022076029968608628,0.6288851725192961,22.56633790515721,0.26838070017648996,1613,0,6.0563695674053575,3.7298511931766534,61.58559433443853,0.16860864950048712,0.10383863889414534,0.10546875,,
1.2100499999998138,1200,,,,0,0.04296875,-0.953125,0.022076029968608628,0.6288851725192961,22.566428714189644,0.2670130115361618,1614,0,6.025530090591893,3.731221424580482,61.92353815320439,0.1685467306701061,0.10437009907248179,0.10546875,,
1.2193150000004098,1200,,,,-0.125,0.140625,-0.96484375,0.022076029968608628,0.6288851725192961,22.566568856175877,0.26660275034461217,1614,0,6.016309322897557,3.7316853907288685,62.02615574512424,0.1685257749974638,0.10453005967060454,0.10546875,,
1.2271299999998881,1200,,,,-0.03125,0.060546875,-0.99609375,0.022076029968608628,0.6288851725192961,22.566649642827038,0.26773799239612556,1614,0,6.041949470477255,3.731156501511287,61.75418248270391,0.1685496634259563,0.10408646672604832,0.107421875,,
1.2355200000004842,1200,,,,0,-0.068359375,-0.998046875,0.020333668675120722,0.6288851725192961,22.566717318252564,0.26743898418191,1613,0,6.035219955913782,3.435245342802936,56.919969245475684,0.18306848849583676,0.10420252734998749,0.107421875,,
1.2440449999999255,1200,,,,-0.125,0.04296875,-0.9609375,0.020333668675120722,0.6288851725192961,22.56678656956356,0.26777683479669484,1613,0,6.042862679130294,3.4346699729750236,56.83845811749194,0.18309915580464686,0.10407073698550554,0.107421875,,
1.2511100000003352,1200,,,,-0.0625,0.029296875,-0.998046875,0.020333668675120722,0.6288851725192961,22.566753141105487,0.2672431301164543,1613,0,6.0308097459943575,3.434485419555666,56.94899299114583,0.18310899470950662,0.1042787285632745,0.107421875,,
1.2590099999997766,1200,,,,0,0.056640625,-0.955078125,0.020333668675120722,0.6288851725192961,22.5666189118943,0.26697626093056476,1613,0,6.0247515389425095,3.4340860944155636,56.99963014604796,0.1831302871357755,0.1043835863527877,0.107421875,,
1.266785000000149,1200,,,,-0.0625,0.0703125,-0.99609375,0.020333668675120722,0.6288851725192961,22.566488885286976,0.266555644129448,1613,0,6.015224980557699,3.433926026576646,57.087241751983,0.18313882350757715,0.10454890291750804,0.107421875,,
1.2753050000006334,1200,,,,-0.03125,-0.01171875,-0.9453125,0.020333668675120722,0.6288851725192961,22.566662427842452,0.2671235378842226,1613,0,6.0280867059642365,3.43386386131799,56.964407262432005,0.18314213897749476,0.10432583391626934,0.10546875,,
1.283019999999553,1200,,,,0,0.037109375,-1.009765625,0.020333668675120722,0.6288851725192961,22.566728744247445,0.2661592293721272,1613,0,6.006343132018732,3.4338394640411614,57.17021802727158,0.1831434401942553,0.10470350406170148,0.10546875,,
1.2928349999999627,1200,,,,-0.1875,0.17578125,-0.9140625,0.020333668675120722,0.6288851725192961,22.566594401923318,0.2671715092056181,1613,0,6.029151083992906,3.4338297846357593,56.95378564575046,0.183143956445705,0.1043074163772334,0.107421875,,
1.300304999999702,1200,,,,-0.03125,0.072265625,-1.005859375,0.020333668675120722,0.6288851725192961,22.566598697946088,0.26526022130569954,1613,0,5.98602096473409,3.4338256294469254,57.364076231554975,0.18314417806375,0.10505896591814431,0.107421875,,
1.3072000000001862,1200,,,,0,-0.0390625,-0.9921875,0.020333668675120722,0.6288851725192961,22.566573165464284,0.26552861988364274,1613,0,5.992071028128978,3.433679421071463,57.303716944484016,0.18315197646583312,0.10495289017220899,0.107421875,,
1.314679999999702,1200,,,,-0.0625,0.001953125,-0.919921875,0.020333668675120722,0.6288851725192961,22.566548467806324,0.26508489545471225,1612,0,5.9820511413621364,3.4334690408482995,57.39618334433839,0.18316319880487952,0.10512868540540368,0.107421875,,
1.3230949999997392,1200,,,,-0.03125,0.041015625,-1.017578125,0.020333668675120722,0.637390640110014,22.566521286971394,0.26572935662663083,1612,0,5.996587182888078,3.4333699705439646,57.25539987714119,0.18564577822326245,0.1062922326767596,0.109375,,
1.3311850000005216,1200,,,,0.0625,0.15234375,-0.91015625,0.020333668675120722,0.637390640110014,22.56633138291475,0.2659085729449422,1612,0,6.000580974633525,3.43333151375387,57.21665165869301,0.18564785764399314,0.10622148801998985,0.109375,,
1.3391350000007078,1200,,,,-0.0625,0.052734375,-1.013671875,0.020333668675120722,0.637390640110014,22.56621647225597,0.26714908106127044,1612,0,6.028543993592886,3.4330026801604587,56.94580123839257,0.18566564010961456,0.1057287863848104,0.109375,,
1.3472099999999627,1200,,,,0,-0.04296875,-0.96875,0.020333668675120722,0.637390640110014,22.56610874943815,0.26662363336086226,1612,0,6.0166579055915435,3.4328744942344254,57.05616885819792,0.18567257299400927,0.10593765677082272,0.109375,,
1.3552900000000372,1200,,,,-0.0625,0.041015625,-0.986328125,0.020333668675120722,0.637390640110014,22.56613655521386,0.2669759471787131,1612,0,6.024615680992402,3.4328229313413106,56.97994881518883,0.18567536189842615,0.10579772617213985,0.109375,,
1.362945000000298,1200,,,,-0.0625,0.091796875,-0.982421875,0.020333668675120722,0.637390640110014,22.566130039430806,0.26672412397723566,1612,0,6.018931266323564,3.431975852684389,57.01968839362874,0.185721190203441,0.10589764393494061,0.107421875,,
1.3722400000002235,1200,,,,0.0625,0.0234375,-1.08203125,0.020333668675120722,0.637390640110014,22.566414261927687,0.2656955323531605,1611,0,5.99579545062483,3.4312235321486706,57.22716127334028,0.1857619109154549,0.10630626834402608,0.109375,,
1.3816699999999256,1200,,,,-0.09375,0.05078125,-0.931640625,0.020333668675120722,0.637390640110014,22.56634814472045,0.26313576085891044,1611,0,5.938013188868077,3.4308878771985083,57.77838088386791,0.1857800846090241,0.107340724891774,0.109375,,
1.389105000000447,1200,,,,-0.03125,-0.021484375,-0.951171875,0.019006676243532705,0.637390640110014,22.566225972053317,0.2652685793145962,1612,0,5.986110704098726,3.2078948369605196,53.588966117249626,0.19869436889456812,0.10647825802379311,0.109375,,
1.3973250000001862,1200,,,,-0.03125,0.0703125,-1.001953125,0.019006676243532705,0.637390640110014,22.566122244724834,0.2658641996997336,1612,0,5.999524030920124,3.20869123728124,53.48242995184962,0.19864505275680006,0.10624020119347032,0.109375,,
1.4046550000002607,1200,,,,0,0.14453125,-0.94921875,0.019006676243532705,0.637390640110014,22.56595241860789,0.2690216181661091,1612,0,6.070729035113318,3.2090275529196863,52.86066194617738,0.19862423416405184,0.10499408496464317,0.109375,,
1.4122050000000745,1200,,,,-0.0625,0.080078125,-0.994140625,0.019006676243532705,0.637390640110014,22.56586923008586,0.27162850240069947,1613,0,6.129533264338247,3.2112305494889832,52.38947911698253,0.1984879722234346,0.10398681475771836,0.109375,,
1.419399999999441,1200,,,,0.0625,-0.171875,-0.97265625,0.019006676243532705,0.637390640110014,22.565907833908803,0.2702605644464007,1616,0,6.098674988437648,3.2167367760898053,52.74484674438874,0.1981482118300062,0.10451297065648353,0.111328125,,
1.428304999999702,1200,,,,-0.0625,0.0625,-0.97265625,0.019006676243532705,0.637390640110014,22.566012539667046,0.2683700615119389,1617,0,6.0560421733496295,3.218973825644476,53.15309460376568,0.1980105072716461,0.10524871225549438,0.111328125,,
1.436394999999553,1200,,,,0.0625,-0.0234375,-1.0078125,0.019006676243532705,0.637390640110014,22.565979290608382,0.2663906212959747,1618,0,6.011365243377265,3.219834402658514,53.56244833410868,0.19795758427319768,0.10603092879978118,0.111328125,,
1.4441200000001118,1200,,,,-0.0625,0.068359375,-0.986328125,0.019006676243532705,0.637390640110014,22.56598038757526,0.2647443445142966,1622,0,5.974215686031085,3.227814483332441,54.02909190037646,0.19746817650187967,0.10669026255619815,0.11328125,,
1.452160000000149,1200,,,,-0.03125,0.033203125,-0.955078125,0.019006676243532705,0.637390640110014,22.566014416502664,0.26454323495434307,1623,0,5.969686453767957,3.2310222930903563,54.12381903325918,0.1972721269899914,0.10677120901512419,0.11328125,,
1.4601200000001118,1200,,,,-0.0625,-0.021484375,-0.970703125,0.019006676243532705,0.637390640110014,22.565916157811344,0.2626602661671059,1624,0,5.927169544315324,3.232269120107894,54.53309705317817,0.19719603053620044,0.10753710271732106,0.11328125,,
1.4682249999996275,1200,,,,0,0.01953125,-0.95703125,0.019006676243532705,0.6421024251849925,22.565920390618412,0.263740568599019,1620,0,5.951548674781897,3.2247569440644344,54.18349273909971,0.1991165338419882,0.10788829265662071,0.11328125,,
1.4763150000004097,1200,,,,-0.0625,0.01953125,-1.033203125,0.019006676243532705,0.6421024251849925,22.565924402283233,0.2647657036194619,1619,0,5.974682852194105,3.2218133302532808,53.924424274170846,0.19929845691417325,0.10747054547827434,0.11328125,,
1.484195000000298,1200,,,,0.0625,0.08984375,-0.94140625,0.019006676243532705,0.6421024251849925,22.56596095964358,0.2644583092153458,1618,0,5.967755881206843,3.2206572379119955,53.96764381824363,0.19936999741123582,0.1075952900833373,0.11328125,,
1.492304999999702,1200,,,,-0.0625,0.03125,-0.97265625,0.019006676243532705,0.6421024251849925,22.565865426923587,0.2639569480327851,1618,0,5.95641696780929,3.2202041350145953,54.062772173569876,0.19939805001898805,0.10780011350030641,0.11328125,,
1.500285000000149,1200,,,,-0.0625,-0.06640625,-0.9453125,0.019006676243532705,0.6421024251849925,22.56610698739596,0.26302769542846804,1616,0,5.935511115687008,3.216447171270377,54.18989382008912,0.19963095645416304,0.10817980333453929,0.11328125,,
1.5084349999995903,1200,,,,-0.03125,0.08984375,-0.98046875,0.019006676243532705,0.6421024251849925,22.566197601945145,0.26343469763848587,1615,0,5.944719442118744,3.21503451459348,54.08219085689293,0.19971867246538164,0.10801223361958055,0.11328125,,
1.5164900000002235,1200,,,,-0.0625,0.08984375,-0.984375,0.019006676243532705,0.6421024251849925,22.566286466273407,0.26244351325472987,1615,0,5.922375501321456,3.214456962134122,54.27648012890912,0.19975455660127794,0.10841974222028315,0.11328125,,
1.5264049999993294,1200,,,,-0.0625,0.0390625,-1.005859375,0.019006676243532705,0.6421024251849925,22.56637008108386,0.26272811707743904,1614,0,5.928819920675818,3.211602814272977,54.16934326294888,0.19993207825431167,0.10830189376232566,0.11328125,,
1.5358150000004098,1200,,,,-0.03125,0.0078125,-0.955078125,0.019006676243532705,0.6421024251849925,22.56656498688748,0.26359297090239436,1613,0,5.948387907955623,3.21030071654256,53.96925631310913,0.2000131706902916,0.10794562074981992,0.11328125,,
1.5544400000004097,1200,,,,-0.03125,0.068359375,-0.986328125,0.01816403552818383,0.6421024251849925,22.56644519428124,0.2654719659396918,1613,0,5.990758569996151,3.068138408546234,51.214522713576905,0.20928078844045298,0.10718215693098862,0.11328125,,
1.5624599999999627,1200,,,,-0.125,0.15625,-0.921875,0.01816403552818383,0.6421024251849925,22.56651920775891,0.26431484849231396,1613,0,5.964666105397689,3.0682661451006763,51.44070247828403,0.20927207576509751,0.10765102586445295,0.115234375,,
1.5711899999994785,1200,,,,0,-0.064453125,-0.91796875,0.01816403552818383,0.6421024251849925,22.566600291861956,0.2638783244380568,1613,0,5.954836673279897,3.068321800093537,51.526548391519846,0.2092682798673262,0.10782872149393903,0.115234375,,
1.5793349999999629,1200,,,,-0.125,0.07421875,-0.95703125,0.01816403552818383,0.6421024251849925,22.5667337908391,0.2634043646302579,1613,0,5.9441761759561444,3.0677827925026615,51.60989011247125,0.2093050481781902,0.10802210536461895,0.115234375,,
1.5873649999992923,1200,,,,-0.03125,0.029296875,-0.9765625,0.01816403552818383,0.6421024251849925,22.566796268689256,0.263484204919803,1613,0,5.945994372442766,3.0675683145514547,51.590501477235996,0.20931968234874723,0.10798907381427615,0.115234375,,
1.5953499999996275,1200,,,,-0.03125,0.083984375,-0.970703125,0.01816403552818383,0.6421024251849925,22.566854910407855,0.2622913158347491,1613,0,5.919090068702745,3.0674844744464727,51.823581645865325,0.2093254034483287,0.1084799213615816,0.115234375,,
1.6031350000007079,1200,,,,-0.0625,0.00390625,-0.96875,0.01816403552818383,0.6421024251849925,22.56691103937765,0.26295624095485703,1612,0,5.934110096877412,3.066613643674954,51.67773421137968,0.2093848458899807,0.10820534413793118,0.115234375,,
1.611285000000149,1200,,,,-0.03125,0,-0.953125,0.01816403552818383,0.6421024251849925,22.567030231482743,0.26305799379858075,1612,0,5.936437698685772,3.0662687084280127,51.6516615529686,0.20940840032059024,0.10816291819707687,0.115234375,,
1.6195149999996648,1200,,,,-0.03125,0.07421875,-0.95703125,0.01816403552818383,0.6519927397080542,22.5667821965661,0.26299439434172645,1612,0,5.934937216027556,3.066132797424033,51.66243021314207,0.21264334677735305,0.1098567206317397,0.11328125,,
1.6284699999997392,1200,,,,-0.03125,0.09375,-1.041015625,0.01816403552818383,0.6519927397080542,22.567066699625627,0.2620406917149584,1612,0,5.913489767947503,3.0668631136444535,51.86215304315852,0.21259270973241123,0.11025515648002085,0.11328125,,
1.6363849999997764,1200,,,,-0.125,0.1953125,-0.92578125,0.01816403552818383,0.6519927397080542,22.567047041104146,0.26186684392783927,1613,0,5.909561385425026,3.067487318878901,51.90719105557242,0.21254944908666915,0.11032844862498399,0.115234375,,
1.6445649999994785,1200,,,,-0.03125,-0.0390625,-0.95703125,0.01816403552818383,0.6519927397080542,22.56709367346958,0.26170286384600816,1613,0,5.905873043028121,3.067731411144688,51.94374123511074,0.2125325370204984,0.11039735107034364,0.115234375,,
1.6524799999995157,1200,,,,-0.1875,0.046875,-1.01953125,0.01816403552818383,0.6519927397080542,22.566926533864557,0.2609440405827098,1613,0,5.8887049932797835,3.0675393657792105,52.09191782030005,0.21254584276294566,0.11071920574253782,0.115234375,,
1.6597900000000372,1200,,,,-0.0625,0.0703125,-0.9609375,0.01816403552818383,0.6519927397080542,22.566800058907347,0.2609796483933999,1612,0,5.889475544737795,3.066956052095343,52.07519801717568,0.2125862675021421,0.11070471975906328,0.115234375,,
1.6676550000002608,1200,,,,-0.03125,0.099609375,-1.029296875,0.01816403552818383,0.6519927397080542,22.566672752650387,0.2623489324752456,1612,0,5.920342506176041,3.0666945965446066,51.79927670308706,0.21260439185652397,0.11012753722067634,0.1171875,,
1.678144999999553,1200,,,,-0.0625,0.109375,-1,0.01816403552818383,0.6519927397080542,22.566608483191146,0.26279060840361096,1612,0,5.93029277290389,3.066581676753083,51.71046007651775,0.21261222052249015,0.10994275741108014,0.1171875,,
1.6888250000001863,1200,,,,-0.03125,-0.07421875,-0.962890625,0.017178771672551642,0.6519927397080542,22.566804275645953,0.26326260358213416,1613,0,5.940995648134991,2.901446568168248,48.83771576367129,0.22471299208507314,0.1097446923585492,0.1171875,,
1.6973799999998882,1200,,,,-0.0625,0.076171875,-1.005859375,0.017178771672551642,0.6519927397080542,22.56679587173797,0.26323743338400774,1613,0,5.940425424977125,2.901764961877091,48.84776348973802,0.2246883356418687,0.10975522678336878,0.1171875,,
1.705035000000149,1200,,,,0.0625,0.10546875,-0.98828125,0.017178771672551642,0.6519927397080542,22.56672389442879,0.26193433789820386,1614,0,5.910999881818782,2.9026545776789963,49.1059826715115,0.22461947236911559,0.11030159917841846,0.1171875,,
1.7122949999999255,1200,,,,-0.03125,-0.02734375,-0.9609375,0.017178771672551642,0.6519927397080542,22.566693027506933,0.2620664037002498,1614,0,5.913972085126244,2.903713015050736,49.099200558515165,0.2245375959430557,0.11024616456134935,0.1171875,,
1.7204199999999255,1200,,,,-0.0625,0.046875,-0.92578125,0.017178771672551642,0.6519927397080542,22.566626526643518,0.2625304328120253,1614,0,5.924426229147055,2.9042142849741794,49.02102199679684,0.22449884055778305,0.1100516260123847,0.1171875,,
1.7285099999997764,1200,,,,-0.03125,0.05078125,-0.955078125,0.017178771672551642,0.6519927397080542,22.56669396566481,0.2626527726592981,1614,0,5.927204739835714,2.904412625831889,49.00138856874365,0.2244835096463984,0.1100000368345848,0.1171875,,
1.7364550000000745,1200,,,,-0.1875,0.03125,-1.05859375,0.017178771672551642,0.6519927397080542,22.56669267286194,0.2628750601495473,1614,0,5.932220693754931,2.9034320220221437,48.94342560583922,0.22455932660478237,0.10990702695778516,0.1171875,,
1.744660000000149,1200,,,,0,0.087890625,-1.001953125,0.017178771672551642,0.6519927397080542,22.566756944014145,0.2620215175154476,1614,0,5.912975899872851,2.9030439806197443,49.096157836228784,0.22458934279351364,0.11026473822125238,0.1171875,,
1.7525200000004844,1200,,,,-0.03125,-0.00390625,-0.953125,0.017178771672551642,0.6519927397080542,22.566752613599274,0.26342855095450235,1614,0,5.944726940749185,2.9028921477017002,48.83137907989198,0.22460108971814707,0.10967580953783668,0.1171875,,
1.7610100000007078,1200,,,,-0.0625,0.16015625,-0.9140625,0.017178771672551642,0.6519927397080542,22.566977287227683,0.26314657350354836,1614,0,5.938422747466366,2.9031126838203045,48.88693188875649,0.22458402780634573,0.10979224070671417,0.1171875,,
1.7692999999998138,1200,,,,-0.03125,0.0078125,-0.982421875,0.017178771672551642,0.6569856234006186,22.56702879600296,0.2634050025274347,1614,0,5.944268277047851,2.903184086060711,48.840058199771256,0.22629830004754298,0.11052422144831299,0.1171875,,
1.7772900000000373,1200,,,,-0.03125,0.1015625,-0.95703125,0.017178771672551642,0.6569856234006186,22.566979845070186,0.26503385899006354,1614,0,5.981013754089938,2.903210849029759,48.540447629709675,0.22629621393850208,0.10984519521483437,0.1171875,,
1.7855300000002607,1200,,,,-0.1875,0.03125,-1.0078125,0.017178771672551642,0.6569856234006186,22.567028847848707,0.26368011295686344,1613,0,5.9504767157015435,2.9024371137916924,48.77654770302725,0.22635654026017613,0.11040890583892689,0.1171875,,
1.7940250000003726,1200,,,,0,-0.009765625,-0.943359375,0.017178771672551642,0.6569856234006186,22.566785652732328,0.26278639225485084,1613,0,5.930244186470058,2.9012548875745923,48.923025702615234,0.22644877780795372,0.11078559377024326,0.1171875,,
1.8085800000000745,1200,,,,-0.125,0.015625,-0.890625,0.017178771672551642,0.6569856234006186,22.566721447584495,0.2628132684261308,1612,0,5.930833821301746,2.9007230663733115,48.90919479070209,0.2264902951325265,0.11077457962840345,0.1171875,,
1.8164150000000372,1200,,,,-0.03125,0.119140625,-1.021484375,0.017178771672551642,0.6569856234006186,22.566497525990375,0.2627637350663876,1612,0,5.929657177295627,2.9003947299155106,48.91336283353754,0.22651593475339019,0.11079656104170492,0.1171875,,
1.8326550000002608,1200,,,,-0.03125,0.00390625,-0.890625,0.017178771672551642,0.6569856234006186,22.566628623156824,0.26153712993539474,1612,0,5.902011282418364,2.9002114573534725,49.13937501259915,0.22653024893575766,0.11131554854151636,0.1171875,,
1.8416299999998882,1200,,,,0,0.025390625,-0.974609375,0.01610765444016552,0.6569856234006186,22.566718533606096,0.2609121086611203,1612,0,5.887930118165151,2.7193534215128894,46.18521903178291,0.2415962626274264,0.11158176306707836,0.1171875,,
1.8661150000002236,1200,,,,-0.0625,0.064453125,-0.9609375,0.01610765444016552,0.6569856234006186,22.566723026877604,0.2614713053506647,1613,0,5.90055052732459,2.7201865909209832,46.100555843462324,0.24152226380109484,0.11134310609801812,0.1171875,,
1.881644999999553,1200,,,,-0.125,0.08984375,-1.0546875,0.01610765444016552,0.6569856234006186,22.566684760013086,0.2615292578954476,1615,0,5.90184831844673,2.724326189056485,46.16055923601716,0.24115527209616267,0.11131862222672752,0.1171875,,
1.896929999999702,1200,,,,-0.0625,0.0625,-0.9609375,0.01610765444016552,0.6569856234006186,22.566793300061676,0.26337182874757964,1614,0,5.943457620405871,2.723105180796693,45.81685198607903,0.24126340327713883,0.11053929637606365,0.1171875,,
1.9046900000004099,1200,,,,0,-0.015625,-0.984375,0.01610765444016552,0.6569856234006186,22.5664915103433,0.26807689077880015,1614,0,6.049554879879022,2.7225914870219343,45.004823347868864,0.24130892443186636,0.10860065516320383,0.115234375,,
1.9151849999995902,1200,,,,-0.0625,0.03125,-1.01953125,0.01610765444016552,0.6569856234006186,22.566356618961073,0.27143596153262417,1614,0,6.1253207071557965,2.7223479911485295,44.44417070224903,0.24133050790595048,0.10725734289032521,0.115234375,,
1.9238700000001117,1200,,,,-0.0625,-0.009765625,-0.982421875,0.01610765444016552,0.6767379845923648,22.56669388914617,0.2697559169223052,1619,0,6.087499201971607,2.7307761597401523,44.85875183122347,0.24781891484535298,0.11116847200130792,0.1171875,,
1.930679999999702,1200,,,,-0.03125,0.107421875,-0.970703125,0.01610765444016552,0.6767379845923648,22.56662707778406,0.2679251486844279,1620,0,6.046166915121331,2.7333238661081207,45.20754892280823,0.24758792508402858,0.111928432359328,0.115234375,,
1.9381500000003726,1200,,,,0,-0.041015625,-0.98046875,0.01610765444016552,0.6767379845923648,22.566510710600774,0.26520006653016925,1621,0,5.9846401418051025,2.7342715075561865,45.68815238290115,0.24750211627564878,0.1130791440349236,0.115234375,,
1.9455750000001863,1200,,,,-0.125,0.0703125,-0.95703125,0.01610765444016552,0.6767379845923648,22.566404777675007,0.2632689506728816,1622,0,5.9410337062780005,2.7362804578667492,46.05731246694108,0.24732040264613855,0.11390913064122885,0.115234375,,
1.9534550000000745,1200,,,,0.0625,0.01953125,-0.9609375,0.01610765444016552,0.6767379845923648,22.5665481742465,0.26186839886526503,1623,0,5.909465838305801,2.7372477725865987,46.31971564745261,0.24723300220384223,0.11451762360747997,0.115234375,,
1.9612900000000373,1200,,,,-0.09375,0.0625,-1.044921875,0.01610765444016552,0.6767379845923648,22.56661937149393,0.2626617104150698,1623,0,5.927386842402443,2.737630622366581,46.18613050159867,0.24719842737854447,0.11417138826695417,0.115234375,,
1.9695299999993294,1200,,,,-0.0625,0.072265625,-1.001953125,0.01610765444016552,0.6767379845923648,22.566688151083866,0.2634271338338805,1622,0,5.944677979763015,2.73576554006828,46.02041606595723,0.24736695256987357,0.11383930078233488,0.1171875,,
1.9775300000002607,1200,,,,0.0625,-0.015625,-0.91796875,0.01610765444016552,0.6767379845923648,22.566556850968283,0.26414181829822786,1619,0,5.9607713593450935,2.7310478615305778,45.8170209338584,0.24779426026356652,0.11353194809785787,0.1171875,,
1.988644999999553,1200,,,,-0.0625,0.046875,-0.970703125,0.015325372125896904,0.6767379845923648,22.566627148625386,0.2647126514710353,1618,0,5.973671707270874,2.596641671260331,43.46810133706913,0.26062047454699316,0.11328677198123742,0.1171875,,
1.9970499999998137,1200,,,,-0.0625,0.056640625,-1.015625,0.015325372125896904,0.6767379845923648,22.566719087645247,0.264878774396502,1617,0,5.97744489408562,2.5958255102820385,43.4270086345836,0.2607024169813466,0.11321526113305751,0.115234375,,
2.0060349999992177,1200,,,,0,0.083984375,-1.005859375,0.015325372125896904,0.6767379845923648,22.566791626329234,0.2647641428676946,1616,0,5.974877242218928,2.5935618747035076,43.40778512363745,0.2609299555152231,0.11326391441325084,0.115234375,,
2.013834999999963,1200,,,,-0.03125,0.0078125,-0.97265625,0.015325372125896904,0.6767379845923648,22.566714395986487,0.2647779036790622,1616,0,5.975167330693416,2.59279455144638,43.39283584792072,0.26100717629742365,0.11325841556203409,0.115234375,,
2.0223250000001864,1200,,,,-0.03125,0.06640625,-0.994140625,0.015325372125896904,0.6767379845923648,22.566879143532212,0.26609534216018277,1615,0,6.004941427185696,2.592041094088707,43.16513533927183,0.2610830461506583,0.1126968502188252,0.1171875,,
2.0297450000001116,1200,,,,-0.1875,0.046875,-1.015625,0.015325372125896904,0.6767379845923648,22.566758091658556,0.2653194909445437,1614,0,5.987400769147511,2.5909086439615026,43.27267780891169,0.2611971619183112,0.11302700632293218,0.1171875,,
2.037540000000037,1200,,,,0,0.0859375,-0.966796875,0.015325372125896904,0.6767379845923648,22.56672050893443,0.26659903532228024,1614,0,6.016265918069436,2.5903560268077737,43.05587655339202,0.26125288477288705,0.11248471955998975,0.1171875,,
2.0457799999993296,1200,,,,-0.125,0.08984375,-0.890625,0.015325372125896904,0.6767379845923648,22.566717915169864,0.2673722605848372,1614,0,6.033714382959311,2.5901422033284867,42.9278225473132,0.26127445192882315,0.11215943308547034,0.1171875,,
2.0537400000002237,1200,,,,0,-0.037109375,-0.92578125,0.015325372125896904,0.6767379845923648,22.56678067798754,0.26725741952118043,1613,0,6.031139570899385,2.589350687205679,42.93302545508072,0.26135431864683906,0.11220731615260021,0.1171875,,
2.06281500000041,1200,,,,-0.03125,0.037109375,-1.021484375,0.015325372125896904,0.6767379845923648,22.566923673310274,0.2660385032223613,1613,0,6.003670596380736,2.5890154855309953,43.123876368096575,0.26138815637619445,0.11272070539651705,0.1171875,,
2.070825000000186,1200,,,,-0.125,0.125,-0.9921875,0.015325372125896904,0.6870543909775393,22.56678016659626,0.2672673747845693,1613,0,6.031364092466668,2.5889047263863176,42.92403321530411,0.2653841927727304,0.11391359905393347,0.1171875,,
2.0784050000002607,1200,,,,-0.03125,0.0546875,-0.951171875,0.015325372125896904,0.6870543909775393,22.566839409935483,0.26652649726998084,1612,0,6.014660662384266,2.5869860382528387,43.01133818623999,0.26558102008217727,0.1142299507060112,0.1171875,,
2.086760000000708,1200,,,,-0.03125,0.013671875,-0.919921875,0.015325372125896904,0.6870543909775393,22.566895916654328,0.2683539403104779,1611,0,6.055915439810622,2.586221707892213,42.70571036858943,0.26565950973224683,0.11345178079286797,0.1171875,,
2.0948799999998884,1200,,,,-0.125,-0.046875,-1.0078125,0.015325372125896904,0.6870543909775393,22.566884642244837,0.268725447367417,1611,0,6.064296171176136,2.5859157708926306,42.64164707494995,0.26569093963194923,0.11329499278797411,0.1171875,,
2.1031849999995904,1200,,,,-0.03125,0.060546875,-0.978515625,0.015325372125896904,0.6870543909775393,22.56694559439155,0.2667456397264097,1612,0,6.019634339247057,2.5870357208167993,42.9766257387054,0.26557591974826583,0.11413556908233681,0.1171875,,
2.1107900000000375,1200,,,,-0.03125,0.1328125,-1.048828125,0.015325372125896904,0.6870543909775393,22.567079740800796,0.2658121174697303,1614,0,5.998603251010513,2.5896147051362326,43.1702947632016,0.26531143401944624,0.11453572810667208,0.1171875,,
2.118660000000149,1200,,,,-0.125,0.1484375,-0.921875,0.015325372125896904,0.6870543909775393,22.56705939076648,0.26513073775205676,1614,0,5.983221105168398,2.590798891720674,43.3010722181519,0.2651901670844214,0.11483018576466299,0.1171875,,
2.126304999999702,1200,,,,0,-0.013671875,-0.974609375,0.015325372125896904,0.6870543909775393,22.566821256848552,0.2663522518839882,1615,0,6.010723659625064,2.591252420168957,43.11048996603836,0.26514375273897145,0.11430477092011185,0.1171875,,
2.1339449999993665,1200,,,,-0.125,-0.015625,-1.01953125,0.014298474013567127,0.6870543909775393,22.566683284263522,0.2650131941539155,1614,0,5.980468818622448,2.4173571018863913,40.42086289889242,0.28421716859350016,0.11488303205229262,0.1171875,,
2.1451399999996648,1200,,,,-0.0625,0.064453125,-0.9609375,0.014298474013567127,0.6870543909775393,22.5663466132829,0.2656697709413716,1614,0,5.995196135734465,2.4172508307760197,40.31979565052019,0.28422966381067355,0.11460081962662412,0.1171875,,
2.154415000000037,1200,,,,-0.03125,0.072265625,-1.015625,0.014298474013567127,0.6870543909775393,22.566547437722406,0.26795947494965744,1614,0,6.046920202838633,2.417203844929118,39.97413168763826,0.2842351886949305,0.11362054863151862,0.1171875,,
2.1624550000000746,1200,,,,0,-0.037109375,-0.951171875,0.014298474013567127,0.6870543909775393,22.566410500156998,0.2685018159650408,1614,0,6.059122199104719,2.416036162444484,39.87435940475787,0.28437256099776054,0.11339173702076133,0.1171875,,
2.170905000000261,1200,,,,-0.125,0.1171875,-0.99609375,0.014298474013567127,0.6870543909775393,22.566488302774314,0.2686502450541166,1613,0,6.062492612551176,2.4156298756416414,39.84548980134943,0.2844203898558935,0.11332869743298836,0.119140625,,
2.179549999999814,1200,,,,0,0.037109375,-0.990234375,0.014298474013567127,0.6870543909775393,22.56642436363325,0.2689307247946228,1613,0,6.068804860134925,2.4154588246529793,39.801227429798715,0.2844405311178285,0.11321082269273432,0.1171875,,
2.188594999999739,1200,,,,-0.0625,0.10546875,-1.02734375,0.014298474013567127,0.6870543909775393,22.5664039725022,0.2682707854263739,1614,0,6.053906917952009,2.416494462210313,39.91628042784303,0.2843186283775326,0.11348942101177278,0.1171875,,
2.1977099999999625,1200,,,,-0.03125,0.025390625,-1.021484375,0.014298474013567127,0.6870543909775393,22.56649197903573,0.2679723700762853,1614,0,6.0471963399296875,2.416937315632307,39.967898837238835,0.28426653291080317,0.11361536030191602,0.1171875,,
2.2059150000000374,1200,,,,-0.0625,-0.01171875,-0.931640625,0.014298474013567127,0.6870543909775393,22.56650256453858,0.26936462172154274,1614,0,6.078617426875159,2.4171024422096785,39.7640165923757,0.2842471129810471,0.11302806916913244,0.1171875,,
2.213729999999516,1200,,,,0.0625,0.015625,-1.0546875,0.014298474013567127,0.6870543909775393,22.56630359246733,0.2694605535957954,1613,0,6.0807286586370335,2.415900870279383,39.7304501796483,0.2843884860632076,0.11298882577199873,0.1171875,,
2.221735000000335,1200,,,,-0.0625,0.078125,-1.0234375,0.014298474013567127,0.7009470139925237,22.566483645855193,0.2694029780042899,1613,0,6.079477897278495,2.4153580152249394,39.72969481978354,0.2902041890163622,0.11529723865042849,0.1171875,,
2.2298549999995156,1200,,,,-0.09375,0.064453125,-0.982421875,0.014298474013567127,0.7009470139925237,22.56636093050062,0.269293765413917,1613,0,6.076980306664015,2.415140887708353,39.74245045783529,0.2902302791360669,0.11534462489928846,0.1171875,,
2.237785000000149,1200,,,,0.125,-0.05078125,-0.9375,0.014298474013567127,0.7009470139925237,22.566310492573045,0.26801538674698705,1613,0,6.048118434119557,2.4154970676744694,39.93799218692219,0.29018748288829993,0.11589505424335539,0.1171875,,
2.2457749999994414,1200,,,,-0.03125,0.025390625,-0.962890625,0.014298474013567127,0.7009470139925237,22.56639157194855,0.2684964467846291,1613,0,6.058995953818786,2.4156353533041584,39.86857511897929,0.2901708707954424,0.11568699159647729,0.119140625,,
2.253089999999851,1200,,,,-0.09375,0.125,-0.990234375,0.014298474013567127,0.7009470139925237,22.566340003892233,0.2680086212728587,1613,0,6.047973671617713,2.41569146518879,39.94216238945101,0.2901641306820379,0.11589782827295844,0.119140625,,
2.2605099999997766,1200,,,,0.0625,0.0703125,-1.03125,0.014298474013567127,0.7009470139925237,22.566237551484935,0.2681630387931963,1614,0,6.051430835935338,2.4160229278790735,39.924820978403226,0.29012432204352306,0.11583161619068262,0.119140625,,
2.2676450000004844,1200,,,,-0.125,0.05078125,-0.9453125,0.014298474013567127,0.7009470139925237,22.56642911035154,0.26746438121105565,1614,0,6.035715998143328,2.4164728931391224,40.03622592385831,0.29007029873277723,0.11613320013866542,0.119140625,,
2.2753700000001116,1200,,,,-0.03125,-0.0234375,-0.8828125,0.014298474013567127,0.7009470139925237,22.566505908629708,0.26654924114974277,1614,0,6.015085025346435,2.4166827027948403,40.17703311942216,0.2900451156380165,0.1165315221711522,0.119140625,,
2.283109999999404,1200,,,,-0.0625,0.0625,-0.9765625,0.014298474013567127,0.7009470139925237,22.566396565113347,0.26761943656090414,1614,0,6.039206333965557,2.416760593135902,40.01785101369391,0.290035767706308,0.11606608140713369,0.119140625,,
2.290875,1200,,,,-0.03125,0.02734375,-1.005859375,0.013027578238771192,0.7009470139925237,22.566573165364574,0.26765174672635134,1613,0,6.039982725337835,2.2007799155827215,36.43685778024514,0.31849936880532065,0.11605116204257315,0.119140625,,
2.3018549999995157,1200,,,,-0.03125,0.099609375,-1.013671875,0.013027578238771192,0.7009470139925237,22.566643947350986,0.2673600419886392,1613,0,6.033418873306431,2.200314925591822,36.46879110824949,0.31856667690602924,0.11617741594135186,0.119140625,,
2.3183849999997763,1200,,,,-0.1875,-0.03125,-0.9453125,0.013027578238771192,0.7009470139925237,22.566734653454294,0.2691280689443123,1612,0,6.0733417196628485,2.1994722190230136,36.21518960314839,0.3186887326559998,0.11541372877524099,0.119140625,,
2.3267000000001863,1200,,,,0,0.0390625,-0.970703125,0.013027578238771192,0.7009470139925237,22.56650991406621,0.27465472022612375,1612,0,6.197998466927903,2.1991836142121897,35.4821580861448,0.3187305550399087,0.11309247940810717,0.119140625,,
2.3347649999996647,1200,,,,0,0.076171875,-0.99609375,0.013027578238771192,0.7009470139925237,22.56638694870939,0.27673669250263283,1612,0,6.244947285920417,2.1990866559710547,35.213854581751534,0.3187446079440673,0.11224226272859789,0.119140625,,
2.3416150000002234,1200,,,,-0.25,0.09765625,-0.984375,0.013027578238771192,0.7009470139925237,22.56634278502783,0.274882872200374,1615,0,6.203101119806638,2.20385769098821,35.528321212614834,0.31805457169887363,0.11299944986458217,0.12109375,,
2.3497200000006706,1200,,,,0.03125,-0.009765625,-0.890625,0.013027578238771192,0.7009470139925237,22.56642513771417,0.27277757349685067,1621,0,6.155614691564005,2.211477780681757,35.92618920272071,0.3169586509598279,0.11387116463821888,0.12109375,,
2.3670649999994784,1200,,,,-0.125,0.01953125,-0.8828125,0.013027578238771192,0.7009470139925237,22.566180646023742,0.2707421003929851,1624,0,6.109615145951997,2.21566514262236,36.265216215629835,0.31635963418322083,0.11472850535552065,0.12109375,,
2.37556500000041,1200,,,,-0.03125,0.087890625,-1,0.013027578238771192,0.7305256321506531,22.56617075714344,0.2693452466424432,1626,0,6.078090828358289,2.218062489855208,36.49274998501978,0.32935304370001806,0.12018998280550053,0.12109375,,
2.3837649999996646,1200,,,,-0.03125,0.0546875,-0.958984375,0.013027578238771192,0.7305256321506531,22.566195047454574,0.2690280269099399,1626,0,6.070938928481561,2.2188655742985235,36.54896879111741,0.329233839405347,0.12033157321405791,0.12109375,,
2.391799999999814,1200,,,,-0.125,-0.03125,-0.9765625,0.013027578238771192,0.7305256321506531,22.56621829119934,0.26754998756061665,1627,0,6.037591423100544,2.2191843062285184,36.75611929846155,0.32918655296016136,0.12099620212053024,0.12109375,,
2.400104999999516,1200,,,,-0.03125,0.078125,-0.984375,0.013027578238771192,0.7305256321506531,22.566404080773225,0.26742577788409944,1622,0,6.034838165347695,2.213209940308652,36.67389049497632,0.33007516315816604,0.12105140388774024,0.12109375,,
2.408019999999553,1200,,,,-0.0625,0.080078125,-0.990234375,0.013027578238771192,0.7305256321506531,22.56628601565586,0.2676276185018692,1621,0,6.039361384802013,2.210855856398548,36.60744432287398,0.33042662190590244,0.12096074164215657,0.12109375,,
2.415890000000596,1200,,,,-0.25,0.1015625,-0.97265625,0.013027578238771192,0.7305256321506531,22.56623941907205,0.2673944710372419,1620,0,6.034087652762528,2.2099323261036807,36.624133643334275,0.3305647071277693,0.12106646011617078,0.12109375,,
2.4235300000002606,1200,,,,-0.03125,0.015625,-0.9296875,0.013027578238771192,0.7305256321506531,22.566326748243032,0.2663079007611453,1619,0,6.009591104214684,2.2091572735233744,36.76052555346127,0.33068068122897437,0.12155995632353694,0.12109375,,
2.430584999999963,1200,,,,-0.03125,0.06640625,-1.00390625,0.013027578238771192,0.7305256321506531,22.566571869221587,0.2668149427506862,1619,0,6.021098581365603,2.2086878814870237,36.68247333339769,0.33075095774004004,0.12132763187294765,0.12109375,,
2.440020000000484,1200,,,,-0.125,0.140625,-0.9140625,0.012207349667402851,0.7305256321506531,22.566649350264576,0.2658357968213361,1619,0,5.99902321161527,2.069410652644107,34.49579339245308,0.35301143889312303,0.1217740966122975,0.12109375,,
2.4480699999993667,1200,,,,0,0.05078125,-1.037109375,0.012207349667402851,0.7305256321506531,22.566716113015918,0.2656883701712515,1618,0,5.99571402418452,2.067818820503115,34.488282999527485,0.3532831914030607,0.12184130684084993,0.12109375,,
2.457985000000335,1200,,,,-0.03125,0.02734375,-0.943359375,0.012207349667402851,0.7305256321506531,22.56658296016476,0.2662943393572279,1616,0,6.009353300927151,2.0656867048991847,34.37452586754187,0.35364783556870805,0.12156476671756748,0.12109375,,
2.465145000000484,1200,,,,-0.125,-0.0546875,-0.96875,0.012207349667402851,0.7305256321506531,22.5661910140155,0.2659278754245844,1615,0,6.00097923278249,2.0647615063954086,34.407076350404814,0.35380630154519893,0.1217344043052001,0.123046875,,
2.4735049999998884,1200,,,,0,0.015625,-0.9765625,0.012207349667402851,0.7305256321506531,22.56618221387923,0.26709755040836314,1615,0,6.027371991395915,2.0641225546030646,34.24581322589022,0.35391582274102656,0.12120135163276465,0.12109375,,
2.484225000000559,1200,,,,-0.09375,0.1171875,-1,0.012207349667402851,0.7305256321506531,22.566362645359206,0.26686064781830443,1614,0,6.022074154443343,2.062961161045004,34.256654902245984,0.354115068157949,0.12130797685572174,0.12109375,,
2.492325000000186,1200,,,,-0.0625,0.072265625,-1.01171875,0.012207349667402851,0.7305256321506531,22.566306415733322,0.2668788289761173,1614,0,6.022469430547152,2.0626230955505984,34.24879311281461,0.3541731078869967,0.12130001498144319,0.12109375,,
2.501070000000298,1200,,,,-0.0625,-0.005859375,-0.98046875,0.012207349667402851,0.7305256321506531,22.566190810466626,0.2667857881843641,1614,0,6.020339001689093,2.063267951321565,34.27162408533282,0.35406241427960766,0.12134293964936088,0.123046875,,
2.5192849999992175,1200,,,,-0.0625,0.060546875,-1.01171875,0.012207349667402851,0.752043329816788,22.566307154841514,0.2670647843999366,1615,0,6.026665955010495,2.064167144071927,34.25056506335488,0.36433257450908374,0.1247859654792296,0.123046875,,
2.527140000000596,1200,,,,-0.0625,0.048828125,-0.986328125,0.012207349667402851,0.752043329816788,22.566484607568757,0.2668102481693295,1614,0,6.020969358454775,2.063314569376452,34.268810328341914,0.364483119044742,0.12490402874426731,0.123046875,,
2.535785000000149,1200,,,,-0.03125,0.009765625,-0.96875,0.012207349667402851,0.752043329816788,22.5665669102562,0.26718425596673206,1613,0,6.029431389640278,2.061961208538687,34.19826970884075,0.3647223462316061,0.12472873165269663,0.12109375,,
2.5439900000002234,1200,,,,-0.0625,0.0625,-1,0.012207349667402851,0.752043329816788,22.566440232218554,0.26772042862831874,1613,0,6.041497051584888,2.0614931292007097,34.122223541595716,0.3648051595051269,0.12447963201761418,0.12109375,,
2.5517400000002235,1200,,,,-0.0625,0.041015625,-1,0.012207349667402851,0.752043329816788,22.566320390892603,0.2682279726804714,1613,0,6.052918369307106,2.061560826441637,34.058956368804125,0.364793180085234,0.12424475004160289,0.12109375,,
2.5599500000001862,1200,,,,0,0.0625,-1.00390625,0.012207349667402851,0.752043329816788,22.566270022280197,0.2679539647370274,1613,0,6.0467215217963055,2.062099323081847,34.102766526434266,0.3646979179901212,0.12437207949893775,0.123046875,,
2.5682949999999254,1200,,,,-0.0625,0.03125,-0.95703125,0.012207349667402851,0.752043329816788,22.566351438346878,0.2676629864106189,1613,0,6.040177018379491,2.0622966923391335,34.14298432088707,0.364663015079461,0.1245068360626544,0.12109375,,
2.576870000000112,1200,,,,-0.03125,-0.00390625,-0.9296875,0.012207349667402851,0.752043329816788,22.566368785747397,0.26680406853777344,1613,0,6.02079900416122,2.0623837772184266,34.25432032846519,0.3646476170555812,0.12490756281633386,0.123046875,,
2.5851500000003726,1200,,,,-0.03125,0.025390625,-1.01171875,0.01184532481878859,0.752043329816788,22.56654728955079,0.26735699849270306,1613,0,6.033324349677943,2.0010671467443673,33.166908171465764,0.37582113675711665,0.12464825131719162,0.12109375,,
2.593495000000112,1200,,,,0,0.14453125,-0.91015625,0.01184532481878859,0.752043329816788,22.56655319498151,0.26830800903286856,1613,0,6.0547869584798075,2.0010064547479964,33.048337926168664,0.3758325356883964,0.1242064064307897,0.12109375,,
2.6025049999998884,1200,,,,-0.0625,0.0625,-1,0.01184532481878859,0.752043329816788,22.566523186936116,0.26795223638274984,1613,0,6.046750355322712,2.0009813784166726,33.09184703905113,0.3758372456278736,0.12437148643895879,0.12109375,,
2.6131850000005215,1200,,,,-0.03125,-0.0078125,-0.91015625,0.01184532481878859,0.752043329816788,22.566465223127974,0.2686574537778347,1614,0,6.062649087611617,2.001519198386544,33.01393779291031,0.37573625595149013,0.12404533380523525,0.12109375,,
2.622854999999516,1200,,,,-0.03125,0.068359375,-0.98828125,0.01184532481878859,0.752043329816788,22.566286917962834,0.2700433250716617,1614,0,6.093875153847824,2.001773110807107,32.84893536985473,0.3756885961534207,0.12340970414235171,0.12109375,,
2.630375,1200,,,,-0.0625,0.0703125,-0.982421875,0.01184532481878859,0.752043329816788,22.566308110777147,0.26771102239150396,1614,0,6.0412494159378385,2.0018364935613002,33.13613386462934,0.3756767009871473,0.1244847345373244,0.12109375,,
2.638019999999553,1200,,,,-0.09375,0.08984375,-0.970703125,0.01184532481878859,0.752043329816788,22.566381086496968,0.2687185768107232,1614,0,6.064005809331887,2.001856129880313,33.01210771928451,0.37567301595332486,0.1240175806987965,0.12109375,,
2.6460400000000375,1200,,,,0,-0.05078125,-1,0.01184532481878859,0.752043329816788,22.56626415114442,0.26704530586446307,1614,0,6.026214912460629,2.0018653321848845,33.219282107671816,0.3756712890352068,0.12479530530213251,0.12109375,,
2.6531450000004844,1200,,,,-0.0625,0.0234375,-0.96484375,0.01184532481878859,0.752043329816788,22.566251492874684,0.2669476586648777,1614,0,6.024008000865698,2.0018689269066643,33.231511754615525,0.37567061444870087,0.1248410243991564,0.12109375,,
2.661415000000037,1200,,,,0,0.16796875,-0.90625,0.01184532481878859,0.752043329816788,22.566152309517136,0.2666715623566367,1614,0,6.01775109275676,2.0015262750794798,33.26036993269143,0.37573492748024234,0.1249708268462585,0.12109375,,
2.6701450000004843,1200,,,,-0.03125,0.048828125,-1.01171875,0.01184532481878859,0.7703047938213625,22.566144010550232,0.2660421725748939,1613,0,6.003545979204713,2.0013605557675502,33.33630762052845,0.3848905643720652,0.12830830254145975,0.12109375,,
2.6776699999999254,1200,,,,-0.0625,0.033203125,-0.921875,0.01184532481878859,0.7703047938213625,22.566137095825052,0.2659925772360481,1613,0,6.002424964380495,2.001304999898518,33.3416079630255,0.3849012488653269,0.12833226544146645,0.12109375,,
2.6860750000001863,1200,,,,-0.0625,-0.11328125,-0.97265625,0.01184532481878859,0.7703047938213625,22.56616306363779,0.2660513702751978,1613,0,6.00375860493439,2.000827515782147,33.32624856265373,0.3849931029763159,0.1283037584469605,0.12109375,,0.24172999999951572,5437,
2.694639999999665,1200,,,,-0.03125,0.083984375,-0.966796875,0.01184532481878859,0.7703047938213625,22.56582576875198,0.2674210630306511,1612,0,6.034577115244114,2.0001456223564187,33.14475205402206,0.3851243555525964,0.1276485127475584,0.12109375,,
2.701199999999255,1500,,,,-0.0625,0.06640625,-1.005859375,0.01184532481878859,0.7703047938213625,22.565833218918,0.2675950382773183,1612,0,6.038505003975943,1.9999321895083793,33.119657733024326,0.38516545604014596,0.1275654807463386,0.12109375,,
2.7086499999994413,1500,,,,-0.0625,0.0390625,-1,0.01184532481878859,0.7703047938213625,22.565750986164478,0.2680640372681925,1612,0,6.049066313339946,1.9998344448383627,33.06021692022367,0.38518428153367595,0.1273427590176383,0.12109375,,
2.7156399999996648,1500,,,,-0.0625,0.09375,-0.96875,0.01184532481878859,0.7703047938213625,22.56579003347097,0.26793459562263283,1612,0,6.046155827523283,1.9994577331354917,33.06990077949313,0.3852568529235138,0.1274040590080038,0.12109375,,
2.7256349999997767,1500,,,,-0.03125,-0.017578125,-0.94140625,0.01184532481878859,0.7703047938213625,22.56580171604354,0.2666963841691557,1612,0,6.018217723546941,1.999267157093015,33.22025305383455,0.3852935767430928,0.12799550119422565,0.12109375,,
2.732519999999553,1500,,,,0,0.025390625,-0.978515625,0.01184532481878859,0.7703047938213625,22.56597568902213,0.28530728906219677,1612,0,6.438237348878342,1.9992028270551514,31.052021208933045,0.38530597465992494,0.11964529297068607,0.12109375,,
2.745820000000298,1500,,,,-0.25,-0.015625,-0.779296875,0.011680973832523922,0.7703047938213625,22.53379559734814,0.9437202221815975,1629,0,21.26559858772409,1.9921100347772056,9.367759043129796,0.3866778342429825,0.03622304778507544,0.125,,
2.753050000000745,1500,,,,0.1875,0.111328125,-1.224609375,0.011680973832523922,0.7703047938213625,22.51561695979152,1.450144446801866,1638,0,32.65089690055959,2.0034202623120683,6.135881254391308,0.38449486027079716,0.023592148055453895,0.130859375,,
2.7623450000006704,1500,,,,-0.15625,-0.796875,-1.314453125,0.011680973832523922,0.7703047938213625,22.503519279819937,1.7701903063404432,1933,0,39.835511687682526,2.3642678238086186,5.935075824668445,0.3258111395266853,0.019337138176125077,0.140625,,
2.7730800000000744,1500,,,,0.125,-0.47265625,-0.69140625,0.011680973832523922,0.7703047938213625,22.49042623779651,2.1516484410672096,2090,0,48.39149055349193,2.556751120692577,5.283472551576699,0.301282665953306,0.01591818695830144,0.1484375,,
2.7820649999994784,1500,,,,-0.01953125,0.203125,-1.052734375,0.011680973832523922,0.7703047938213625,22.48267839153978,2.3811863248700296,2469,0,53.53544633238543,3.0206649567954997,5.6423643842270454,0.255011662941443,0.0143886872454331,0.15234375,,
2.7902299999995157,1500,,,,-0.3125,0.044921875,-0.84375,0.011680973832523922,0.7703047938213625,22.477906687964353,2.512568579098601,2723,0,56.477282068089536,3.3314411762998706,5.898727867753009,0.2312226910387523,0.013639197312871321,0.16015625,,
2.7978849999997766,1500,,,,0.25,0.62109375,-1.21484375,0.011680973832523922,0.7703047938213625,22.47462313532611,2.606556074817866,2890,0,58.58136546262642,3.535565400082433,6.035307255407085,0.21787315652636563,0.013149314423420181,0.166015625,,
2.805945000000298,1500,,,,-0.28125,-0.3828125,-0.8203125,0.011680973832523922,0.7703047938213625,22.472446695775634,2.6793362741515,3844,0,60.21124160092767,4.701627838683063,7.808554870608457,0.16383789194959478,0.012793371691732303,0.169921875,,
2.814110000000335,1500,,,,-0.125,0.546875,-1.40234375,0.011680973832523922,0.7703047938213625,22.470937211216146,2.735230631805911,4891,0,61.4631957855057,5.982466372081648,9.733412484699402,0.12876040514262493,0.012532781349501785,0.17578125,,
2.8219749999996275,1500,,,,0.03125,-0.330078125,-0.982421875,0.011680973832523922,0.7924114621445593,22.469828151225443,2.7747886069187713,4520,0,62.349023153443035,5.5289171387292475,8.867688472235399,0.1433212765287861,0.012709284317003782,0.18359375,,
2.8296399999996646,1500,,,,-0.5,-0.11328125,-0.95703125,0.011680973832523922,0.7924114621445593,22.468944029489876,2.793734536977087,4100,0,62.77226494459098,5.015621139813541,7.990186660049346,0.15798869971546886,0.012623592009050815,0.189453125,,
2.838584999999963,1500,,,,0.3125,0.390625,-1.259765625,0.011680973832523922,0.7924114621445593,22.469038982260788,2.7992088260810997,3732,0,62.89553223270469,4.5649073462936025,7.257919893902928,0.17358763322719878,0.012598851365352113,0.203125,,
2.8458549999995157,1500,,,,-0.21875,0.15234375,-1.01171875,0.011680973832523922,0.7924114621445593,22.46918261324337,2.8022893996810905,3659,0,62.96515225659056,4.476001779155964,7.108696824738418,0.17703555566816234,0.012584920924440671,0.216796875,,
2.8535099999997766,1500,,,,0.5625,0.05859375,-1.09765625,0.011680973832523922,0.7924114621445593,22.469521411545678,2.8010851531291316,3642,0,62.93904282379773,4.455339046990411,7.0788160211832984,0.17785660166083983,0.012590141613099692,0.224609375,,
2.8613150000004097,1500,,,,-0.5,-0.48046875,-0.7734375,0.011680973832523922,0.7924114621445593,22.46997512097538,2.7938868764028535,3648,0,62.77856860359174,4.461894989369143,7.107353812960089,0.17759527376429726,0.012622324461523693,0.236328125,,
2.8693349999999627,1500,,,,1.125,1.44140625,-1.56640625,0.011680973832523922,0.7924114621445593,22.470725632258063,2.7818724030939497,3678,0,62.51069151387455,4.499438019346765,7.197869533003155,0.17611342988553996,0.012676414913258154,0.25,,
2.8773149999994785,1500,,,,-0.96875,-0.80859375,-0.509765625,0.011680973832523922,0.7924114621445593,22.471578016438198,2.771410398770478,3699,0,62.27796499153889,4.524382462772014,7.26482065267659,0.1751424572667674,0.012723785407121388,0.263671875,,
2.8849300000006335,1500,,,,0.78125,0.439453125,-1.21484375,0.011680973832523922,0.7924114621445593,22.472176521671436,2.7528995237180545,3715,0,61.863644043417345,4.543970897375157,7.345139407219679,0.17438744218240898,0.012809000736982556,0.2890625,,
2.8922700000004844,1500,,,,-1.3125,-1.16796875,-0.4375,0.011680973832523922,0.7924114621445593,22.472778717325184,2.7386895716360127,3739,0,61.54596471882221,4.574023862019429,7.431882630999826,0.1732416546237059,0.012875116439635905,0.3046875,,
2.900375,1500,,,,0.6875,1.01171875,-1.451171875,0.011997808847899184,0.7924114621445593,22.473522982828236,2.72054868490064,3750,0,61.14031339601767,4.711850420877229,7.706618038343474,0.16817415481475154,0.01296053975078532,0.3203125,,
2.909530000000261,1500,,,,-0.5625,-0.95703125,-0.64453125,0.011997808847899184,0.7924114621445593,22.474397204129314,2.700100596575533,3759,0,60.68313329854505,4.723179850258162,7.78334867288635,0.1677707576816596,0.013058183041506827,0.345703125,,
2.9192750000003724,1500,,,,1.875,1.015625,-1.8125,0.011997808847899184,0.7924114621445593,22.4751956242326,2.6776076652344134,3771,0,60.17975608108816,4.7384172136556675,7.873772713985365,0.1672312560111644,0.013167409005062072,0.36328125,,
2.9265999999996275,1500,,,,-0.96875,-0.517578125,-0.375,0.011997808847899184,0.7924114621445593,22.476217590323817,2.6542828309333486,3785,0,59.65823845431863,4.755244062901655,7.970808703215114,0.16663949350709648,0.013282515251457227,0.375,,
2.934089999999851,1500,,,,0.5,0.24609375,-1.099609375,0.011997808847899184,0.7924114621445593,22.477068093444053,2.6365120660718677,3790,0,59.261061238284235,4.762237343229895,8.03603115388248,0.16639478569271005,0.013371536816702164,0.400390625,,
2.942754999999888,1500,,,,-0.1875,0.861328125,-1.09375,0.011997808847899184,0.7924114621445593,22.47803281447115,2.616314745998314,3798,0,58.80960871353485,4.772052443754387,8.114409444550708,0.16605254688297885,0.013474183547189428,0.421875,,
2.9502400000002234,1500,,,,0.0625,-0.515625,-0.90234375,0.011997808847899184,0.7924114621445593,22.478805276988485,2.5977971926437338,3806,0,58.395377242545834,4.78151163630711,8.188168074412893,0.16572404762703033,0.013569763559421317,0.4296875,,
2.958219999999739,1500,,,,-0.25,0.025390625,-0.845703125,0.011997808847899184,0.7924114621445593,22.479320069136993,2.5844421604490284,3813,0,58.09650252490561,4.790084609836538,8.245048155494487,0.16542744579444918,0.013639572568156877,0.44921875,,
2.9672400000002237,1500,,,,0.5625,-0.16796875,-1.3203125,0.011997808847899184,2.239864468789123,22.479903383487144,2.5708386687119265,3817,0,57.79220488717682,4.795859929811662,8.298454677709984,0.4670412609146165,0.03875720736320468,0.455078125,,
2.9746150000002234,1500,,,,-0.59375,0,-0.70703125,0.011997808847899184,2.239864468789123,22.480300265704383,2.5565304800915207,3820,0,57.471572830882764,4.79990145662364,8.351783708352556,0.4666480112207751,0.0389734325764879,0.46875,,
2.982140000000596,1500,,,,1.0625,0,-1.30078125,0.011997808847899184,2.239864468789123,22.480900747684554,2.5388443436916255,3820,0,57.075507704351764,4.799452468917876,8.40895273990167,0.4666916660379265,0.03924388163818896,0.474609375,,
2.9905950000006705,1500,,,,-0.6875,0.0859375,-0.724609375,0.011997808847899184,2.239864468789123,22.48135305919731,2.520306296416869,3825,0,56.65989566706562,4.805518168460882,8.481339599878858,0.46610259086930267,0.03953174361545951,0.482421875,,
2.998149999999441,1500,,,,0.15625,-0.0703125,-1.0703125,0.011997808847899184,2.239864468789123,22.481803181689532,2.503617052596386,3829,0,56.285825818793604,4.810610837132091,8.54675358698539,0.4656091595479064,0.03979446754499321,0.48828125,,
3.010165000000037,1500,,,,-0.5,0.00390625,-0.703125,0.011997808847899184,2.239864468789123,22.482781456888993,2.4785974351255553,3836,0,55.72576445353346,4.819840093986436,8.649213054771867,0.46471758919631634,0.04019441439258888,0.490234375,,
3.0173450000006707,1500,,,,0.041015625,0.009765625,-0.95703125,0.011997808847899184,2.239864468789123,22.48332477459678,2.4657229884142504,3834,0,55.43765075270693,4.817308193135517,8.689596560691735,0.46496183739725133,0.04040330783100066,0.49609375,,
3.0250599999995904,1500,,,,0.6875,0.35546875,-1.44921875,0.011997808847899184,2.239864468789123,22.48397777710759,2.45238114698827,3835,0,55.13928320988188,4.818699135708638,8.739139965542835,0.46482762374408515,0.04062193663750242,0.5,,
3.033405000000261,1500,,,,-0.4375,-0.056640625,-0.744140625,0.011997808847899184,2.239864468789123,22.484799484797616,2.4353620866533543,3837,0,54.75862819127899,4.820767496887894,8.803667396575985,0.46462818840259257,0.04090432033770069,0.5,,
3.042299999999814,1500,,,,0.5625,0.25390625,-1.1484375,0.05840483627350939,2.239864468789123,22.485532049857934,2.4195309940378404,3840,0,54.404441712062486,23.48528912343723,43.16796273314225,0.09537308470066234,0.04117061766103011,0.501953125,,
3.0502799999993293,1500,,,,-0.25,-0.07421875,-0.8359375,0.05840483627350939,2.239864468789123,22.48614319553485,2.4077460610576846,3830,0,54.140922707428096,23.425709149296704,43.26802717398592,0.09561565263676848,0.04137100656546098,0.501953125,,
3.058370000000112,1500,,,,0.28125,0.123046875,-1.205078125,0.05840483627350939,2.239864468789123,22.486824935248066,2.3971447401640167,3831,0,53.90417411651896,23.429242347198304,43.46461611034757,0.09560123351820503,0.04155270914544474,0.501953125,,
3.065964999999851,1500,,,,-0.4375,0.005859375,-0.826171875,0.05840483627350939,2.239864468789123,22.487212110284283,2.386378912398514,3833,0,53.6630087786149,23.44080138737938,43.68148920624948,0.09555409099601325,0.041739449944553336,0.50390625,,
3.077,1500,,,,0.6875,0.15234375,-1.171875,0.05840483627350939,2.239864468789123,22.487510325496537,2.3728895569555863,3832,0,53.36037841330165,23.438554518915538,43.92501555624798,0.09556325100942094,0.041976172871944446,0.50390625,,
3.0846699999999254,1500,,,,-0.375,0.04296875,-0.884765625,0.05840483627350939,2.239864468789123,22.488069113337747,2.3594911532843783,3838,0,53.06040012736809,23.472569818670912,44.237453472507774,0.09542476542161377,0.04221348620463607,0.50390625,,
3.09275,1500,,,,0.09375,-0.080078125,-1.1171875,0.05840483627350939,2.239864468789123,22.488447891752234,2.34932071204642,3830,0,52.83257641387017,23.426424402446276,44.340870713804755,0.09561273330962228,0.04239551846275454,0.50390625,,
3.1012350000003353,1500,,,,0.03125,0.142578125,-0.947265625,0.05840483627350939,2.239864468789123,22.4886304946745,2.3437498414598212,3830,0,52.70772415654186,23.42267342855682,44.43878729992499,0.0956280450060961,0.0424959435193356,0.50390625,,
3.1089750000005587,1500,,,,0.0625,-0.078125,-0.984375,0.05840483627350939,2.239864468789123,22.48918444615611,2.334248306570751,3835,0,52.49534070959717,23.45501771881338,44.68018952113467,0.09549617466255492,0.04266787182466333,0.501953125,,
3.117569999999367,1500,,,,-0.03125,0.083984375,-1.0859375,0.05840483627350939,3.7008901468666964,22.48961762977496,2.3237523332929975,3838,0,52.26030144205689,23.47468788225275,44.91877626898131,0.15765449855734315,0.07081647148495733,0.50390625,,
3.1249349999995903,1500,,,,-0.46875,0.03515625,-0.900390625,0.05840483627350939,3.7008901468666964,22.489828732630464,2.313326188277852,3837,0,52.02630977707775,23.467227855802733,45.10646239634345,0.15770461554331303,0.07113497310734251,0.50390625,,
3.133320000000298,1500,,,,0.375,0.21484375,-1.125,0.05840483627350939,3.7008901468666964,22.490071503679857,2.3044179510811773,3836,0,51.82652449417911,23.46418060527885,45.274462901548084,0.15772509635533954,0.07140919023582917,0.50390625,,
3.1413499999996275,1500,,,,-0.09375,-0.060546875,-0.88671875,0.05840483627350939,3.7008901468666964,22.490458736363927,2.2963899375791774,3834,0,51.64686313372582,23.44780729349074,45.400254479693906,0.15783523382564163,0.07165759781546122,0.50390625,,
3.1492400000002236,1500,,,,0.28125,0.01953125,-1.15625,0.05840483627350939,3.7008901468666964,22.490794962716933,2.2887399548645844,3834,0,51.47558104783737,23.44639133714348,45.54857052580765,0.15784476568911449,0.07189603442120214,0.501953125,,
3.157375,1500,,,,-0.6875,-0.0859375,-0.71875,0.05840483627350939,3.7008901468666964,22.491182663400863,2.2841943660251296,3835,0,51.37423272498232,23.45347319394973,45.652211137636606,0.1577971039198327,0.07203786705055788,0.50390625,,
3.165344999999739,1500,,,,0.1875,0.1328125,-1.095703125,0.05840483627350939,3.7008901468666964,22.491222287815162,2.2792630736954673,3836,0,51.26341244289359,23.46381002205311,45.77106537375233,0.1577275874373477,0.07219359715839076,0.501953125,,
3.1735250000003727,1500,,,,-0.375,-0.03125,-0.8203125,0.05840483627350939,3.7008901468666964,22.49165679652923,2.271727606792807,3832,0,51.09491766718452,23.437353477243526,45.87022456892236,0.1579056334351091,0.0724316686636639,0.501953125,,
3.1826349999997765,1500,,,,0.1875,0.068359375,-1.029296875,0.05840483627350939,3.7008901468666964,22.491675723266614,2.2651900628665627,3836,0,50.94792034556064,23.45877716747967,46.044621661429126,0.1577614263712411,0.07264065190031205,0.498046875,,
3.1914399999994782,1500,,,,-0.46875,-0.03125,-0.85546875,0.07903183663485165,3.7008901468666964,22.492061231928126,2.2633140462337464,3837,0,50.90659811497243,31.754129741467,62.377237759534374,0.11654830968438688,0.07269961623654844,0.498046875,,
3.208604999999516,1500,,,,-0.5625,0.0703125,-0.6328125,0.07903183663485165,3.7008901468666964,22.492464490838312,2.252322953481241,3839,0,50.66029405307688,31.77628910974064,62.72424924428699,0.1164670340858723,0.07305307274745122,0.498046875,,
3.2164000000003727,1500,,,,0.375,0.029296875,-1.13671875,0.07903183663485165,3.7008901468666964,22.4924369980259,2.2436456620325,3836,0,50.46505869916012,31.748446594012854,62.91174014732939,0.11656917247613031,0.07333569488007531,0.498046875,,
3.22731500000041,1500,,,,-0.3125,0.041015625,-1,0.07903183663485165,3.7008901468666964,22.49250783053785,2.238948128986879,3835,0,50.359558323405444,31.741877052123815,63.03049134839463,0.11659329852451412,0.0734893289393018,0.5,,
3.235660000000149,1500,,,,-0.25,0.029296875,-0.892578125,0.07903183663485165,3.7008901468666964,22.492876142143082,2.2335158456217825,3837,0,50.23819527708472,31.758471655340347,63.21578926189338,0.11653237558251242,0.07366686097011914,0.498046875,,
3.2429850000003353,1500,,,,0.1875,0.234375,-0.91015625,0.07903183663485165,3.7008901468666964,22.492963652714877,2.2291595402089066,3838,0,50.14040451402155,31.766204533668287,63.35450390071146,0.11650400799202201,0.07381053628779079,0.49609375,,
3.251,1500,,,,0,-0.013671875,-1.001953125,0.07903183663485165,3.7008901468666964,22.493305793619754,2.223878863180414,3835,0,50.022387317484515,31.74183790618401,63.45526394956597,0.11659344231436837,0.07398467656846737,0.49609375,,
3.259449999999255,1500,,,,0.15625,0.07421875,-1.244140625,0.07903183663485165,3.7008901468666964,22.49344308281059,2.217944241832929,3838,0,49.889202564516474,31.760017192355534,63.66110412625584,0.11652670477009316,0.07418218685858374,0.49609375,,
3.267355000000447,1500,,,,-0.5,-0.0546875,-0.73046875,0.07903183663485165,4.363685466502019,22.49362734476959,2.2148719212331027,3840,0,49.820503612611276,31.78022309321828,63.78944568752536,0.13730820748810932,0.08758814444014212,0.49609375,,
3.27469000000041,1500,,,,0.15625,0.146484375,-1.025390625,0.07903183663485165,4.363685466502019,22.493645339770048,2.2125118305807314,3838,0,49.767456427128366,31.767981952155974,63.832842248371705,0.13736111639303772,0.08768150473777002,0.498046875,,
3.282715000000782,1500,,,,-0.25,0.029296875,-0.890625,0.07903183663485165,4.363685466502019,22.493919196057806,2.208550170803655,3836,0,49.678949082497084,31.744206442111256,63.89870765864367,0.13746399597229297,0.0878377169222252,0.49609375,,
3.2895550000006333,1500,,,,0.375,0.078125,-1.15625,0.07903183663485165,4.363685466502019,22.494085309906332,2.2052160301794954,3836,0,49.60431750963055,31.7433644613863,63.993148288399304,0.1374676421527451,0.0879698720913723,0.494140625,,
3.297550000000745,1500,,,,-0.1875,-0.078125,-1.08203125,0.07903183663485165,4.363685466502019,22.49416993962793,2.2042057951865033,3837,0,49.58177973883792,31.75278861093189,64.04124413884159,0.13742684209473444,0.08800985945818919,0.4921875,,
3.3065300000002606,1500,,,,-0.15625,0.083984375,-0.947265625,0.07903183663485165,4.363685466502019,22.49434571555199,2.20353360648681,3833,0,49.5670467401514,31.720731316428218,63.99560474667757,0.13756572706260586,0.0880360189578785,0.494140625,,
3.3158849999997764,1500,,,,-0.1875,0.078125,-0.84375,0.07903183663485165,4.363685466502019,22.4945087155515,2.2005459193408163,3837,0,49.500199361583284,31.753042759793527,64.14730277720217,0.13742574214107828,0.0881549069050546,0.494140625,,
3.325895000000484,1500,,,,0.3125,0.048828125,-1.119140625,0.07903183663485165,4.363685466502019,22.494366246695503,2.195628843220227,3838,0,49.389279341204166,31.764942665659564,64.31546094489967,0.1373742591772253,0.08835288800947357,0.494140625,,
3.3346100000003354,1500,,,,-0.4375,0.01171875,-0.9453125,0.07903183663485165,4.363685466502019,22.494462736934086,2.1936908850501107,3833,0,49.34589787011167,31.723885434610345,64.28879968526257,0.1375520497164983,0.08843056170521238,0.494140625,,
3.3443300000000744,1500,,,,-0.03125,-0.015625,-0.94140625,0.08759432767542881,4.363685466502019,22.494312915277316,2.189236767471496,3838,0,49.24537689313403,35.20470292435404,71.48834092741487,0.12395177643959869,0.08861106852672743,0.4921875,,
3.3515949999997394,1500,,,,-0.125,0.21484375,-0.78515625,0.08759432767542881,4.363685466502019,22.494385611453225,2.188612028407469,3839,0,49.231482920862426,35.21671587105303,71.5329171125364,0.12390949464111792,0.0886360760961936,0.490234375,,
3.35969000000041,1500,,,,0.15625,-0.056640625,-1.087890625,0.08759432767542881,4.363685466502019,22.494663062528087,2.1858900783385833,3834,0,49.17086080394956,35.168786512373565,71.5236339924899,0.12407836320899861,0.08874535436547641,0.490234375,,
3.368639999999665,1500,,,,0,0.052734375,-1.06640625,0.08759432767542881,4.363685466502019,22.4947363652344,2.185517100922337,3834,0,49.16263100695935,35.1678023804976,71.53360522043526,0.12408183540413409,0.08876021028826356,0.490234375,,
3.378964999999851,1500,,,,-0.375,0.068359375,-0.779296875,0.08759432767542881,4.363685466502019,22.4948789924396,2.1832587554098466,3838,0,49.11214151212878,35.20513704330492,71.68316420209578,0.12395024797473057,0.08885145978463103,0.490234375,,
3.387375,1500,,,,0.3125,0.068359375,-1.064453125,0.08759432767542881,4.363685466502019,22.495111374818062,2.181138803609226,3833,0,49.06496031112696,35.159733034412916,71.65955666011084,0.1241103128465458,0.0889368999553113,0.48828125,,
3.3966699999999257,1500,,,,-0.625,0.0078125,-0.70703125,0.08759432767542881,4.363685466502019,22.49508787627195,2.180112648264401,3838,0,49.04182560287966,35.20938685268397,71.79460882593352,0.1239352870517079,0.08897885453607154,0.48828125,,
3.404859999999404,1500,,,,0.1875,-0.009765625,-1.15625,0.08759432767542881,4.363685466502019,22.49520165642431,2.1794010843230733,3836,0,49.02606688207734,35.18603037291336,71.77004522419982,0.12401755526992432,0.0890074555031717,0.486328125,,
3.4127650000005962,1500,,,,-0.25,0.0625,-0.796875,0.08759432767542881,4.363685466502019,22.49544051281485,2.1764698321676685,3836,0,48.96064763746391,35.1873893301038,71.86871707795582,0.12401276564069398,0.08912638367885878,0.486328125,,
3.4209650000007823,1500,,,,0.5625,0.078125,-1.0703125,0.08759432767542881,4.64168638968664,22.495467731858547,2.175963912517375,3839,0,48.94932597972328,35.218288692029596,71.94846504447965,0.1317976131741211,0.09482635964404101,0.486328125,,
3.4287249999996274,1500,,,,-0.25,-0.025390625,-0.998046875,0.08759432767542881,4.64168638968664,22.495493945427345,2.1785744146349924,3838,0,49.00810755408439,35.207672448360114,71.84050600098283,0.13183735438616984,0.09471262248933333,0.486328125,,
3.436254999999888,1500,,,,-0.1875,0.03125,-0.98046875,0.08759432767542881,4.64168638968664,22.495712874814128,2.1760698352351837,3839,0,48.95224220899478,35.218727050964624,71.94507434532451,0.1317959727212658,0.09482071055845831,0.484375,,
3.443910000000149,1500,,,,-0.25,0.1875,-0.89453125,0.08759432767542881,4.64168638968664,22.495668195462677,2.1728633114905196,3840,0,48.88001208938499,35.22281851357779,72.05975818738993,0.13178066337585534,0.09496082736637969,0.482421875,,
3.451729999999516,1500,,,,0.21875,0.07421875,-0.943359375,0.08759432767542881,4.64168638968664,22.495684432748916,2.1699843825966423,3833,0,48.81528389488756,35.156281691079705,72.01900488130038,0.1320300716234273,0.0950867437272605,0.482421875,,
3.459105000000447,1500,,,,-0.4375,0.140625,-0.921875,0.08759432767542881,4.64168638968664,22.495634902107888,2.1691596732044123,3832,0,48.796624052782114,35.14897969016894,72.0315808162244,0.1320575001209752,0.09512310492352588,0.48046875,,
3.46675,1500,,,,0.125,-0.078125,-1.10546875,0.08759432767542881,4.64168638968664,22.495829336917392,2.1664112436147573,3834,0,48.73521760993655,35.16909144476232,72.16360810419722,0.13198198187681415,0.09524296016973674,0.48046875,,
3.475475000000559,1500,,,,-0.6875,0.09375,-0.7265625,0.08759432767542881,4.64168638968664,22.49583765968332,2.163858739859926,3836,0,48.67781493037582,35.188204088177656,72.28796966032178,0.13191029522436268,0.09535527419062817,0.482421875,,
3.483730000000447,1500,,,,0.28125,0.140625,-1.07421875,0.08759432767542881,4.64168638968664,22.495846526313684,2.1623234487612026,3833,0,48.64329644358133,35.16406489177547,72.28964207341565,0.1320008481377898,0.09542294065268121,0.48046875,,
3.495885000000708,1500,,,,-0.09375,0.04296875,-0.88671875,0.09099720814281603,4.64168638968664,22.496010003123175,2.156679672195254,3831,0,48.51668747923684,36.5053877192636,75.242951685204,0.12715072156971666,0.09567195599809018,0.478515625,,
3.5110299999993293,1500,,,,0.34375,0.087890625,-1.0703125,0.09099720814281603,4.64168638968664,22.495995366960024,2.1560238645368854,3836,0,48.50190286767702,36.55600009076743,75.37023895845813,0.1269746793457018,0.09570111923959143,0.4765625,,
3.5188499999996274,1500,,,,-0.28125,0.044921875,-0.83203125,0.09099720814281603,4.64168638968664,22.49599560354301,2.1561934442251864,3839,0,48.50571824167806,36.586913165716034,75.42804125365798,0.1268673956904393,0.09569359155882608,0.4765625,,
3.5287450000001117,1500,,,,0.4375,0.01953125,-1.2890625,0.09099720814281603,4.64168638968664,22.4959297734887,2.154746166796112,3827,0,48.4730184479393,36.47238686266895,75.2426566995014,0.1272657697771243,0.09575814624937945,0.4765625,,
3.5365299999993294,1500,,,,-0.375,-0.03125,-0.8828125,0.09099720814281603,4.64168638968664,22.49585707392588,2.1521453988138832,3827,0,48.414355294024325,36.46690171455289,75.32249782752744,0.12728491238492784,0.0958741753659075,0.4765625,,
3.56268499999959,1500,,,,0.01953125,-0.01953125,-0.98046875,0.09099720814281603,4.64168638968664,22.495821562050025,2.1519654978436034,3834,0,48.41023184717785,36.53126279956891,75.46186292784415,0.1270606607593487,0.09588234165743278,0.47265625,,
3.580269999999553,1500,,,,-0.125,0.01171875,-0.802734375,0.09099720814281603,4.759279557616867,22.495777740076033,2.155543829008562,3835,0,48.490634886369065,36.54808662738023,75.37143350056252,0.13021966392219894,0.09814842739777617,0.47265625,,
3.587464999999851,1500,,,,0.15625,0.109375,-1.12109375,0.09099720814281603,4.759279557616867,22.495787287934064,2.155715907005255,3835,0,48.49452649720607,36.544722611828945,75.35844816205064,0.13023165090535846,0.0981405511380973,0.470703125,,
3.614399999999441,1500,,,,0,0.078125,-0.95703125,0.09099720814281603,4.759279557616867,22.49599622835256,2.1605174640121514,3830,0,48.602992721707196,36.494443268209324,75.08682330977138,0.13041107443780964,0.09792153303949254,0.46875,,
3.6216749999998137,1500,,,,0.28125,-0.001953125,-1.173828125,0.09099720814281603,4.759279557616867,22.49599648963136,2.1583649838747743,3836,0,48.55457110059017,36.54985572004195,75.2758286018465,0.13021336100670672,0.09801918644811218,0.466796875,,
3.637415000000037,1500,,,,0.15625,0.12109375,-1,0.09099720814281603,4.759279557616867,22.49570876001271,2.1559536650011313,3835,0,48.49970574794746,36.54383964011712,75.34858011311478,0.13023479756057765,0.0981300707750847,0.466796875,,
3.6455449999999257,1500,,,,-0.3125,0.234375,-0.75,0.09216581996652566,4.759279557616867,22.495624370809715,2.162238578808001,3836,0,48.64090686893823,37.02818577106446,76.12560734288122,0.12853126499478645,0.09784520610276927,0.466796875,,
3.653910000000149,1500,,,,0.28125,0.0078125,-1.107421875,0.09216581996652566,4.759279557616867,22.49531738080606,2.1678233964780635,3839,0,48.76587532931101,37.050086238327836,75.97543566711838,0.12845528960452063,0.09759446591449317,0.466796875,,
3.662,1500,,,,-0.625,0.0625,-0.78515625,0.09216581996652566,4.759279557616867,22.49515481999391,2.166248115985791,3840,0,48.7300867476205,37.06681742066809,76.0655683061719,0.1283973075865731,0.0976661417055504,0.466796875,,
3.66956500000041,1500,,,,0.15625,0.03125,-1.177734375,0.09216581996652566,4.759279557616867,22.4951967132742,2.1633357185743147,3842,0,48.6646625461816,37.08156789925346,76.19814041464673,0.12834623310824683,0.09779744292073174,0.46484375,,
3.6768799999998882,1500,,,,-0.8125,0.17578125,-0.80859375,0.09216581996652566,4.759279557616867,22.495231140106302,2.162894812639697,3844,0,48.654818742066894,37.101838345849806,76.2552185067984,0.1282761116377199,0.09781722922136794,0.466796875,,
3.6898249999992547,1500,,,,0.34375,0.052734375,-1.001953125,0.09216581996652566,4.759279557616867,22.495268562827818,2.1617820178843687,3835,0,48.629867066600724,37.01539600966084,76.11658892459369,0.1285756758181033,0.0978674186194839,0.46484375,,
3.707804999999702,1500,,,,-0.4375,-0.0234375,-0.974609375,0.09216581996652566,4.759279557616867,22.49526381682878,2.161920856951458,3839,0,48.6329800282276,37.05537047513064,76.19391296528184,0.12843697139152913,0.09786115419730565,0.462890625,,
3.7154249999998137,1500,,,,0.15625,0.01171875,-0.953125,0.09216581996652566,4.803632318370982,22.49529938565366,2.1586622988750825,3838,0,48.55975468571836,37.04488377510539,76.28721358841719,0.12967060033264516,0.09892208783714783,0.462890625,,
3.723600000000559,1500,,,,-0.25,0.203125,-0.7578125,0.09216581996652566,4.803632318370982,22.495234354544266,2.1596840489606253,3837,0,48.582598813140315,37.032495208765496,76.22584240748598,0.12971397933871803,0.09887557347121016,0.4609375,,
3.7315750000001864,1500,,,,0.15625,0.03515625,-1.1875,0.09216581996652566,4.803632318370982,22.495077016339465,2.161895097691099,3839,0,48.63199672380801,37.05176152396587,76.18803261233775,0.12964653017276628,0.0987751406887915,0.462890625,,
3.738789999999106,1500,,,,-0.5,-0.078125,-0.84765625,0.09216581996652566,4.803632318370982,22.495117098308345,2.162452985995952,3837,0,48.64463313956548,37.02891341527692,76.12127181438063,0.12972652652532768,0.09874948187169927,0.462890625,,
3.7469000000003727,1500,,,,0.125,0.03125,-0.9921875,0.09216581996652566,4.803632318370982,22.49486744540591,2.161993803478495,3835,0,48.6337640270377,37.014329596289826,76.10829705821638,0.12977763938354514,0.09877155129716933,0.458984375,,
3.7557549999998883,1500,,,,-0.03125,0.111328125,-0.93359375,0.09216581996652566,4.803632318370982,22.49485649619823,2.160319996854195,3834,0,48.596088315102534,37.003977599750044,76.14600039371908,0.12981394514743816,0.09884812718307052,0.458984375,,
3.7638700000001117,1500,,,,0.4375,-0.10546875,-1.06640625,0.09216581996652566,4.803632318370982,22.494847171437492,2.158465288831549,3834,0,48.55434679711838,37.0084731276201,76.22072083938835,0.1297981762664492,0.09893310558666749,0.458984375,,
3.7732149999998508,1500,,,,-0.34375,0.025390625,-0.94140625,0.09216581996652566,4.803632318370982,22.49480030134279,2.15960544092522,3835,0,48.579893123306164,37.010347978930014,76.18449856402489,0.12979160101671267,0.09888108041280239,0.4609375,,
3.7809049999993296,1500,,,,-0.15625,0.029296875,-0.92578125,0.09216581996652566,4.803632318370982,22.494859080572034,2.1565221375251147,3835,0,48.51066158776144,37.01364915638736,76.30002961189336,0.12978002514896672,0.09902219761898426,0.458984375,,
3.788964999999851,1500,,,,0.125,0.06640625,-0.94921875,0.09234673391092357,4.803632318370982,22.494849898505343,2.1580320590613398,3836,0,48.544607244747255,37.09291595156199,76.40996200577071,0.12950268791603858,0.09895295463309692,0.45703125,,
3.7969900000002235,1500,,,,0.0625,-0.0234375,-0.994140625,0.09234673391092357,4.803632318370982,22.494907346900153,2.157132746499525,3834,0,48.524501267471074,37.07937229887847,76.41371128060419,0.12954999021157315,0.09899395548432251,0.45703125,,
3.805959999999963,1500,,,,0.03125,0.0078125,-1.01953125,0.09234673391092357,4.803632318370982,22.494895762535776,2.1558795046058794,3832,0,48.49628473269652,37.05291487087882,76.40361540086698,0.1296424946623113,0.09905155301788182,0.455078125,,
3.8130400000000373,1500,,,,-0.25,0.03125,-0.84765625,0.09234673391092357,4.803632318370982,22.494522307851355,2.153846366813564,3832,0,48.44974514597231,37.05872476149831,76.48899834219056,0.12962216992856848,0.09914669940777418,0.453125,,
3.8202599999997764,1500,,,,0.1875,0.052734375,-0.953125,0.09234673391092357,4.803632318370982,22.494499846059554,2.1549307184215403,3837,0,48.474088713802345,37.11035751283094,76.55710194354673,0.12944182272321475,0.09909690817979654,0.453125,,
3.829004999999888,1500,,,,0,-0.0625,-0.91796875,0.09234673391092357,4.803632318370982,22.49457379047123,2.154409957657524,3832,0,48.46253376745317,37.06220953315215,76.47600455847949,0.12960998221312556,0.09912053590555435,0.453125,,
3.838929999999702,1500,,,,-0.15625,0.060546875,-1.07421875,0.09234673391092357,4.803632318370982,22.49428765541531,2.1589572573346545,3832,0,48.56420558223221,37.062062637349484,76.3155953917407,0.12961049592340004,0.09891302165413055,0.453125,,
3.8464699999997394,1500,,,,-0.3125,0.029296875,-0.873046875,0.09234673391092357,4.803632318370982,22.493932969238006,2.1673208878731307,3837,0,48.751570774647604,37.10223103189705,76.10468840768391,0.12947017429332663,0.0985328727268215,0.451171875,,
3.855225000000559,1500,,,,0.25,0.11328125,-0.9921875,0.09234673391092357,4.803632318370982,22.493837622464422,2.1752849303578037,3841,0,48.93050600606227,37.14774384461181,75.91939441625512,0.12931154953755658,0.0981725453191887,0.451171875,,
3.8627949999999256,1500,,,,-0.5,0.109375,-0.7265625,0.09234673391092357,4.823135838150466,22.494073015364958,2.170389683340235,3842,0,48.82090400885008,37.15745995062692,76.10973353523146,0.12980262495227662,0.09879243197291358,0.451171875,,
3.871274999999441,1500,,,,0.34375,0.09765625,-1.142578125,0.09234673391092357,4.823135838150466,22.49436643983761,2.1688877498187242,3843,0,48.78775581129722,37.165400116899235,76.17772020637456,0.12977489339492862,0.09885955518850957,0.44921875,,
3.8799749999996274,1500,,,,-0.3125,-0.009765625,-0.92578125,0.09234673391092357,4.823135838150466,22.494164983986668,2.176775083471869,3844,0,48.964737860647574,37.1729249884709,75.91774532575693,0.12974862321558903,0.09850222933648681,0.44921875,,
3.8876549999993295,1500,,,,0.25,0.0078125,-1.109375,0.09234673391092357,4.823135838150466,22.493930227883155,2.1839530522113297,3850,0,49.125687577414105,37.231874401564,75.78901433774868,0.12954319157103356,0.09817950803334788,0.447265625,,
3.895875,1500,,,,-0.4375,-0.017578125,-0.88671875,0.09234673391092357,4.823135838150466,22.493638550058627,2.187234510923352,3854,0,49.198862512924144,37.27174855430122,75.75733797607664,0.12940460335859044,0.09803348272296879,0.447265625,,
3.904015000000596,1500,,,,0.03125,-0.037109375,-1.017578125,0.09234673391092357,4.823135838150466,22.494088500512174,2.1801212516759105,3855,0,49.03984037704531,37.28208670681615,76.02407842311666,0.12936872005258945,0.09835137718776286,0.4453125,,
3.9116500000003724,1500,,,,-0.5,0.1328125,-0.83984375,0.09234673391092357,4.823135838150466,22.494051759079376,2.1773238926944023,3855,0,48.976836338548075,37.27527473116994,76.10796759820883,0.12939236190571424,0.0984778968737581,0.4453125,,
3.919959999999963,1500,,,,0.21875,0.052734375,-1.015625,0.09234673391092357,4.823135838150466,22.494147705310716,2.171645871606275,3849,0,48.84932299953978,37.22387491528316,76.20141412324969,0.1295710306658647,0.09873495766145839,0.447265625,,
3.9283999999994412,1500,,,,-0.375,0.0859375,-0.73046875,0.09234673391092357,4.823135838150466,22.494301850870343,2.170746930162379,3848,0,48.82943668892272,37.207844194343856,76.19961793002766,0.12962685537378307,0.09877516852953223,0.4453125,,
3.936179999999702,1500,,,,0.375,0.05859375,-0.943359375,0.09234673391092357,4.823135838150466,22.494384437111282,2.1670347547367945,3848,0,48.746112861630614,37.210824853540785,76.33598387458385,0.12961647201141044,0.09894400917343477,0.4453125,,
3.945015000000596,1500,,,,-0.15625,0.052734375,-0.994140625,0.09242838796075152,4.823135838150466,22.494252559290352,2.1655412623014807,3849,0,48.71223208177394,37.25646922641589,76.48277985675735,0.1294576737489318,0.09901282762107466,0.4453125,,
3.9525149999996647,1500,,,,0.3125,-0.15625,-1.10546875,0.09242838796075152,4.823135838150466,22.49440421249747,2.1627914384854106,3844,0,48.65070484461968,37.204051130366885,76.47176181555633,0.1296400712183115,0.09913804647958475,0.4453125,,
3.960334999999963,1500,,,,-0.4375,0.0546875,-0.880859375,0.09242838796075152,4.823135838150466,22.494298276063322,2.1666685358050026,3843,0,48.737688309759115,37.19986361255937,76.32668865238436,0.1296546645542562,0.09896111213762047,0.447265625,,
3.9689199999999256,1500,,,,-0.0625,0.0546875,-0.947265625,0.09242838796075152,4.823135838150466,22.49446368218231,2.1693525300314604,3844,0,48.798421700643,37.20637029131993,76.24502800431694,0.12963199044642312,0.09883794741842876,0.4453125,,
3.9771949999993668,1500,,,,0.0625,0.12890625,-0.921875,0.09242838796075152,4.823135838150466,22.494408582348996,2.166234232715125,3846,0,48.7281579157653,37.224707066617874,76.39260062111715,0.12956813412981094,0.09898046723801986,0.443359375,,
3.9850099999997766,1500,,,,0.125,-0.013671875,-1.001953125,0.09242838796075152,4.823135838150466,22.494388421152333,2.162373436842551,3844,0,48.641267999918455,37.2104132923829,76.49967778892048,0.1296179056183119,0.09915728015475567,0.443359375,,
3.9951300000008194,1500,,,,-0.1875,0.171875,-0.8671875,0.09242838796075152,4.823135838150466,22.494467519949495,2.1602117218896106,3843,0,48.59281241426002,37.19403008624011,76.5422461436399,0.1296749996428803,0.09925615741341762,0.44140625,,
4.0034249999998135,1500,,,,-0.103515625,0.02734375,-1.025390625,0.09242838796075152,4.823135838150466,22.49472514645156,2.1592394344452295,3842,0,48.57149760322495,37.189083736848694,76.56565181630202,0.1296922471195889,0.09929971436232243,0.44140625,,
4.011790000000037,1500,,,,0.5,-0.0546875,-1.1796875,0.09242838796075152,4.831132376086674,22.49479500807312,2.1579488611353486,3843,0,48.54261726914451,37.19396436680965,76.6212587190916,0.12989022435042646,0.0995235248503488,0.44140625,,
4.019569999999367,1500,,,,-0.28125,0.099609375,-0.833984375,0.09242838796075152,4.831132376086674,22.494466268251823,2.1539338890250215,3843,0,48.45159321071781,37.19561069640076,76.76860187989205,0.12988447522799132,0.09971049569156366,0.439453125,,
4.027790000000037,1500,,,,0.5625,0.125,-1.046875,0.09242838796075152,4.831132376086674,22.494476025381246,2.1513596769193994,3842,0,48.39370867443537,37.18555921619355,76.83965588658702,0.12991958378248117,0.09982976110774466,0.44140625,,
4.036054999999702,1500,,,,-0.1875,-0.00390625,-0.869140625,0.09242838796075152,4.831132376086674,22.494552462519465,2.150791204001795,3841,0,48.38108557434378,37.17605147205386,76.84005232773882,0.12995281060761263,0.09985580767225687,0.439453125,,
4.0454799999995155,1500,,,,0.1875,0.03125,-1.173828125,0.09242838796075152,4.831132376086674,22.49462342490568,2.1520184747507893,3840,0,48.4088451929589,37.16435364659858,76.77182444336465,0.12999371446162195,0.09979854625388512,0.4375,,
4.056025000000372,1500,,,,-0.34375,0.068359375,-0.791015625,0.09242838796075152,4.831132376086674,22.49488589947516,2.152470626093016,3837,0,48.41958113593426,37.14147325531748,76.7075476160061,0.1300737949428274,0.09977641819171547,0.439453125,,
4.063790000000037,1500,,,,0.0625,0.044921875,-0.919921875,0.09242838796075152,4.831132376086674,22.494957733856527,2.1477616112878164,3844,0,48.313806668319025,37.20258355178844,77.00197131472031,0.12986013106754857,0.09999486087389195,0.439453125,,
4.0730599999995905,1500,,,,0.25,0.0234375,-1.068359375,0.09242838796075152,4.831132376086674,22.494804683925363,2.1439894281762193,3842,0,48.228623431224875,37.18246973014391,77.09626998408314,0.12993037878196845,0.10017147561708824,0.435546875,,
4.080995000000112,1500,,,,-0.5,-0.0625,-0.87890625,0.09242838796075152,4.831132376086674,22.4947649781391,2.1429912627239696,3835,0,48.206084805181234,37.121115283190285,77.00504082256535,0.13014513004878323,0.10021831052264629,0.4375,,
4.088694999999367,1500,,,,0,0.078125,-1.041015625,0.09244070031134913,4.831132376086674,22.495020091973956,2.1444324422703174,3833,0,48.23905087475157,37.107443705687814,76.92407506531174,0.13019307970670477,0.10014982236342672,0.4375,,
4.096149999999441,1500,,,,-0.21875,0.05078125,-0.796875,0.09244070031134913,4.831132376086674,22.49526188525877,2.142954513908243,3835,0,48.20632299856334,37.124099989515365,77.01085185572389,0.13013466663033146,0.10021781533162472,0.435546875,,
4.103194999999367,1500,,,,0.5625,0.03515625,-1.2421875,0.09244070031134913,4.831132376086674,22.495351841703606,2.1435801024631465,3837,0,48.22058860578355,37.145357010806514,77.032151794081,0.13006019499775373,0.1001881668343474,0.435546875,,
4.111825000000186,1500,,,,-0.375,0.0078125,-0.896484375,0.09244070031134913,4.831132376086674,22.495384301355543,2.1414454298185497,3837,0,48.172637904149774,37.147194784519755,77.11264402508411,0.13005376056282822,0.10028789342404895,0.43359375,,
4.118864999999293,1500,,,,0.25,0.0234375,-1.265625,0.09244070031134913,4.831132376086674,22.495581434860448,2.1419406146651023,3837,0,48.184199525833854,37.140392073385144,77.08002299274973,0.1300775814789707,0.1002638297124034,0.435546875,,
4.126150000000372,1500,,,,-0.25,0.064453125,-0.87890625,0.09244070031134913,4.831132376086674,22.49559942980212,2.1426973579825574,3836,0,48.201261464470925,37.137393597454725,77.04651801453089,0.1300880839526063,0.10022833903730287,0.431640625,,
4.133974999999627,1500,,,,0.3125,0.14453125,-0.90234375,0.09244070031134913,4.831132376086674,22.49552086819364,2.1459226876787927,3839,0,48.27364860220847,37.16016682014787,76.97816074844576,0.13000836082004028,0.10007804497846998,0.431640625,,
4.14193499999959,1500,,,,-0.125,0.076171875,-0.970703125,0.09244070031134913,4.831132376086674,22.49541308658762,2.1461667061730476,3835,0,48.278906608043826,37.12073653019197,76.88810525797456,0.13014645795503804,0.10006714558199524,0.431640625,,
4.15163000000082,1500,,,,0.0625,0.01953125,-1.1640625,0.09244070031134913,4.831132376086674,22.495352652369267,2.1456261186034684,3834,0,48.26661619811931,37.118846335092655,76.90376757038746,0.13015308537537323,0.10009262626276497,0.431640625,,
4.159705000000074,1500,,,,-0.1875,0.03125,-0.9921875,0.09244070031134913,4.831132376086674,22.495305942287303,2.145835912818227,3837,0,48.27123536079336,37.13965694346927,76.93952032898389,0.13008015619100088,0.10008304821654913,0.431640625,,
4.167260000000708,1500,,,,0.28125,0.138671875,-1.05859375,0.09244070031134913,4.830446599404664,22.49505674533258,2.1467862980827404,3836,0,48.29207959547371,37.12907057326518,76.88438949882207,0.13009877502516398,0.10002564892354333,0.431640625,,
4.174360000000335,1500,,,,-0.25,0.037109375,-0.923828125,0.09244070031134913,4.830446599404664,22.495271874674486,2.1462088711074654,3835,0,48.27955205540064,37.124934131682465,76.89577171114121,0.13011327056557265,0.10005160350000224,0.4296875,,
4.181525000000373,1500,,,,0.3125,0.07421875,-1.29296875,0.09244070031134913,4.830446599404664,22.495018738178732,2.146685313934521,3836,0,48.28972636193015,37.138063556242734,76.90675916838705,0.13006727160368295,0.10003052332913634,0.4296875,,
4.189150000000373,1500,,,,-0.1875,-0.11328125,-0.98828125,0.09244070031134913,4.830446599404664,22.49506199857067,2.146391705718201,3839,0,48.28321449334879,37.159135699640636,76.96077423502832,0.12999351326277964,0.10004401426234945,0.427734375,,
4.20543499999959,1500,,,,-0.1875,0.154296875,-0.849609375,0.09244070031134913,4.830446599404664,22.49498927141335,2.145419652443954,3837,0,48.2611920644061,37.140410414700874,76.95709290631655,0.1300590528071462,0.1000896661018708,0.4296875,,
4.213125,1500,,,,0.4375,-0.09375,-1.27734375,0.09244070031134913,4.830446599404664,22.4949082808672,2.146005023123098,3836,0,48.27418616543438,37.129138084259644,76.91302750712163,0.1300985384697756,0.10006272467962171,0.431640625,,
4.220910000000149,1500,,,,-0.40625,0.01171875,-0.927734375,0.09244070031134913,4.830446599404664,22.494863695964497,2.146350878847118,3835,0,48.28187046337953,37.12467386745833,76.8915402637857,0.13011418273060701,0.10004679920320039,0.4296875,,
4.229024999999441,1500,,,,0.21875,0.09765625,-1.03515625,0.09244070031134913,4.830446599404664,22.494723536985315,2.1469972530576453,3835,0,48.29610964219863,37.1229172684642,76.86523312848396,0.13012033953237054,0.1000173023291315,0.427734375,,
4.237110000000335,1500,,,,-0.375,-0.10546875,-0.64453125,0.09244070031134913,4.830446599404664,22.494787123882727,2.1483771718183795,3835,0,48.32728714186367,37.12221748512318,76.81419686594809,0.13012279240431898,0.09995277792492253,0.427734375,,
4.245399999999441,1500,,,,0.125,0.08203125,-1.0234375,0.09251783683114302,4.830446599404664,22.494845932626117,2.1476561820044937,3833,0,48.31119493044312,37.136931162028915,76.8702393213363,0.13007123766714493,0.09998607168295844,0.42578125,,
4.252980000000447,1500,,,,-0.103515625,-0.01953125,-1.01171875,0.09251783683114302,4.830446599404664,22.49470621845536,2.147601080945652,3836,0,48.30965539030961,37.16267088895172,76.92596974394098,0.12998114731416496,0.09998925805572188,0.427734375,,
4.261344999999739,1500,,,,0.4375,0.04296875,-1.14453125,0.09251783683114302,4.830446599404664,22.494638911923342,2.149250615378248,3836,0,48.34661652416272,37.16072385300267,76.86313236507554,0.12998795767575858,0.0999128159669767,0.427734375,,
4.2701150000002235,1500,,,,-0.1875,0.03125,-0.853515625,0.09251783683114302,4.830446599404664,22.49471365966302,2.1487439932295507,3832,0,48.33538085561964,37.13005337818978,76.8175459072087,0.1300953314072549,0.09993604092690331,0.42578125,,
4.2782000000001865,1500,,,,0.09375,0.041015625,-1.02734375,0.09251783683114302,4.830446599404664,22.494776951760592,2.148955661794601,3835,0,48.34027829129262,37.15188395278969,76.85492360825266,0.13001888694373873,0.09992591623691079,0.423828125,,
4.287455000000074,1500,,,,-0.5625,-0.05078125,-0.76171875,0.09251783683114302,4.830446599404664,22.49483661901026,2.145979689366739,3834,0,48.273462500019185,37.14437924576218,76.94575305375582,0.13004515615793394,0.10006422471565499,0.42578125,,
