Time (s),ESC signal (µs),Servo 1 (µs),Servo 2 (µs),Servo 3 (µs),AccX (g),AccY (g),AccZ (g),Torque (N·m),Thrust (N),Voltage (V),Current (A),Motor Electrical Speed (RPM),Motor Optical Speed (RPM),Electrical Power (W),Mechanical Power (W),Motor Efficiency (%),Propeller Mech. Efficiency (N/W),Overall Efficiency (N/W),Vibration (g),App message,90% settling time (s),Max acceleration (RPM/s),
0,1000,,,,-0.0625,0.05078125,-0.955078125,-0.00037734464016630516,0.011259732858664988,22.560631975950418,0.06843492499181564,0,0,1.5439351570421243,0,0,0,0,0.05859375,,
0,1200,,,,-0.0625,0.048828125,-0.953125,-0.00031571297398612694,0.011259732858664988,22.560496394245668,0.06996877717223834,0,0,1.5785303451040618,0,0,0,0,0.05859375,,
0.007794999998994172,1200,,,,-0.0625,0.046875,-0.955078125,-0.00031571297398612694,0.011259732858664988,22.56034408408754,0.06964250342427147,0,0,1.5711588401288092,0,0,0,0,0.05859375,,
0.015989999999292195,1200,,,,-0.0625,0.05078125,-0.95703125,-0.00031571297398612694,0.011259732858664988,22.5603921002549,0.0697509528585861,0,0,1.5736088458560977,0,0,0,0,0.05859375,,
0.026174999999813736,1200,,,,-0.0625,0.05078125,-0.95703125,-0.00031571297398612694,0.011259732858664988,22.560535804357364,0.06906292930580304,0,0,1.5580966893573711,0,0,0,0,0.05859375,,
0.03445999999996275,1200,,,,-0.0625,0.05078125,-0.95703125,-0.00031571297398612694,0.011259732858664988,22.56057752757307,0.06807662003978802,0,0,1.5358478642227722,0,0,0,0,0.05859375,,
0.04490999999921769,1200,,,,-0.0625,0.02734375,-1.03515625,-0.00031571297398612694,0.011259732858664988,22.560210132795728,0.07892390197256814,0,0,1.7805398130013086,0,0,0,0,0.05859375,,
0.052459999999962745,1200,,,,-0.09375,-0.0859375,-1.099609375,-0.00031571297398612694,0.011259732858664988,22.55791793964443,0.14475925667619857,0,0,3.2654674331056124,0,0,0,0,0.060546875,,
0.06055999999959022,1200,,,,-0.03125,0.126953125,-0.9453125,-0.00031571297398612694,0.011259732858664988,22.55646684752363,0.1884605413160688,0,0,4.251003952262263,0,0,0,0,0.0625,,
0.06904999999981373,1200,,,,-0.09375,0.09375,-0.939453125,-0.00031571297398612694,0.014170243007037071,22.555281609996996,0.22751862941486595,0,0,5.131746757972848,0,0,0,0,0.0625,,
0.07770499999914318,1200,,,,0,0.109375,-1.01953125,-0.00031571297398612694,0.014170243007037071,22.554290774980796,0.2617960261494118,0,0,5.904623697508309,0,0,0,0,0.0625,,
0.08586499999929219,1200,,,,-0.0625,0.115234375,-0.96875,-0.00031571297398612694,0.014170243007037071,22.553788267326333,0.28454047680045874,0,0,6.417465667241627,0,0,0,0,0.064453125,,
0.09318499999959022,1200,,,,0,0.0234375,-1.015625,-0.00031571297398612694,0.014170243007037071,22.553379699380308,0.2997479280183705,0,0,6.760328834700828,0,0,0,0,0.06640625,,
0.10134499999973923,1200,,,,0,0.16015625,-0.99609375,-0.00031571297398612694,0.014170243007037071,22.552850274269897,0.3101531968023105,0,0,6.994838609568674,0,0,0,0,0.06640625,,
0.10893999999947845,1200,,,,-0.09375,0.03125,-0.912109375,-0.00031571297398612694,0.014170243007037071,22.55203250175305,0.3236040389387959,0,0,7.297928803846285,0,0,0,0,0.068359375,,
0.11697499999962747,1200,,,,0.1875,0.1953125,-1.08984375,-0.00031571297398612694,0.014170243007037071,22.55133027827597,0.34288841092520644,0,0,7.73258980336754,0,0,0,0,0.0703125,,
0.12440999999921769,1200,,,,-0.09375,0.078125,-0.919921875,-0.00031571297398612694,0.014170243007037071,22.550777360161607,0.3624537277434426,2,0,8.173613317703005,0.00005413096975743359,0.0006622648717696591,0,0.0017336571301147965,0.072265625,,
0.1330349999992177,1200,,,,0.0625,0.06640625,-1.0703125,-0.00031571297398612694,0.014170243007037071,22.550571243314327,0.3619209314260572,2,0,8.161523748569982,0.00007071250547135863,0.0008664130332739459,0,0.0017362251760303833,0.07421875,,
0.14084999999962747,1200,,,,-0.0625,-0.015625,-0.96875,-0.00031571297398612694,0.014170243007037071,22.550640640326666,0.3603787872756167,2,0,8.12677252624916,0.00007702346363992132,0.0009477743272761545,0,0.001743649519076329,0.07421875,,
0.15012999999988824,1200,,,,-0.0625,0.037109375,-0.95703125,-0.00023940502537660502,0.014170243007037071,22.550605471287934,0.35621109634366055,2,0,8.032775898140825,0.00006043706312209895,0.0007523807944908188,0,0.0017640530729005842,0.07421875,,
0.15804999999981373,1200,,,,0,0.091796875,-0.9765625,-0.00023940502537660502,0.014170243007037071,22.550873981194012,0.3483261649383978,2,0,7.855059449878409,0.00006112909407998374,0.0007782130036066116,0,0.001803963814335793,0.076171875,,
0.16580499999970197,1200,,,,-0.125,0.12109375,-0.9609375,-0.00023940502537660502,0.014170243007037071,22.550994097996902,0.34118922834818155,2,0,7.694156274779959,0.00006139612364634733,0.0007979578455872105,0,0.0018416890040932159,0.076171875,,
0.17399500000011175,1200,,,,-0.03125,0.072265625,-0.99609375,-0.00023940502537660502,0.014170243007037071,22.551622285492854,0.33404758834399667,2,0,7.533315037713618,0.00006150132841441935,0.0008163912979415923,0,0.0018810102771618295,0.076171875,,
0.18282999999914318,1200,,,,-0.0625,0.064453125,-0.97265625,-0.00023940502537660502,0.014170243007037071,22.551938144714725,0.3260357774152405,2,0,7.352738685232482,0.00006154629897253475,0.0008370527174608648,0,0.0019272061219171466,0.076171875,,
0.19082499999925495,1200,,,,-0.0625,0.0390625,-1.03125,-0.00023940502537660502,0.014170243007037071,22.552139008183982,0.3184025820824618,410,0,7.180659291688389,0.010287211097881867,0.1432627657155285,0,0.001973390246135076,0.076171875,,
0.20157500000018627,1200,,,,-0.0625,0.046875,-0.9609375,-0.00023940502537660502,0.014170243007037071,22.55222926198163,0.31044988694014214,569,0,7.001337024630362,0.014253898431240733,0.2035882343771799,0,0.002023933851089706,0.076171875,,
0.20944999999925495,1200,,,,-0.0625,0.041015625,-1.0390625,-0.00023940502537660502,0.014170243007037071,22.55283161732518,0.29883840821567853,643,0,6.739652301277683,0.01611007355281372,0.23903419394142367,0.8795889702540901,0.002102518405044533,0.076171875,,
0.21757999999914318,1200,,,,-0.0625,0.0390625,-0.96484375,-0.00023940502537660502,0.016907798771676117,22.553368055524437,0.29127350532143,661,0,6.569198570336966,0.016570460762537174,0.2522447842779579,0,0.0025737993136670904,0.076171875,,
0.22566000000014902,1200,,,,-0.0625,0.04296875,-0.94921875,-0.00023940502537660502,0.016907798771676117,22.553689608445726,0.28275284794422995,668,0,6.377119968438214,0.016755922075992847,0.26275061718960335,0,0.0026513220474691677,0.076171875,,
0.23512999999988823,1200,,,,-0.03125,0.025390625,-0.958984375,-0.00023940502537660502,0.016907798771676117,22.554000756892652,0.27535079759472436,671,0,6.210262097362409,0.0168306636379755,0.2710137410323428,0,0.0027225580026416455,0.076171875,,
0.24319999999925493,1200,,,,-0.03125,0.017578125,-0.9453125,-0.00023940502537660502,0.016907798771676117,22.554253976373097,0.2666666813745611,706,0,6.014468058758413,0.017690159017718983,0.2941267431283162,0.9557742671923283,0.0028111877237513255,0.076171875,,
0.2502749999994412,1200,,,,-0.0625,0.10546875,-0.98828125,-0.00023940502537660502,0.016907798771676117,22.554469405007655,0.25990993250608774,749,0,5.862130620766161,0.01877070560259456,0.3202027866131255,0.9007545656322614,0.0028842412196994553,0.076171875,,
0.2579399999994785,1200,,,,-0.03125,0.01171875,-0.958984375,-0.00023940502537660502,0.016907798771676117,22.554624695307144,0.25355312552796694,765,0,5.718795586605395,0.019174098433116994,0.3352821086668442,0.8818041083211201,0.002956531408689915,0.076171875,,
0.2663299999991432,1200,,,,-0.0625,0.02734375,-0.9609375,-0.00023940502537660502,0.016907798771676117,22.554888797738183,0.24782934185320224,772,0,5.589763246315618,0.01935868013327242,0.3463237936961339,0.8733962571454502,0.0030247790517461642,0.07421875,,
0.274769999999553,1200,,,,-0.03125,0.056640625,-0.990234375,-0.00023940502537660502,0.016907798771676117,22.555167081058613,0.24167784886332097,775,0,5.451084260903036,0.01943534245975147,0.35654085553489095,0.8699511627690827,0.0031017313184726193,0.07421875,,
0.2827749999994412,1200,,,,0.03125,0.05859375,-1.041015625,-0.00023940502537660502,0.016907798771676117,22.55494445425543,0.2501314403141485,776,0,5.641700742548528,0.019461745834999447,0.34496239207129564,0.8687709168038571,0.0029969329362263108,0.076171875,,
0.29081499999947846,1200,,,,-0.1875,0.109375,-0.9375,-0.00023940502537660502,0.016907798771676117,22.553920424336724,0.2803039406325654,788,0,6.321952771654885,0.019751298047274043,0.31242400506107837,0.8560348150895142,0.0026744582540198566,0.078125,,
0.29897499999962746,1200,,,,0.125,0.06640625,-1.125,0.004810801158958093,0.016907798771676117,22.553035195596223,0.30271936062261,815,0,6.827240394510109,0.410498195455636,6.012651843718936,0.041188485013701856,0.0024765202035762417,0.078125,,
0.30730499999877064,1200,,,,-0.09375,0.02734375,-0.916015625,0.004810801158958093,0.016907798771676117,22.551149046145397,0.34812937304675945,825,0,7.850717378918625,0.41581760004329893,5.296555460777197,0.04066157558005124,0.0021536629018232513,0.080078125,,
0.3163149999994785,1200,,,,-0.1875,-0.13671875,-1.046875,0.004810801158958093,0.016907798771676117,22.5497539380923,0.3930151214449359,830,0,8.862394282532767,0.4180156283988173,4.71673472283557,0.0404477670761746,0.0019078138742935806,0.08203125,,
0.32481499999947844,1200,,,,0.0625,-0.03125,-1.072265625,0.004810801158958093,0.016907798771676117,22.548706125630133,0.4267381188238575,831,0,9.622392433963395,0.41882118987456296,4.352568165857412,0.04036996976380304,0.001757130452505554,0.08203125,,
0.33305999999959024,1200,,,,-0.09375,0.017578125,-0.865234375,0.004810801158958093,0.016907798771676117,22.547878904821534,0.4483775765567703,953,0,10.109963299839404,0.4799032925629541,4.746835159832651,0.03523167903553847,0.0016723897278583294,0.083984375,,
0.3411049999995157,1200,,,,-0.09375,0.00390625,-1.001953125,0.004810801158958093,0.016907798771676117,22.547356329122902,0.4664976734761952,1060,0,10.518289270574599,0.534230711925402,5.079064648088137,0.031648870786067915,0.0016074666076142693,0.0859375,,
0.3530949999988079,1200,,,,0.0625,-0.16015625,-1.01171875,0.004810801158958093,0.016907798771676117,22.547127256957115,0.4747859146744755,1102,0,10.70505843797618,0.5553264600831523,5.187514512887968,0.030446593106952642,0.0015794214361031158,0.087890625,,
0.37271499999891966,1200,,,,-0.0625,0.080078125,-0.994140625,0.004810801158958093,0.12306608342397651,22.54677944297826,0.48008198211534325,1308,0,10.824302565302478,0.6587687533600908,6.086015698339655,0.18681226575527501,0.011369423820290034,0.087890625,,
0.3808999999994412,1200,,,,-0.0625,0.05859375,-0.98046875,0.004810801158958093,0.12306608342397651,22.546952316474147,0.4783247163215022,1353,0,10.784764570691934,0.6817129046339129,6.321073586404448,0.18052479656383258,0.011411105232506786,0.087890625,,
0.3878999999994412,1200,,,,-0.0625,-0.10546875,-0.95703125,0.004810801158958093,0.12306608342397651,22.547055908230277,0.4745184845942208,1392,0,10.698994801634603,0.7012908247319609,6.554735633901018,0.17548508989977643,0.011502583719843883,0.087890625,,
0.3960849999990314,1200,,,,-0.09375,0.048828125,-0.958984375,0.004810801158958093,0.12306608342397651,22.547196215051077,0.47136167403539775,1460,0,10.62788415273106,0.7356050013051713,6.921462360089256,0.16729913908364202,0.011579546940427655,0.087890625,,
0.4041049999995157,1200,,,,-0.09375,0.03125,-0.953125,0.004810801158958093,0.12306608342397651,22.54723999948545,0.4662589796251852,1490,0,10.512853115524246,0.7504681871337963,7.138577690442435,0.1639857432118383,0.011706249680426507,0.087890625,,
0.41151999999955297,1200,,,,0,0.046875,-0.9453125,0.004810801158958093,0.12306608342397651,22.547389776746908,0.4614499125938243,1499,0,10.404491041698748,0.7552309826918833,7.258701840052488,0.16295158202505128,0.011828169482847038,0.087890625,,
0.42007000000029804,1200,,,,-0.03125,0.025390625,-0.970703125,0.004810801158958093,0.12306608342397651,22.547619549892108,0.4555562750424623,1523,0,10.27170957322345,0.767434241517699,7.47133898254158,0.1603604279900225,0.01198107116898907,0.087890625,,
0.42921999999973925,1200,,,,0,-0.0625,-0.9453125,0.004810801158958093,0.12306608342397651,22.548005843145823,0.44796689963002406,1544,0,10.100760270393701,0.7776689113569751,7.699112646365814,0.15824997196973611,0.012183843604792306,0.087890625,,
0.4382199999997392,1200,,,,-0.0625,0.03125,-0.94921875,0.004810801158958093,0.12306608342397651,22.54822667569608,0.43978031333502665,1551,0,9.916266192586829,0.7813629159129402,7.879608117993736,0.1575018226712062,0.012410526405188464,0.0859375,,
0.44604499999899416,1200,,,,-0.0625,0.03125,-0.9921875,0.009635899803139716,0.12306608342397651,22.54841182614375,0.43376038830461877,1564,0,9.780607869360571,1.5782845800172052,16.136876164532186,0.07797458391352652,0.012582662045935007,0.0859375,,
0.4541049999995157,1200,,,,0,0.0859375,-0.9765625,0.009635899803139716,0.12306608342397651,22.548784959911114,0.4273852967165018,1575,0,9.637019150688204,1.5888959137496272,16.487420943188226,0.07745383593664955,0.01277013996752181,0.0859375,,
0.46235499999951574,1200,,,,-0.125,0.05859375,-0.99609375,0.009635899803139716,0.12306608342397651,22.548941481617934,0.4222340726859256,1579,0,9.52093139654015,1.5930506933302904,16.732088773470164,0.07725183130657662,0.012925844993347816,0.0859375,,
0.4723099999995902,1200,,,,-0.0625,0.046875,-0.970703125,0.009635899803139716,0.12306608342397651,22.54914703788452,0.41429520844596723,1584,0,9.342003572339133,1.5980765469834308,17.106357695207887,0.0770088789903582,0.013173414297160471,0.0859375,,
0.47928999999910593,1200,,,,-0.0625,0.0390625,-1.017578125,0.009635899803139716,0.12306608342397651,22.549267631494658,0.40927679620623486,1590,0,9.228892013015088,1.6042062266308807,17.382435772014034,0.07671462769623905,0.013334870887038443,0.087890625,,
0.4871899999994785,1200,,,,0,0.083984375,-1.01953125,0.009635899803139716,0.12306608342397651,22.549299497438227,0.40470699920243913,1593,0,9.125859333725293,1.6069693642919336,17.608964871431436,0.07658271909757418,0.013485424103478852,0.0859375,,
0.49461999999918044,1200,,,,-0.125,0.03125,-0.9921875,0.009635899803139716,0.12306608342397651,22.54936636167892,0.3991540346431556,1594,0,9.000670561910795,1.6082486311924533,17.86809793926099,0.07652180206286129,0.013672990537479491,0.087890625,,
0.5045099999997765,1200,,,,0.0625,0.0859375,-0.92578125,0.009635899803139716,0.12306608342397651,22.54966298351617,0.3931579158408458,1599,0,8.865578501512687,1.6133034126904116,18.19738455212079,0.07628204493706885,0.013881337061420007,0.087890625,,
0.5130599999986589,1200,,,,-0.041015625,0.017578125,-0.994140625,0.009635899803139716,0.12306608342397651,22.549991129942978,0.382619625643411,1601,0,8.62806916440102,1.6158895926426433,18.72828742854453,0.07615995794781555,0.014263455829925538,0.087890625,,
0.5218099999986588,1200,,,,-0.0625,0.0078125,-0.98046875,0.009635899803139716,0.3740092015965925,22.55016211326494,0.37616680082690074,1602,0,8.482622340274855,1.6165943553106505,19.057719304974615,0.2313562461528709,0.04409122398634027,0.087890625,,
0.529089999999851,1200,,,,-0.0625,0.103515625,-1.03125,0.009635899803139716,0.3740092015965925,22.55062407217733,0.3721712280485259,1605,0,8.392693454202888,1.6195768283090832,19.297461978645632,0.23093020044444343,0.04456366762797662,0.087890625,,
0.5373149999994784,1200,,,,0,0.017578125,-0.9453125,0.009635899803139716,0.3740092015965925,22.55078645143359,0.3654493089625326,1606,0,8.24116932523805,1.6208117831008901,19.667254962681795,0.23075424641906844,0.04538302598045322,0.087890625,,
0.5462099999990314,1200,,,,-0.0625,0.0625,-1,0.009635899803139716,0.3740092015965925,22.55100294186993,0.36057509116214304,1607,0,8.131329941562505,1.621345078230172,19.939482100496544,0.2306783464041187,0.04599606759097066,0.087890625,,
0.5540149999996647,1200,,,,-0.03125,0.029296875,-0.96484375,0.009635899803139716,0.3740092015965925,22.551182942349133,0.3563069035875904,1609,0,8.035142166425706,1.6231463550731686,20.200592863874583,0.2304223525054417,0.04654668129698619,0.087890625,,
0.5621449999995529,1200,,,,-0.0625,0.12109375,-0.97265625,0.009635899803139716,0.3740092015965925,22.551418402960493,0.35248036374778613,1609,0,7.9489321617040325,1.6238538216374014,20.428578186397452,0.23032196409124006,0.04705150251482524,0.087890625,,
0.5698999999994412,1200,,,,-0.0625,0.091796875,-0.97265625,0.009635899803139716,0.3740092015965925,22.55154428265142,0.3483760135807143,1610,0,7.856417097279051,1.6241334691463847,20.672699132902174,0.23028230665867935,0.04760556841185593,0.087890625,,
0.5790449999989942,1200,,,,-0.03125,-0.0078125,-0.9765625,0.009635899803139716,0.3740092015965925,22.551867370407805,0.34518318667839326,1610,0,7.784525444465843,1.6242457755476407,20.865058340869652,0.23026638408247624,0.04804521537821965,0.087890625,,
0.5873199999993667,1200,,,,-0.03125,0.03515625,-0.96875,0.009635899803139716,0.3740092015965925,22.551947396193086,0.3398692276298456,1610,0,7.664712943093052,1.6242912867252892,21.19180847064855,0.2302599322259662,0.04879624382197192,0.087890625,,
0.6072299999995157,1200,,,,-0.0625,0.03125,-1.0078125,0.013787698924548343,0.3740092015965925,22.552182770517284,0.3311358800937141,1610,0,7.467836889749536,2.324305769644125,31.124217145590066,0.16091222010512718,0.05008266879930962,0.087890625,,
0.6161749999998137,1200,,,,-0.0625,0.08203125,-0.984375,0.013787698924548343,0.3740092015965925,22.552304951432333,0.3268187520672317,1610,0,7.3705161604667655,2.3244430372854463,31.53704552949847,0.16090271759611352,0.050743963306486665,0.087890625,,
0.6240599999995902,1200,,,,0.0625,0.01953125,-0.9765625,0.013787698924548343,0.3740092015965925,22.552426121531308,0.32476037329643487,1610,0,7.324134325968776,2.324498252934556,31.73751530870634,0.160898895546351,0.05106531160556257,0.087890625,,
0.632144999999553,1200,,,,-0.09375,0.044921875,-0.94140625,0.013787698924548343,0.3740092015965925,22.552405306430558,0.32310685534479766,1610,0,7.286836759022106,2.3246246728217717,31.90169822239488,0.1608901453939217,0.05132668865314126,0.087890625,,
0.6398849999997764,1200,,,,-0.0625,0.076171875,-1.009765625,0.013787698924548343,0.3740092015965925,22.552774890471017,0.3201242783770173,1610,0,7.219690787211349,2.3247796151479436,32.20054270559562,0.16087942235883354,0.05180404710117176,0.087890625,,
0.6478300000000745,1200,,,,0,0.09765625,-0.96875,0.013787698924548343,0.3740092015965925,22.552932562580196,0.3187034721807979,1610,0,7.187697915553689,2.3248412751620227,32.344727094487716,0.1608751554750881,0.05203463000125006,0.087890625,,
0.6577049999991432,1200,,,,-0.0625,-0.0546875,-0.9921875,0.013787698924548343,0.3740092015965925,22.55306699927657,0.31464383007532487,1610,0,7.096183380597794,2.324864239217066,32.76217812484457,0.1608735664163108,0.05270568438510186,0.087890625,,
0.6673700000001117,1200,,,,-0.0625,0.09375,-0.96484375,0.013787698924548343,0.5582103235705831,22.55327946958885,0.3126203634999474,1610,0,7.050614425898767,2.3248767959706163,32.97410205032246,0.24010318505395684,0.0791718692657663,0.087890625,,
0.6834799999995157,1200,,,,-0.03125,0.0546875,-0.990234375,0.013787698924548343,0.5582103235705831,22.553629194006586,0.30785949507130295,1610,0,6.943348895692265,2.3249480069235617,33.484533786945185,0.24009583092106354,0.0803949696258103,0.087890625,,
0.6906849999995902,1200,,,,-0.0625,0,-0.962890625,0.013787698924548343,0.5582103235705831,22.553809604545375,0.3061966517459362,1610,0,6.905900985027131,2.32511869380042,33.668578493111504,0.24007820549504297,0.08083091906195207,0.087890625,,
0.698394999999553,1200,,,,0,0.015625,-0.984375,0.013787698924548343,0.5582103235705831,22.553904702289678,0.3044104416709795,1610,0,6.865644091829183,2.325182330244,33.866922012622304,0.24007163494658312,0.08130487338178662,0.087890625,,
0.7064999999990687,1200,,,,-0.0625,0.1015625,-0.96484375,0.013787698924548343,0.5582103235705831,22.553942450537154,0.3023500341079081,1610,0,6.819185269187705,2.32521196966419,34.09809057645925,0.24006857475931562,0.08185880006704621,0.087890625,,
0.7141649999991059,1200,,,,0.0625,0.0703125,-0.9609375,0.013787698924548343,0.5582103235705831,22.553977268809202,0.3015986652568445,1289,0,6.802249440506066,1.8608194319471596,27.355942298533538,0.29998091915155484,0.08206260714970988,0.087890625,,
0.7213999999994412,1200,,,,-0.0625,0.072265625,-0.939453125,0.013787698924548343,0.5582103235705831,22.55417311369287,0.2993439681785768,1483,0,6.75145567883939,2.1408382678079754,31.70928418471076,0.2607438086120069,0.0826799952668196,0.087890625,,
0.7291999999992549,1200,,,,-0.125,0.0234375,-1.04296875,0.013787698924548343,0.5582103235705831,22.554339472199832,0.29644083585733627,1555,0,6.686027245349031,2.245188899338749,33.58031334527629,0.24862510398790355,0.08348908897415701,0.08984375,,
0.7383349999999628,1200,,,,-0.03125,0.08984375,-0.966796875,0.013787698924548343,0.5582103235705831,22.55420835638718,0.2945568492556152,1591,0,6.643496550912075,2.296918443319515,34.573938975014215,0.24302574834300839,0.08402357392568335,0.08984375,,
0.7465499999998138,1200,,,,-0.0625,0.103515625,-0.990234375,0.015521067965822727,0.5582103235705831,22.554004032935804,0.29628434693100447,1603,0,6.682398355577626,2.604651367781959,38.97779254072639,0.2143128752182822,0.08353442789064787,0.08984375,,
0.7544249999998137,1200,,,,-0.03125,0.052734375,-0.98046875,0.015521067965822727,0.5582103235705831,22.5537108492598,0.2973018097421624,1607,0,6.705259051886381,2.612209689874204,38.95762519628999,0.21369276966332088,0.08324962827700781,0.08984375,,
0.7622599999988452,1200,,,,0,0.00390625,-0.94921875,0.015521067965822727,0.5582103235705831,22.553626938046023,0.2966758944256982,1609,0,6.691117444388325,2.6152114558187427,39.08482368684256,0.21344749095855597,0.08342557550514083,0.087890625,,
0.7699399999994785,1200,,,,-0.03125,0.052734375,-0.958984375,0.015521067965822727,0.5582103235705831,22.55364538760213,0.29415042064372215,1615,0,6.634164277812511,2.6250447452377785,39.56858219530459,0.212647927081342,0.08414176981379218,0.087890625,,
0.777214999999851,1200,,,,-0.0625,-0.06640625,-1.05859375,0.015521067965822727,0.5582103235705831,22.553632126078995,0.29374047505905854,1617,0,6.624914615021688,2.628607367143248,39.677603711042586,0.21235971965537104,0.08425924800673913,0.08984375,,
0.7851949999993667,1200,,,,-0.03125,0.109375,-0.9921875,0.015521067965822727,0.5582103235705831,22.5535521777155,0.291374241774864,1618,0,6.571524165111686,2.6302976269719873,40.02568598828677,0.2122232548311264,0.08494381357282828,0.08984375,,
0.792589999999851,1200,,,,-0.0625,0.046875,-1.0625,0.015521067965822727,0.5582103235705831,22.553600922616326,0.2893672134189004,1620,0,6.526272651539428,2.632733692700428,40.34054096834913,0.2120268848757049,0.08553279235719817,0.08984375,,
0.8003099999995902,1200,,,,-0.0625,0.04296875,-0.935546875,0.015521067965822727,0.5582103235705831,22.55352283877326,0.2877015212068104,1620,0,6.488682829287608,2.6338512302170374,40.59146208116028,0.211936922316066,0.08602829545790404,0.08984375,,
0.8111949999993667,1200,,,,-0.03125,0.072265625,-0.986328125,0.015521067965822727,0.5582103235705831,22.55351266939172,0.2854127916471389,1621,0,6.437061012420206,2.6343179425322796,40.92423448293259,0.21189937423954022,0.08671819678165628,0.08984375,,
0.8189599999990315,1200,,,,0,0.01953125,-0.9609375,0.015521067965822727,0.6411785028190692,22.55333639770074,0.28253823621257435,1620,0,6.372179886515222,2.6334195977638717,41.326824488064155,0.2434775314057495,0.10062153207192538,0.08984375,,
0.8269099999992177,1200,,,,-0.03125,0.12109375,-1.015625,0.015521067965822727,0.6411785028190692,22.55345834121997,0.2815873274517772,1619,0,6.350768059099123,2.631313900007124,41.43300267811047,0.24367237326467714,0.10096078094056901,0.08984375,,
0.8361799999987707,1200,,,,-0.03125,-0.0234375,-1.001953125,0.015521067965822727,0.6411785028190692,22.553867859471595,0.2793733650316953,1618,0,6.300949958380778,2.6303751173130285,41.74569127968418,0.2437593401028077,0.10175902158471349,0.091796875,,
0.8443699999991804,1200,,,,-0.03125,0.044921875,-0.97265625,0.015521067965822727,0.6411785028190692,22.553765742298978,0.27787460898263255,1617,0,6.267118836727222,2.62815085974595,41.93555169792197,0.24396563859391568,0.10230833649771698,0.08984375,,
0.8521199999991804,1200,,,,-0.0625,0.029296875,-0.966796875,0.015521067965822727,0.6411785028190692,22.55388126452634,0.27670607944360215,1616,0,6.2407960609435955,2.6264693165581887,42.085485423811015,0.24412183259741657,0.10273985827412607,0.08984375,,
0.8594949999991804,1200,,,,0,0.1015625,-0.98828125,0.015521067965822727,0.6411785028190692,22.554101225688935,0.27676750629622004,1616,0,6.242242352986446,2.6258725781899668,42.06617477665991,0.2441773101043,0.10271605403342171,0.08984375,,
0.8664799999995157,1200,,,,-0.09375,-0.001953125,-0.95703125,0.015521067965822727,0.6411785028190692,22.55418270135472,0.2771015939527541,1615,0,6.249799976847026,2.625337774602649,42.00674876521586,0.24422705109483026,0.10259184377010074,0.08984375,,
0.8744899999992922,1200,,,,0.0625,0.12109375,-0.984375,0.015521067965822727,0.6411785028190692,22.554174746784525,0.27643132410785404,1615,0,6.23468038941357,2.624501459758658,42.095204498614514,0.2443048756688557,0.10284063701289074,0.08984375,,
0.8831049999995157,1200,,,,-0.0625,0.025390625,-0.998046875,0.015521067965822727,0.6411785028190692,22.55435116286434,0.27567332966548047,1614,0,6.217633083511314,2.6240905968917994,42.20401174605633,0.24434312732134197,0.10312260215538055,0.091796875,,
0.8916349999997765,1200,,,,-0.0625,0,-0.97265625,0.015521067965822727,0.6411785028190692,22.55423553007999,0.2741877550204121,1614,0,6.184095206194247,2.6239541053953777,42.43068739897659,0.24435583743659128,0.10368186152387146,0.091796875,,
0.8996149999992922,1200,,,,0,0.076171875,-0.998046875,0.016090888360146084,0.6411785028190692,22.55432193538641,0.2715081879047776,1613,0,6.123683078097741,2.7172624373031464,44.37300890083351,0.2359648792169784,0.10470471685779087,0.091796875,,
0.9075649999994785,1200,,,,-0.03125,0.005859375,-0.935546875,0.016090888360146084,0.6411785028190692,22.55427304185693,0.27505584809914974,1612,0,6.203684699787748,2.7160591352563395,43.781385848788645,0.23606941929066477,0.10335446333064065,0.091796875,,
0.9157949999999255,1200,,,,0,0.0078125,-0.96484375,0.016090888360146084,0.6411785028190692,22.554033156285396,0.277098054953029,1612,0,6.24967871895281,2.7155932767172173,43.451726062043704,0.23610991687023425,0.10259383428377332,0.091796875,,
0.923359999999404,1200,,,,-0.0625,0.02734375,-0.943359375,0.016090888360146084,0.6411785028190692,22.553836859694286,0.27999850866168086,1615,0,6.315040685313248,2.72118722533661,43.090573140173355,0.23562454536356117,0.10153196705608629,0.091796875,,
0.9311849999995903,1200,,,,0,0.1328125,-0.984375,0.016090888360146084,0.6411785028190692,22.55400506987617,0.2817818240911978,1618,0,6.35530868915183,2.7262588176862037,42.89734694303333,0.2351862188063429,0.10088864824355841,0.091796875,,
0.9389949999991805,1200,,,,-0.0625,0.03515625,-1.017578125,0.016090888360146084,0.6411785028190692,22.554004864652196,0.28286835676532235,1619,0,6.379814294541253,2.7283075404876196,42.76468584394432,0.2350096143136686,0.10050112326430558,0.091796875,,
0.947269999999553,1200,,,,0,0.056640625,-0.916015625,0.016090888360146084,0.6411785028190692,22.553835680258196,0.2797659342147493,1620,0,6.30979490921338,2.7291370136466595,43.2523885944637,0.23493818727786395,0.1016163777182106,0.091796875,,
0.9547050000000745,1200,,,,-0.09375,0.068359375,-0.974609375,0.016090888360146084,0.6411785028190692,22.554034429406276,0.27813113381771526,1627,0,6.272979168014554,2.7411039594836746,43.697004024186086,0.23391250835296457,0.10221275818806953,0.091796875,,
0.9679199999999255,1200,,,,-0.0625,0.03515625,-0.953125,0.016090888360146084,0.6411785028190692,22.554131847709442,0.2752252437897802,1630,0,6.207466436252677,2.7460241208956555,44.237438077125965,0.2334933979421636,0.10329149732884192,0.091796875,,
0.9758849999997765,1200,,,,-0.0625,0.05078125,-0.984375,0.016090888360146084,0.6835238816137664,22.55428015613112,0.27011283728302754,1630,0,6.092200605848863,2.746595427521021,45.08379820723782,0.2488622367767832,0.11219654864246333,0.091796875,,
0.983734999999404,1200,,,,0.0625,0.08203125,-0.90625,0.016090888360146084,0.6835238816137664,22.554411394694718,0.2688686122148412,1628,0,6.0641732910141695,2.7426579804709577,45.22723624232508,0.24921951132105602,0.11271509714714209,0.091796875,,
0.9919499999992549,1200,,,,-0.0625,0.03125,-0.97265625,0.016090888360146084,0.6835238816137664,22.554425023795147,0.2683150965073551,1627,0,6.0516927269275,2.74071987555787,45.288483722294984,0.24939574733978825,0.11294755243807593,0.091796875,,
0.9995799999991432,1200,,,,-0.0625,0.041015625,-0.966796875,0.016090888360146084,0.6835238816137664,22.55440608734953,0.26613360679772863,1625,0,6.002485441206977,2.737772500960157,45.61064791870027,0.2496642366646789,0.1138734759640373,0.091796875,,
1.0074500000001863,1200,,,,0.0625,0.09765625,-0.96875,0.016090888360146084,0.6835238816137664,22.554546750020847,0.2656633871180288,1621,0,5.991917284522466,2.7316770119074025,45.589364508811094,0.2502213397243819,0.11407431864577897,0.091796875,,
1.0153849999997764,1200,,,,-0.0625,0.01171875,-0.95703125,0.016090888360146084,0.6835238816137664,22.55461814657969,0.2656319843513634,1620,0,5.991227974563233,2.7292029905410513,45.553315649618774,0.25044816526390407,0.11408744326134512,0.09375,,
1.0235449999999255,1200,,,,0.0625,-0.0390625,-0.9609375,0.016090888360146084,0.6835238816137664,22.55462053623758,0.26742336199851774,1619,0,6.031632452401464,2.7282243612958337,45.23193982434399,0.25053800241308266,0.11332319848859902,0.09375,,
1.0317599999997764,1200,,,,-0.09375,0.037109375,-0.982421875,0.016090888360146084,0.6835238816137664,22.554490237776022,0.26924875554791117,1617,0,6.072768428538705,2.7254968770354013,44.88063243490482,0.25078872310330963,0.11255556500418762,0.09375,,
1.0394299999997019,1200,,,,0,0.1171875,-0.91015625,0.016090888360146084,0.6835238816137664,22.55449881995207,0.27041652748216866,1616,0,6.099109249992109,2.723287709528053,44.6505808947688,0.250992166278392,0.11206946024366604,0.09375,,
1.0499049999993295,1200,,,,0,0.0625,-1.013671875,0.016321434675623695,0.6835238816137664,22.55433719232687,0.2690138378561824,1616,0,6.067428808410284,2.7612891105889434,45.51003724611354,0.24753796297265687,0.11265461914712689,0.09375,,
1.057644999999553,1200,,,,-0.0625,0.0390625,-0.890625,0.016321434675623695,0.6835238816137664,22.55453041135916,0.26728672935959596,1619,0,6.028526665893732,2.767159621344416,45.901092832508574,0.24701281282851278,0.11338158052460628,0.09375,,
1.066429999999702,1200,,,,-0.0625,0.044921875,-0.97265625,0.016321434675623695,0.6835238816137664,22.554610493275884,0.2656279366670293,1622,0,5.9911346476574,2.772201622646497,46.27172957513913,0.24656355296453392,0.11408922045860409,0.09375,,
1.075629999998957,1200,,,,-0.03125,0.0234375,-0.982421875,0.016321434675623695,0.6835238816137664,22.55447152906813,0.26438253121534566,1623,0,5.96300827307948,2.7740063572382354,46.520250018128074,0.24640314173406366,0.11462735758720888,0.09375,,
1.0845499999988824,1200,,,,-0.0625,0.12109375,-1.04296875,0.016321434675623695,0.6835238816137664,22.55470465443306,0.26466677256307203,1621,0,5.969480887002097,2.7708425953164295,46.41680989966216,0.24668448607262308,0.11450306895228801,0.09375,,
1.0918899999996647,1200,,,,-0.0625,0.017578125,-0.9375,0.016321434675623695,0.6835238816137664,22.554849616700363,0.26468644169490435,1619,0,5.969962888008096,2.7676260431544115,46.3591833830954,0.24697118431315154,0.11449382423913645,0.09375,,
1.100394999999553,1200,,,,-0.09375,0.0859375,-1.009765625,0.016321434675623695,0.6835238816137664,22.55480799096404,0.26310748393885636,1619,0,5.93433878122656,2.7665430709739796,46.61923043096247,0.24706786197734035,0.1151811358960686,0.09375,,
1.1083099999995902,1200,,,,0,0.005859375,-0.955078125,0.016321434675623695,0.6835238816137664,22.554866139984497,0.2638351207957632,1618,0,5.95076583257508,2.7653619996831864,46.470690957881786,0.2471733833371813,0.114863179100762,0.09375,,
1.1173849999988452,1200,,,,0,0.02734375,-0.953125,0.016321434675623695,0.7116118580587147,22.55479926321199,0.26445582195792083,1617,0,5.964747978248634,2.7634993191974466,46.33052945866229,0.25750390206912566,0.11930292120534114,0.09375,,
1.1335999999996276,1200,,,,-0.03125,0.029296875,-0.951171875,0.016321434675623695,0.7116118580587147,22.555210720269848,0.26054732786769336,1615,0,5.87669988265906,2.76103256850639,46.98270498130478,0.2577339601769597,0.12109038614657452,0.09375,,
1.1411349999997764,1200,,,,-0.0625,0.0859375,-0.9765625,0.016321434675623695,0.7116118580587147,22.555186539458756,0.26190334309949,1615,0,5.907278758916864,2.7597256531555985,46.71737640601222,0.2578560145081902,0.1204635648833327,0.09375,,
1.148789999999106,1200,,,,-0.0625,0.052734375,-0.978515625,0.016321434675623695,0.7116118580587147,22.55504895705036,0.26119433966494027,1614,0,5.891251118447168,2.759177412518063,46.83516891477094,0.2579072497586474,0.12079129606790268,0.09375,,
1.1572249999996276,1200,,,,0,0.0703125,-1.015625,0.016321434675623695,0.7116118580587147,22.554955420419347,0.2621135014858834,1614,0,5.91195834110412,2.7589065370473875,46.66654224989232,0.2579325716558306,0.12036821252800198,0.09375,,
1.165535000000149,1200,,,,-0.0625,0.0234375,-0.935546875,0.016321434675623695,0.7116118580587147,22.554908064433732,0.2620963630636342,1614,0,5.9115593729227145,2.7578010145707865,46.65099072171394,0.25803596934620293,0.12037633611838175,0.09375,,
1.1783999999994412,1200,,,,0,0.0546875,-1.046875,0.016321434675623695,0.7116118580587147,22.554562397737314,0.26410380229630215,1613,0,5.956745688371626,2.757269050715949,46.28817805834,0.25808575259419764,0.11946319270400907,0.09375,,
1.1864049999993294,1200,,,,-0.041015625,0.005859375,-0.986328125,0.016321434675623695,0.7116118580587147,22.55449153915736,0.2645891624123318,1613,0,5.967674024981671,2.7572267167853144,46.20270318457589,0.25808971519338536,0.11924442506071709,0.09375,,
1.194839999999851,1200,,,,0,0.068359375,-0.97265625,0.016321434675623695,0.7116118580587147,22.554564878404264,0.2652422087925572,1613,0,5.982422606702982,2.7573958590568215,46.09162609086339,0.2580738836324083,0.11895044948201955,0.09375,,
1.2029599999990315,1200,,,,-0.03125,-0.021484375,-0.95703125,0.016982956928932764,0.7116118580587147,22.554570453054854,0.2661829176118547,1613,0,6.003641368676273,2.8692300262064077,47.79149602733577,0.24801492092273347,0.11853004107998812,0.09375,,
1.2110449999999255,1200,,,,-0.0625,0.02734375,-0.94921875,0.016982956928932764,0.7116118580587147,22.554575230356527,0.2663410969957384,1613,0,6.007210309126066,2.869255482234035,47.763526405511456,0.24801272053496112,0.11845962126174349,0.091796875,,
1.2281699999989941,1200,,,,-0.03125,0.091796875,-1.005859375,0.016982956928932764,0.7116118580587147,22.554722841103292,0.2662796205488381,1613,0,6.005863039713196,2.8685234235877215,47.76205192525843,0.24807601437281873,0.11848619479885726,0.09375,,
1.2369549999991432,1200,,,,-0.0625,0.021484375,-1.013671875,0.016982956928932764,0.7116118580587147,22.55479123353921,0.2658642584975148,1613,0,5.996512846871149,2.8684504144494958,47.83530841505978,0.24808232851927653,0.11867094697045774,0.09375,,
1.2436399999996648,1200,,,,0.0625,0.01171875,-0.96875,0.016982956928932764,0.7116118580587147,22.554673915762052,0.2669242125773969,1613,0,6.020388574904739,2.868186935034658,47.6412261326511,0.24810511803342972,0.11820032032898715,0.09375,,
1.252429999999702,1200,,,,-0.0625,0.033203125,-1.00390625,0.016982956928932764,0.7116118580587147,22.554430542782534,0.26784194120888727,1613,0,6.0410224594398905,2.8680552957428533,47.476322344425995,0.24811650567371663,0.11779659202337972,0.09375,,
1.2598649999992921,1200,,,,0,0.01171875,-0.91015625,0.016982956928932764,0.7116118580587147,22.554441459540065,0.2673096278894671,1613,0,6.029019353804424,2.868008984054069,47.57007426496818,0.24812051217943434,0.11803111191037634,0.09375,,
1.2686849999995902,1200,,,,0,0.099609375,-1.013671875,0.016982956928932764,0.7257040997585984,22.554335333712867,0.2657940594849671,1612,0,5.994808347332773,2.867135317625174,47.82697213165835,0.25311121358572414,0.12105542958374653,0.09375,,
1.2839399999994785,1200,,,,0,0.056640625,-0.974609375,0.016982956928932764,0.7257040997585984,22.554179420364733,0.26685935703247665,1611,0,6.018793818513649,2.865268206782951,47.605355710465815,0.25327614986989305,0.12057301207533508,0.09375,,
1.2982249999996274,1200,,,,-0.125,0.0390625,-0.98046875,0.016982956928932764,0.7257040997585984,22.554251711617248,0.2678168054004753,1612,0,6.040407641603534,2.866486500778423,47.45518300843456,0.25316850421640785,0.12014157699561272,0.09375,,
1.3174399999994784,1200,,,,-0.03125,0.083984375,-0.96875,0.016982956928932764,0.7257040997585984,22.554442811423737,0.2682227197664005,1612,0,6.049613993695815,2.8673394721985304,47.39706492325839,0.25309319206705766,0.11995874456037038,0.09375,,
1.333239999999292,1200,,,,0,0.00390625,-0.95703125,0.016982956928932764,0.7257040997585984,22.55462104743914,0.2681269775518267,1612,0,6.047502371276672,2.866909063132015,47.40649754432075,0.2531311889487655,0.12000063087290644,0.09375,,
1.3427400000002234,1200,,,,-0.03125,0.0703125,-0.998046875,0.016982956928932764,0.7257040997585984,22.554365194918955,0.2654326958241133,1612,0,5.98666595628889,2.8667627067586805,47.88579699769611,0.25314411201446085,0.12122007559086516,0.09375,,
1.3506949999993667,1200,,,,-0.1875,0.05859375,-0.94140625,0.01724723812480038,0.7257040997585984,22.554118880398157,0.2707276632680449,1613,0,6.106023901559887,2.9123846644454785,47.696909009829795,0.2491786571389509,0.11885051736748116,0.09375,,
1.358754999998957,1200,,,,-0.03125,-0.00390625,-1.005859375,0.01724723812480038,0.7257040997585984,22.55421059902249,0.2752070517377947,1613,0,6.2070778032303,2.9127830638580843,46.92680124522054,0.24914457542793372,0.11691557972431504,0.09375,,
1.3671749999988825,1200,,,,-0.03125,0.052734375,-0.966796875,0.01724723812480038,0.7257040997585984,22.554233203602422,0.2709388661715239,1613,0,6.1108183715521776,2.9129424275218327,47.66861409402242,0.2491309450204227,0.11875726877057648,0.09375,,
1.3759599999990315,1200,,,,-0.0625,0.017578125,-0.98828125,0.01724723812480038,0.7257040997585984,22.554183870669455,0.26954018397779556,1620,0,6.079258869969274,2.9253199966141556,48.11968134906782,0.2480768259877716,0.11937377816619715,0.09375,,
1.3838049999987707,1200,,,,0,0.20703125,-0.93359375,0.01724723812480038,0.7257040997585984,22.55407543050559,0.267914569978054,1625,0,6.042565420216499,2.935384027333185,48.57844016901042,0.24722628896291474,0.12009867486591436,0.09375,,
1.390929999999702,1200,,,,-0.0625,0.017578125,-0.96875,0.01724723812480038,0.7257040997585984,22.554071895653212,0.26685176554096857,1627,0,6.018593905493,2.939217375870324,48.835615461408416,0.246903854650666,0.120577017016594,0.095703125,,
1.3982749999994413,1200,,,,-0.09375,0.072265625,-1,0.01724723812480038,0.7257040997585984,22.55406883502837,0.26635192281473763,1627,0,6.007319601505756,2.937676513045165,48.90161849069635,0.24703336005036883,0.12080331127657967,0.095703125,,
1.4048899999996647,1200,,,,-0.0625,-0.0078125,-0.98046875,0.01724723812480038,0.7257040997585984,22.55398028566981,0.264900412141449,1624,0,5.974558673104048,2.934003120944485,49.10828199164944,0.24734264751735746,0.12146572482843539,0.095703125,,
1.4138099999995901,1200,,,,-0.0625,0.03125,-0.9609375,0.01724723812480038,0.7313627416199212,22.55388208162586,0.2647987948158274,1624,0,5.972240793632813,2.932256093298758,49.098088885245964,0.24941980452912818,0.12246035732511812,0.095703125,,
1.4238549999995158,1200,,,,-0.0625,0.087890625,-1,0.01724723812480038,0.7313627416199212,22.55388794558876,0.2640063177854028,1623,0,5.954368908259471,2.9315748703244644,49.234014813190285,0.24947776330848903,0.1228279189429173,0.095703125,,
1.4312449999991805,1200,,,,-0.03125,-0.005859375,-0.99609375,0.01724723812480038,0.7313627416199212,22.554016066305742,0.26288410533225065,1620,0,5.929092335239992,2.925336774907035,49.338694854186755,0.25000975883987353,0.1233515520196934,0.095703125,,
1.4412549999998883,1200,,,,-0.0625,0.080078125,-0.984375,0.01724723812480038,0.7313627416199212,22.55389939470906,0.26281949990231085,1619,0,5.927604559764466,2.923328568218117,49.31719953218802,0.2501815052783189,0.12338251215074003,0.09765625,,
1.4496149999992922,1200,,,,-0.0625,0.068359375,-0.986328125,0.01724723812480038,0.7313627416199212,22.553799892394583,0.26267902042427904,1618,0,5.924410062579419,2.922672962666381,49.33272565190877,0.25023762527049637,0.12344904115254549,0.09765625,,
1.458234999999404,1200,,,,0,0.16796875,-0.953125,0.01724723812480038,0.7313627416199212,22.553842808142264,0.2622577868955964,1616,0,5.914920900854554,2.919218300808438,49.353463042704185,0.2505337615269746,0.12364708740471206,0.09765625,,
1.466769999999553,1200,,,,-0.0625,0,-0.970703125,0.01724723812480038,0.7313627416199212,22.55381502724747,0.26252791257522257,1615,0,5.921005979710965,2.9177959841730443,49.278720443303406,0.250655887384533,0.12352001401890542,0.09765625,,
1.4748799999998883,1200,,,,-0.0625,0.095703125,-0.9765625,0.01724723812480038,0.7313627416199212,22.554019516310408,0.2624907924360701,1615,0,5.920222455454909,2.9173129779633618,49.2770837567994,0.2506973873370628,0.12353636153419227,0.09765625,,
1.483839999999851,1200,,,,-0.03125,-0.041015625,-0.96875,0.01724723812480038,0.7313627416199212,22.55383265596916,0.26360018659250006,1615,0,5.945194496489492,2.9162567855208263,49.05233608829471,0.250788183417567,0.12301746259971394,0.099609375,,
1.4925999999996276,1200,,,,-0.0625,0.09375,-0.984375,0.01724723812480038,0.7313627416199212,22.553624898619617,0.26861684341703046,1614,0,6.058283527878945,2.9158879422434523,48.13059555276919,0.250819906699576,0.12072111485940594,0.099609375,,
1.500679999999702,1200,,,,-0.03125,0.013671875,-0.958984375,0.016865347888331807,0.7313627416199212,22.553676386884465,0.271442834795409,1614,0,6.122033853514196,2.851199334931295,46.5727469522998,0.25651056124336,0.11946401459379406,0.09765625,,
1.508929999999702,1200,,,,-0.03125,0.060546875,-0.958984375,0.016865347888331807,0.7313627416199212,22.55398526034871,0.27065245907616703,1620,0,6.104291572681004,2.86081007976308,46.86555426949589,0.25564882716034387,0.11981123983216072,0.09765625,,
1.5179049999993295,1200,,,,-0.03125,-0.064453125,-0.943359375,0.016865347888331807,0.7313627416199212,22.554096570961484,0.2683039103919563,1622,0,6.051352305346779,2.8648555077786964,47.34240155291244,0.2552878285254229,0.12085938889621628,0.09765625,,
1.5257249999996274,1200,,,,0,0.13671875,-0.984375,0.016865347888331807,0.7313627416199212,22.553994407806723,0.2669804068428304,1623,0,6.021474602927161,2.866212045741508,47.5998361655164,0.2551670043765771,0.12145907603170675,0.09765625,,
1.5343549999995156,1200,,,,-0.0625,0.00390625,-0.974609375,0.016865347888331807,0.7313627416199212,22.55388512843316,0.26520672933022543,1623,0,5.981442108601369,2.8670611454425208,47.93260711024287,0.2550914349289324,0.12227197527636602,0.09765625,,
1.5418549999995157,1200,,,,-0.03125,0.025390625,-0.955078125,0.016865347888331807,0.7313627416199212,22.55397593224347,0.265198866866182,1624,0,5.981288860558109,2.867328660276237,47.93830773136559,0.2550676355146055,0.12227510803610951,0.09765625,,
1.5510499999998137,1200,,,,0.0625,0.06640625,-0.98828125,0.016865347888331807,0.7313627416199212,22.553878827983272,0.2642288661515464,1624,0,5.959385830037388,2.8674549448902327,48.116618501813676,0.2550564021670855,0.12272451599518817,0.09765625,,
1.5580049999998882,1200,,,,-0.03125,-0.0078125,-1.013671875,0.016865347888331807,0.7313627416199212,22.55388541568115,0.26321735312941996,1623,0,5.93657402189982,2.8659445988403958,48.27606946814819,0.2551908162899735,0.12319609574848202,0.099609375,,
1.5667299999995157,1200,,,,-0.0625,0.1796875,-0.99609375,0.016865347888331807,0.7459065612938194,22.554057470683862,0.2641728127976208,1621,0,5.958168802029748,2.8624170427026794,48.04189236343136,0.26058626334530843,0.12519057215024085,0.099609375,,
1.57625,1200,,,,-0.0625,-0.001953125,-1.0078125,0.016865347888331807,0.7459065612938194,22.5541432163525,0.2644976820615359,1620,0,5.96551860160915,2.8611335697186315,47.96118763164805,0.2607031594708712,0.12503633147545917,0.09765625,,
1.5838549999995157,1200,,,,-0.03125,0.056640625,-1.015625,0.016865347888331807,0.7459065612938194,22.553852535858077,0.2679395326355648,1619,0,6.043068707589261,2.858556011363881,47.30305329432923,0.26093823536378097,0.12343175253941156,0.099609375,,
1.591969999998808,1200,,,,-0.03125,0.01953125,-0.966796875,0.016865347888331807,0.7459065612938194,22.553760728506916,0.27295954996209865,1618,0,6.156264378406102,2.856909339598482,46.406540785016695,0.26108863552479794,0.12116220412985895,0.09765625,,
1.6000249999994411,1200,,,,-0.0625,0.0625,-1.0234375,0.016865347888331807,0.7459065612938194,22.55354321153954,0.27641019621897095,1617,0,6.234029304534685,2.856268578942246,45.81737491776903,0.2611472068113597,0.11965079483204237,0.09765625,,
1.6085449999999255,1200,,,,-0.03125,0.0390625,-1.00390625,0.016865347888331807,0.7459065612938194,22.553468222137443,0.27469577156361313,1617,0,6.195342354715475,2.8560174893103545,46.09942963259403,0.26117016582903846,0.12039795681768674,0.09765625,,
1.616984999999404,1200,,,,-0.03125,0.017578125,-0.99609375,0.016865347888331807,0.7459065612938194,22.553534122408937,0.27249180126885253,1625,0,6.14565313799374,2.870689285589383,46.71089013862772,0.25983535210104663,0.1213714058612364,0.09765625,,
1.6247900000000373,1200,,,,0,-0.013671875,-0.9609375,0.016865347888331807,0.7459065612938194,22.55365469562372,0.27101343902574904,1628,0,6.112343521660217,2.8756406670669596,47.04645046333859,0.2593879582509225,0.12203282728638562,0.09765625,,
1.6328499999996275,1200,,,,-0.125,0.1015625,-1.03515625,0.016865347888331807,0.7459065612938194,22.553835293286593,0.26805712866129244,1629,0,6.045716329018123,2.877601965307418,47.59736991786324,0.2592111662024575,0.123377697645791,0.09765625,,
1.640504999998957,1200,,,,-0.03125,0.0703125,-0.9921875,0.016865347888331807,0.7459065612938194,22.553939985373944,0.26665290074443265,1628,0,6.014073520315809,2.8744317907515997,47.795088986551974,0.25949704692724035,0.12402684449634906,0.099609375,,
1.6498699999991804,1200,,,,-0.0625,0.078125,-0.98828125,0.0164278207562213,0.7459065612938194,22.55383208161427,0.2647487635881971,1627,0,5.971099157783192,2.798537354723005,46.868043567408776,0.26653443093585155,0.12491947321315996,0.09765625,,
1.6576899999994785,1200,,,,-0.03125,0.025390625,-0.962890625,0.0164278207562213,0.7459065612938194,22.55380768294382,0.26359009777706865,1627,0,5.944960372392364,2.798096630199652,47.06669943829492,0.2665764124238257,0.1254687188089115,0.099609375,,
1.666625,1200,,,,-0.03125,-0.033203125,-0.96484375,0.0164278207562213,0.7459065612938194,22.553527036827195,0.2646032347416704,1623,0,5.967736208778197,2.7920005872507696,46.78491960056642,0.2671584542997176,0.12498986805023883,0.099609375,,
1.6751749999988823,1200,,,,-0.0625,0.15234375,-1,0.0164278207562213,0.7459065612938194,22.553553122510785,0.26408873084913803,1620,0,5.956139220262488,2.786237244979953,46.77924981171215,0.2677110725720653,0.1252332314121004,0.099609375,,
1.6834549999991433,1200,,,,-0.0625,0.01171875,-0.98046875,0.0164278207562213,0.7459065612938194,22.553468184210033,0.26437742032435424,1618,0,5.962627737908846,2.7841803755038157,46.69384871711371,0.26790884953308486,0.1250969529007384,0.099609375,,
1.6914599999999627,1200,,,,-0.03125,0.03125,-0.9609375,0.0164278207562213,0.7459065612938194,22.55349177274628,0.2635411161681369,1617,0,5.943772395278447,2.7817189293499647,46.80056274630701,0.268145912738971,0.12549379614305975,0.099609375,,
1.6987849999992177,1200,,,,-0.03125,-0.001953125,-0.970703125,0.0164278207562213,0.7459065612938194,22.55361314081502,0.26314057066529545,1615,0,5.934770632438371,2.778728208701836,46.821155876080795,0.2684345158184044,0.12568414307653786,0.09765625,,
1.7068650000002235,1200,,,,-0.0625,0.1484375,-0.91015625,0.0164278207562213,0.7459065612938194,22.553599459513173,0.26323325043339174,1615,0,5.93685729470044,2.7775179180315677,46.7843133186127,0.2685514849252331,0.12563996812920802,0.09765625,,
1.7145899999989196,1200,,,,-0.03125,0.111328125,-1.021484375,0.0164278207562213,0.7524312878676038,22.55361898924887,0.2633204061404196,1614,0,5.938828112185293,2.776626334907096,46.753775028612324,0.27098759325596455,0.1266969297063447,0.099609375,,
1.723,1200,,,,-0.125,-0.04296875,-0.9453125,0.0164278207562213,0.7524312878676038,22.553737406901803,0.2617872251783559,1613,0,5.9042803331541105,2.7754182711269517,47.0068850820351,0.2711055467549693,0.12743827281413134,0.099609375,,
1.733574999999255,1200,,,,-0.03125,0.0625,-0.966796875,0.0164278207562213,0.7524312878676038,22.553717765091427,0.26141560920150825,1613,0,5.895893869320255,2.7749517467094122,47.06583612620795,0.2711511249735605,0.1276195441344253,0.099609375,,
1.74175,1200,,,,0,-0.005859375,-0.974609375,0.0164278207562213,0.7524312878676038,22.55387029363944,0.2627441229963303,1613,0,5.925896870475282,2.7742270770886663,46.81531146636647,0.27122195370438873,0.12697340239187385,0.099609375,,
1.7500400000000373,1200,,,,0,0.08203125,-0.9921875,0.0164278207562213,0.7524312878676038,22.553778274426417,0.26205517652859234,1612,0,5.9103343470915455,2.7727091647490414,46.91289869436036,0.2713704334495921,0.12730773653065372,0.099609375,,
1.7588899999996648,1200,,,,-0.125,0.0234375,-0.9921875,0.0164278207562213,0.7524312878676038,22.553821624314395,0.2638946231734936,1611,0,5.951832258670638,2.77211503187954,46.5758259205158,0.2714285948507133,0.12642010983617033,0.099609375,,
1.7669749999996274,1200,,,,-0.0625,0.0546875,-0.9609375,0.0164278207562213,0.7524312878676038,22.55372171355558,0.26371820021217546,1611,0,5.947826898385139,2.7718649135443525,46.602985609701015,0.27145308712230076,0.126505243128695,0.099609375,,
1.7747599999988453,1200,,,,0,0.0078125,-0.931640625,0.0164278207562213,0.7524312878676038,22.553636960852153,0.2628205368135527,1611,0,5.9275589731491465,2.7717800262376886,46.76090172688943,0.2714614005242422,0.12693779872557862,0.099609375,,
1.781914999999106,1200,,,,-0.0625,0.08984375,-0.94921875,0.0164278207562213,0.7524312878676038,22.553624041447026,0.26365811108438736,1611,0,5.946445912875349,2.7717491833102086,46.61186234467833,0.27146442123922626,0.12653462234280588,0.099609375,,
1.7909799999995157,1200,,,,0,0.03515625,-0.962890625,0.0164278207562213,0.7524312878676038,22.55364253269103,0.26564322308147054,1611,0,5.991222294611386,2.7717345852464055,46.26325729458168,0.2714658509774713,0.1255889451046332,0.099609375,,
1.7996499999994413,1200,,,,-0.03125,0.033203125,-0.970703125,0.01624477760945848,0.7524312878676038,22.553542945627747,0.2671856430069617,1613,0,6.025982874012675,2.743895535561324,45.5344064682709,0.2742200926077448,0.1248644915856794,0.099609375,,
1.8088349999999627,1200,,,,-0.0625,0.021484375,-0.96875,0.01624477760945848,0.7524312878676038,22.55327003343923,0.2661178492118835,1613,0,6.001827713993671,2.7447980015514486,45.73270230919433,0.27412993139834163,0.1253670254668022,0.099609375,,
1.8170849999990315,1200,,,,-0.0625,0.05859375,-0.9765625,0.01624477760945848,0.7524312878676038,22.55341974944474,0.2653436768675263,1614,0,5.984407322254351,2.745172984505672,45.87209453970713,0.2740924860161756,0.1257319643115736,0.099609375,,
1.8251049999995157,1200,,,,0,0.02734375,-1.01953125,0.01624477760945848,0.7524312878676038,22.55341555192133,0.2657586824996495,1614,0,5.993766002945718,2.7455530693192522,45.80681107620672,0.2740545416061347,0.12553564611928647,0.099609375,,
1.8330099999988452,1200,,,,-0.0625,0.02734375,-0.958984375,0.01624477760945848,0.7524312878676038,22.55354168723967,0.2669937376824317,1614,0,6.021654393052656,2.7457002051205146,45.59710713866778,0.2740398556493454,0.12495424658308255,0.099609375,,
1.8412849999992178,1200,,,,0,0,-0.9609375,0.01624477760945848,0.7524312878676038,22.55353152302518,0.26678993800597106,1614,0,6.017055276843601,2.7457587254112927,45.632931709606126,0.2740340150443829,0.12504975494629503,0.099609375,,
1.8495999999996275,1200,,,,-0.03125,0.041015625,-0.962890625,0.01624477760945848,0.7524312878676038,22.55352083638478,0.2671662791800186,1614,0,6.025540244265943,2.745254759726634,45.560309091605326,0.2740843213919167,0.12487366399778617,0.099609375,,
1.8576899999994785,1200,,,,-0.03125,0.068359375,-1.00390625,0.01624477760945848,0.7524312878676038,22.553445937912322,0.26706061367014733,1613,0,6.023137112555356,2.7445799229548578,45.56728282399089,0.27415171319096604,0.12492348651654384,0.099609375,,
1.8658149999994784,1200,,,,-0.0625,0,-1.05859375,0.01624477760945848,0.7596756749958207,22.553440536270855,0.26844225990624276,1613,0,6.054296546217612,2.744316078220387,45.32840532786395,0.27681784945429805,0.12547711682052043,0.1015625,,
1.8730999999996274,1200,,,,-0.0625,0.041015625,-0.978515625,0.01624477760945848,0.7596756749958207,22.55355318338834,0.26714648718841133,1613,0,6.0251025065592065,2.744217339375027,45.546400851894965,0.2768278095527341,0.12608510380840865,0.1015625,,
1.8836399999996647,1200,,,,-0.0625,0.1171875,-0.9609375,0.01624477760945848,0.7596756749958207,22.553283840830453,0.2679913985426503,1613,0,6.044086078233509,2.74342667161769,45.39026473328296,0.27690759255754777,0.1256890893284315,0.099609375,,
1.8919349999995903,1200,,,,-0.03125,0.01171875,-1.005859375,0.01624477760945848,0.7596756749958207,22.553465109940397,0.2670343997403765,1612,0,6.022551017698459,2.7430617463450275,45.54650908367563,0.2769444311663946,0.12613852049793572,0.099609375,,
1.899734999999404,1200,,,,0,0.08203125,-0.986328125,0.01624477760945848,0.7596756749958207,22.553491352400123,0.26597790908920543,1612,0,5.998730472572861,2.7429663750453104,45.72578127299741,0.27695406035856773,0.12663940786624392,0.099609375,,
1.908875,1200,,,,-0.03125,-0.0546875,-0.98046875,0.01624477760945848,0.7596756749958207,22.55374214457575,0.2665621104948463,1612,0,6.011973105614673,2.742432642092359,45.61618280579398,0.27700796122971344,0.12636045798114898,0.099609375,,
1.916234999999404,1200,,,,-0.0625,0.060546875,-0.96875,0.01624477760945848,0.7596756749958207,22.553866339635757,0.26719323095188835,1612,0,6.026240417744318,2.7422056521867058,45.504418378534275,0.2770308909508795,0.12606129565606924,0.099609375,,
1.923214999999851,1200,,,,0.0625,0.00390625,-0.98828125,0.01624477760945848,0.7596756749958207,22.55370097928324,0.2671003390121031,1612,0,6.024101177544155,2.742134467790123,45.519395955896094,0.2770380825299354,0.1261060617354235,0.099609375,,
1.9323549999995158,1200,,,,-0.0625,0.12890625,-0.982421875,0.01624477760945848,0.7596756749958207,22.554211352433086,0.26699749123322547,1612,0,6.021917847843567,2.741598635635468,45.52700161157508,0.27709222827933655,0.12615178323428283,0.1015625,,
1.9392249999996274,1200,,,,-0.0625,-0.01171875,-1.02734375,0.01624477760945848,0.7596756749958207,22.554298405917464,0.2667958579290863,1611,0,6.0173933931953725,2.7413910086673856,45.55778273973949,0.2771132146395657,0.1262466362686013,0.1015625,,
1.9485649999994785,1200,,,,-0.03125,0.06640625,-0.974609375,0.016261828638473762,0.7596756749958207,22.554393086645803,0.2666973865819626,1611,0,6.015197692150721,2.74418004932322,45.620779062741725,0.2768315713042134,0.1262927195206115,0.099609375,,
1.9571149999992923,1200,,,,-0.0625,0.029296875,-0.9609375,0.016261828638473762,0.7596756749958207,22.55427638978766,0.2666156424968978,1611,0,6.013322890715849,2.744150640255587,45.63451339844671,0.27683453810868974,0.12633209438473808,0.099609375,,
1.9648250000001863,1200,,,,0,-0.05078125,-0.94140625,0.016261828638473762,0.7596756749958207,22.554229472247126,0.2662117396307088,1611,0,6.0042006638371115,2.7441390107767707,45.7036525661864,0.2768357113150703,0.1265240316785705,0.099609375,,
1.9718899999996646,1200,,,,-0.03125,0.0234375,-0.95703125,0.016261828638473762,0.7596756749958207,22.554133973920216,0.26671902487347116,1611,0,6.015616620389627,2.7441347179963405,45.6168484656292,0.2768361443823378,0.12628392448098147,0.099609375,,
1.9794749999996275,1200,,,,-0.0625,0.0625,-0.9609375,0.016261828638473762,0.7596756749958207,22.55383554384578,0.2650527169566905,1611,0,5.9779553886907015,2.7441328335020447,45.90420394728084,0.2768363344956328,0.12707951558705186,0.099609375,,
1.9880649999994784,1200,,,,-0.0625,0.109375,-0.9765625,0.016261828638473762,0.7596756749958207,22.553810781020488,0.2654806168546921,1611,0,5.987599598569324,2.743629868502548,45.821866063958424,0.27688708441217175,0.12687482896774485,0.099609375,,
1.9961849999995902,1200,,,,-0.03125,0.033203125,-0.96484375,0.016261828638473762,0.7596756749958207,22.553918162762432,0.2646599719697555,1611,0,5.969119348764865,2.7434339288100023,45.96044690206564,0.2769068600552517,0.12726763038387118,0.099609375,,
2.004379999998957,1200,,,,-0.0625,0.095703125,-0.9921875,0.016261828638473762,0.7596756749958207,22.553758703567055,0.2631868837377156,1611,0,5.935853469764194,2.7433565192326097,46.21671564513185,0.27691467356503935,0.12798086726119934,0.099609375,,
2.0128549999995156,1200,,,,-0.0625,0.0546875,-0.94140625,0.016261828638473762,0.763540945518669,22.553869106509854,0.2645591061184886,1610,0,5.966831450331642,2.742575881631823,45.963689513626,0.2784028513604389,0.1279642221963938,0.099609375,,
2.0213849999997766,1200,,,,-0.0625,0.064453125,-0.994140625,0.016261828638473762,0.763540945518669,22.553912676257067,0.26422893448830737,1610,0,5.959396314989734,2.7422518523408175,46.015598013563924,0.27843574792989995,0.1281238744934829,0.099609375,,
2.0298699999991805,1200,,,,-0.0625,0.0625,-0.935546875,0.016261828638473762,0.763540945518669,22.55401656014319,0.2649159620111206,1610,0,5.974918994245078,2.7421405442053017,45.89418780148277,0.27844705010915133,0.12779101210478275,0.099609375,,
2.0403399999989196,1200,,,,-0.0625,-0.06640625,-1.01171875,0.016261828638473762,0.763540945518669,22.55426615940005,0.26445594013210194,1610,0,5.964609661173792,2.742095414738308,45.97275547782759,0.2784516327968615,0.12801188826971951,0.099609375,,
2.0601799999987707,1200,,,,-0.01953125,0.005859375,-0.994140625,0.016261828638473762,0.763540945518669,22.554271960581858,0.2647035047644239,1610,0,5.970194835375992,2.7419826761298274,45.92785916939246,0.2784630815379072,0.1278921319274805,0.099609375,,
2.068204999999143,1200,,,,-0.0625,0.09765625,-0.9765625,0.016261828638473762,0.763540945518669,22.554420803870478,0.2647190436063034,1610,0,5.970584704294705,2.741538354356597,45.917418312222914,0.27850821211577104,0.1278837807910917,0.099609375,,
2.0792000000001862,1200,,,,-0.0625,0.033203125,-0.95703125,0.016261828638473762,0.763540945518669,22.554437285736316,0.265176162357225,1610,0,5.980899123558263,2.7413330462154306,45.834798239909254,0.27852907058220516,0.12766323754084816,0.099609375,,
2.0869399999994784,1200,,,,0.125,0,-1.0390625,0.016261828638473762,0.763540945518669,22.554448404773147,0.26580071859195376,1610,0,5.994988593433848,2.7419004386856094,45.73654137872323,0.2784714334429624,0.1273632023845642,0.099609375,,
2.0952049999991433,1200,,,,-0.0625,0.1015625,-0.962890625,0.016261828638473762,0.763540945518669,22.554426135053003,0.26560006618929666,1611,0,5.99045707433168,2.7427584311044506,45.785461728067624,0.27838432173233985,0.1274595470837011,0.1015625,,
2.1038749999990687,1200,,,,-0.0625,0.01953125,-0.990234375,0.016563688527312367,0.763540945518669,22.554503826772493,0.2662137094165759,1611,0,6.004318127775462,2.7940095207493716,46.533335864142884,0.27327786102671636,0.12716530491390754,0.1015625,,
2.1122649999996645,1200,,,,-0.0625,0.05859375,-0.98828125,0.016563688527312367,0.763540945518669,22.554585029865734,0.2657956971127209,1611,0,5.994911651101302,2.7945960448051688,46.6161339390512,0.27322050603270676,0.12736483704116006,0.099609375,,
2.120049999998882,1200,,,,-0.03125,0.0859375,-0.974609375,0.016563688527312367,0.763540945518669,22.55458902633501,0.26597057693492626,1612,0,5.998857055864479,2.7956464732887514,46.602985322941294,0.273117846914475,0.12728107011188602,0.099609375,,
2.128219999999739,1200,,,,-0.03125,0.048828125,-0.97265625,0.016563688527312367,0.763540945518669,22.554657588913923,0.26497604426368154,1612,0,5.976443947632236,2.7960587015719844,46.784655324672364,0.27307758062782994,0.12775840486568452,0.099609375,,
2.136224999998696,1200,,,,-0.0625,-0.01953125,-0.9921875,0.016563688527312367,0.763540945518669,22.554724173773856,0.26562396897104007,1612,0,5.991075354084874,2.7962244285634177,46.67316405320921,0.27306139583042843,0.12744639324191886,0.099609375,,
2.1441899999994787,1200,,,,-0.03125,0.015625,-0.974609375,0.016563688527312367,0.763540945518669,22.5545913998403,0.26448259135261526,1611,0,5.965296780329173,2.795104463245141,46.85608388273523,0.27317080830395557,0.12799714308204727,0.099609375,,
2.1555,1200,,,,-0.09375,0.08984375,-0.970703125,0.016563688527312367,0.763540945518669,22.554675228576922,0.26244904413364484,1611,0,5.919452954484811,2.793962061682351,47.19966664428906,0.27328250300539586,0.1289884304157161,0.099609375,,
2.16430999999959,1200,,,,-0.0625,0.056640625,-0.96484375,0.016563688527312367,0.7701798991427025,22.554695382858874,0.26220490089814064,1611,0,5.913951667650261,2.79357346112702,47.23700189178188,0.2756970274309473,0.130231010063143,0.099609375,,
2.172024999999441,1200,,,,-0.03125,0.025390625,-0.962890625,0.016563688527312367,0.7701798991427025,22.55485816437228,0.2613822691540503,1610,0,5.895440007451383,2.793461491958928,47.38342665565602,0.2757080780815096,0.13063993496147094,0.099609375,,
2.180129999999888,1200,,,,-0.0625,0.03125,-0.89453125,0.016563688527312367,0.7701798991427025,22.55491513212513,0.2628610335455723,1610,0,5.92880830316308,2.793417033322894,47.11599516268012,0.2757124661141409,0.12990467219724472,0.099609375,,
2.19093499999959,1200,,,,-0.03125,-0.015625,-0.9765625,0.016563688527312367,0.7701798991427025,22.554641563052915,0.26743435338955035,1610,0,6.0318859823481334,2.7933999988559526,46.31055704684456,0.27571414743972666,0.12768475753629574,0.099609375,,
2.1989049999993293,1200,,,,0,0.056640625,-0.96484375,0.016563688527312367,0.7701798991427025,22.55432716767223,0.2721229106627351,1614,0,6.137549156906569,2.799315831364519,45.60966861201357,0.27513147695352413,0.12548655488584085,0.099609375,,
2.207375,1200,,,,-0.09375,0.0546875,-1.001953125,0.016563688527312367,0.7701798991427025,22.554045664132445,0.2703574812293406,1615,0,6.097654977286378,2.8007481204764355,45.931561082238275,0.27499077604011285,0.1263075562673855,0.099609375,,
2.216704999999143,1200,,,,-0.125,0.109375,-0.9609375,0.016563688527312367,0.7701798991427025,22.554238727541488,0.26711634856465793,1615,0,6.024605893556479,2.8014516388328787,46.500164298367245,0.2749217186071324,0.12783905084421143,0.099609375,,
2.2240299999993294,1200,,,,0,0.01171875,-0.9609375,0.016563688527312367,0.7701798991427025,22.554324251966158,0.26648774287511445,1620,0,6.010450961979916,2.8106210406614274,46.76223229239316,0.2740248108871536,0.12814011860584182,0.099609375,,
2.233524999999441,1200,,,,-0.03125,0.076171875,-1,0.016563688527312367,0.7701798991427025,22.554525989840794,0.2658714876102787,1623,0,5.996605377263665,2.814501509711076,46.93491288225093,0.2736470016041191,0.1284359818077851,0.099609375,,
2.241570000000298,1200,,,,-0.0625,0.03515625,-1.0078125,0.016563688527312367,0.7701798991427025,22.55459893373721,0.2655079732210582,1623,0,5.988425849710406,2.815822106855873,47.02107327574312,0.27351866343668985,0.12861141115739916,0.099609375,,
2.2492749999994412,1200,,,,-0.0625,0.01953125,-1,0.01639674001633385,0.7701798991427025,22.554374268661576,0.26994072881427694,1621,0,6.08834422803248,2.7841283909803005,45.72882686496891,0.27663232113786235,0.12650071518567785,0.099609375,,
2.2569399999994784,1200,,,,-0.03125,0.03515625,-0.951171875,0.01639674001633385,0.7701798991427025,22.55432346437874,0.27245905953468463,1621,0,6.145129759545702,2.7828168858731193,45.28491658862624,0.2767626943233297,0.12533175527275447,0.099609375,,
2.265289999999106,1200,,,,-0.125,0.05078125,-0.95703125,0.01639674001633385,0.7701798991427025,22.554504991714094,0.27257395688198144,1620,0,6.147770671105913,2.78229630624099,45.25699566702424,0.2768144778164375,0.1252779162310809,0.099609375,,
2.2817649999996648,1200,,,,-0.0625,0.0390625,-1.0078125,0.01639674001633385,0.7701798991427025,22.554651205382292,0.26834237937045924,1627,0,6.05236877032308,2.793258498085885,46.151492152663046,0.2757281145552686,0.12725263915166055,0.099609375,,
2.290274999999441,1200,,,,-0.125,0.0859375,-0.94921875,0.01639674001633385,0.7701798991427025,22.55465199294416,0.26772562445767367,1629,0,6.038458289236489,2.7975466117052514,46.32882232029091,0.27530547513316944,0.12754578441247874,0.099609375,,
2.2982599999997766,1200,,,,0,-0.01171875,-1.001953125,0.01639674001633385,0.7701798991427025,22.554621168375117,0.2674436051309301,1629,0,6.032089197632631,2.796834023522727,46.3659261640292,0.2753756185262039,0.1276804559595984,0.099609375,,
2.306284999999218,1200,,,,-0.03125,0.091796875,-1.017578125,0.01639674001633385,0.7701798991427025,22.55468920149594,0.26796602420363663,1626,0,6.043890392473563,2.7919003251375702,46.193761697172974,0.27586224773434637,0.12743114933086888,0.099609375,,
2.31421499999892,1200,,,,-0.125,0.08203125,-0.890625,0.01639674001633385,0.773461241556287,22.5545580530514,0.2675046802449034,1625,0,6.033449840046627,2.7899717225067175,46.24173228371708,0.2772290612541951,0.12819552031782694,0.099609375,,
2.3214799999995157,1200,,,,-0.03125,0.025390625,-1.013671875,0.01639674001633385,0.773461241556287,22.55462076769333,0.26739688896929426,1624,0,6.031035425163432,2.789255559297242,46.2483696855695,0.2773002419868483,0.1282468410530564,0.1015625,,
2.3290549999987706,1200,,,,-0.03125,0.015625,-0.984375,0.01639674001633385,0.773461241556287,22.55497871291194,0.2685449237198754,1621,0,6.057025037962349,2.78410433864331,45.96488079864226,0.2778133099469949,0.12769655675989877,0.1015625,,
2.3366399999996648,1200,,,,-0.125,0.10546875,-0.99609375,0.01639674001633385,0.773461241556287,22.555023122134656,0.2695232668643395,1620,0,6.079103516078447,2.782176753435289,45.76623421655495,0.27800578830991124,0.1272327802134939,0.1015625,,
2.3471599999992176,1200,,,,0,0.05859375,-1.00390625,0.01639674001633385,0.773461241556287,22.555149983882778,0.26915724496279064,1620,0,6.07088202938442,2.7812288878380445,45.81259978988683,0.27810053496083453,0.12740508509514145,0.099609375,,
2.3554749999986964,1200,,,,-0.03125,0.013671875,-0.970703125,0.01639674001633385,0.773461241556287,22.5550182302961,0.26900363633503993,1618,0,6.067381921552768,2.7786061197340857,45.795800489562446,0.27836303823814645,0.12747858162822598,0.099609375,,
2.363434999998659,1200,,,,-0.125,0.0625,-0.984375,0.01639674001633385,0.773461241556287,22.554870483516567,0.2686490080318716,1617,0,6.0593435816840655,2.7768248961443267,45.82715699664232,0.27854159714220816,0.12764769502331472,0.099609375,,
2.3713499999996275,1200,,,,0,-0.001953125,-1.005859375,0.01639674001633385,0.773461241556287,22.554990168016467,0.2673136107844351,1617,0,6.029255863019914,2.776125438315729,46.04424660998268,0.27861177700440826,0.12828469368836476,0.099609375,,
2.3795400000000373,1200,,,,-0.03125,0.09765625,-0.98046875,0.01639674001633385,0.773461241556287,22.555040167157273,0.2649476951471051,1616,0,5.975905906238696,2.775420783760658,46.44351546538222,0.2786825140468457,0.12942995651066275,0.099609375,,
2.387954999999143,1200,,,,-0.0625,0.02734375,-0.95703125,0.01639674001633385,0.773461241556287,22.555087780874413,0.2648440431779827,1616,0,5.973580642121093,2.7742955350825493,46.44275688722359,0.278795547112926,0.12948033815806112,0.099609375,,
2.395769999999553,1200,,,,-0.0625,0.0390625,-0.96875,0.01639674001633385,0.773461241556287,22.555243227838062,0.26554804107164176,1615,0,5.989500655046811,2.7738376033435537,46.31166708373746,0.27884157335813936,0.1291361811446771,0.099609375,,
2.402989999999292,1200,,,,0,-0.0078125,-0.984375,0.015988899203171647,0.773461241556287,22.555189815390378,0.264405098832,1615,0,5.963707192312812,2.7046970413529143,45.35261296596276,0.28596964086202964,0.12969470442031,0.099609375,,
2.411659999999218,1200,,,,-0.125,0.03515625,-0.98046875,0.015988899203171647,0.773461241556287,22.555367242673654,0.2639943166299722,1614,0,5.954488761567691,2.702362394215831,45.38361734189177,0.28621669810526257,0.12989549103668996,0.099609375,,
2.419559999998659,1200,,,,0,0.037109375,-1.01171875,0.015988899203171647,0.773461241556287,22.55529990475248,0.26308194946427205,1613,0,5.933892269693592,2.7014861310628526,45.52637642008201,0.28630953631880474,0.13034635723109045,0.099609375,,
2.4275699999993665,1200,,,,-0.03125,0.02734375,-0.970703125,0.015988899203171647,0.773461241556287,22.555333985685508,0.2635974933486362,1613,0,5.9455295002680035,2.701144492192979,45.431521146623204,0.28634574854910366,0.13009122930454253,0.099609375,,
2.43521499999892,1200,,,,-0.0625,0.16796875,-1,0.015988899203171647,0.773461241556287,22.55530153026652,0.26324452416359867,1613,0,5.937559618701498,2.7014987883689865,45.49847010984262,0.2863081948755045,0.13026584846746136,0.099609375,,
2.444009999998845,1200,,,,-0.03125,0.00390625,-0.958984375,0.015988899203171647,0.773461241556287,22.555437859941215,0.2646479357694607,1614,0,5.969250070009785,2.7016423255524056,45.259325608182756,0.2862929834348583,0.12957427356616324,0.1015625,,
2.4523099999995903,1200,,,,0,0.0703125,-0.974609375,0.015988899203171647,0.773461241556287,22.555468163344244,0.2650182468330731,1614,0,5.977610629148687,2.7016994140809873,45.19697888829797,0.28628693389245463,0.1293930450713283,0.1015625,,
2.4597199999997392,1200,,,,-0.1875,-0.0078125,-0.94140625,0.015988899203171647,0.773461241556287,22.55522934656887,0.2681468266491715,1614,0,6.048113173626708,2.7017180907757488,44.67042882988386,0.2862849548208051,0.1278847169938929,0.1015625,,
2.4676899999994784,1200,,,,0.0625,0.07421875,-0.89453125,0.015988899203171647,0.7748366126867642,22.555071933273663,0.2734952358879525,1614,0,6.168704718860417,2.701726658108344,43.79730885558501,0.286793118156993,0.12560766773578108,0.1015625,,
2.476129999999888,1200,,,,-0.09375,0.0703125,-0.96875,0.015988899203171647,0.7748366126867642,22.554924307206363,0.27747325154228075,1614,0,6.258388185810573,2.701730030043293,43.16974194999332,0.2867927602205125,0.12380769451845836,0.1015625,,
2.4836499999994412,1200,,,,-0.0625,0.0234375,-0.9609375,0.015988899203171647,0.7748366126867642,22.554765153397682,0.2736041612068393,1616,0,6.1710776010126205,2.7062728658090105,43.854137652797206,0.28631134076538706,0.12555936949482213,0.103515625,,
2.4905049999998883,1200,,,,0,0.14453125,-0.99609375,0.015988899203171647,0.7748366126867642,22.55481838807244,0.27230044542833143,1622,0,6.141687093627246,2.7157257828092245,44.217911811676686,0.28531474627944614,0.1261602228955546,0.103515625,,
2.5005449999999256,1200,,,,-0.0625,0.001953125,-1.00390625,0.015988899203171647,0.7748366126867642,22.55469451163594,0.268830524301194,1624,0,6.063390351016352,2.719906369672941,44.8578470494981,0.28487620799238594,0.12778933366163459,0.103515625,,
2.511375,1200,,,,-0.03125,0.099609375,-0.9921875,0.015988899203171647,0.7748366126867642,22.5547843324278,0.2673759538982386,1626,0,6.03060697585193,2.7221347248816534,45.1386524736526,0.2846430066830916,0.12848401757723646,0.103515625,,
2.5197449999991806,1200,,,,-0.03125,0.03515625,-0.970703125,0.015988899203171647,0.7748366126867642,22.55499000378785,0.2670175651646021,1624,0,6.022578513123372,2.719933570518315,45.16227666590816,0.2848733590721887,0.12865529457164784,0.103515625,,
2.5278300000000744,1200,,,,0,0.07421875,-1.005859375,0.015988899203171647,0.7748366126867642,22.555096938172614,0.26653108844567425,1624,0,6.011634536928842,2.7193502428145413,45.234789741622805,0.28493446724420624,0.12888950715932979,0.103515625,,
2.536040000000037,1200,,,,-0.09375,0.08203125,-0.9453125,0.015988899203171647,0.7748366126867642,22.55514508161943,0.2659312011233508,1623,0,5.998116823066493,2.716924140135512,45.29628582236424,0.28518890212669595,0.12917998024097083,0.103515625,,
2.5445699999993665,1200,,,,-0.0625,-0.04296875,-1.0234375,0.015988899203171647,0.7748366126867642,22.555187372108893,0.2665296001659374,1620,0,6.011625071955984,2.7119051882905123,45.11101666904433,0.28571670426840895,0.12888971008876607,0.103515625,,
2.553484999999404,1200,,,,-0.03125,0.04296875,-0.958984375,0.015264240296087564,0.7748366126867642,22.55523169490246,0.2655031931557008,1618,0,5.9884860373632725,2.5870211657996136,43.1999198070883,0.2995091895381817,0.1293877296953546,0.103515625,,
2.561344999999739,1200,,,,0,0.0859375,-0.94140625,0.015264240296087564,0.7748366126867642,22.55520372401124,0.26612423330103585,1618,0,6.00248629800116,2.586341018623857,43.08782877996929,0.2995879534474692,0.12908594442685964,0.103515625,,
2.5684049999993293,1200,,,,-0.03125,0.005859375,-0.943359375,0.015264240296087564,0.7748366126867642,22.555238173085208,0.2656551032995025,1616,0,5.991914126815833,2.583674348379795,43.1193487372755,0.29989716512557363,0.12931370448369905,0.103515625,,
2.5767149999989196,1200,,,,-0.125,0.01171875,-0.95703125,0.015264240296087564,0.7748366126867642,22.55508061924715,0.2655186997374748,1616,0,5.9887956784964205,2.582433027840075,43.121074193809115,0.3000413193037695,0.12938103990906213,0.103515625,,
2.585664999999106,1200,,,,-0.0625,0.02734375,-0.998046875,0.015264240296087564,0.7748366126867642,22.55498478480211,0.26537235447916857,1615,0,5.985469417584759,2.5819087299642547,43.13627803992857,0.30010224749404346,0.12945293988310516,0.10546875,,
2.5937599999997767,1200,,,,-0.03125,0.080078125,-0.951171875,0.015264240296087564,0.7748366126867642,22.55503523210783,0.26487057369088596,1614,0,5.974165121546546,2.580467709238419,43.19377949450462,0.30026983477171426,0.1296978903198076,0.10546875,,
2.601679999999702,1200,,,,-0.03125,0.052734375,-1.005859375,0.015264240296087564,0.7748366126867642,22.5549521617229,0.2655142898276287,1614,0,5.988662105315994,2.5792821911242223,43.06942261502205,0.30040784810328913,0.12938392566829912,0.103515625,,
2.6107400000002237,1200,,,,-0.0625,0.064453125,-0.978515625,0.015264240296087564,0.7748366126867642,22.554900324512126,0.26690580911679085,1613,0,6.0200339206624776,2.578786439241306,42.836742670006785,0.3004655992043783,0.1287096755430735,0.103515625,,
2.6182299999995156,1200,,,,0,0.01953125,-0.9453125,0.015264240296087564,0.7749457925141343,22.554627315000296,0.26915494991207545,1614,0,6.070689585254433,2.5797937961353994,42.49589375153788,0.30039059465722573,0.12765366794514746,0.103515625,,
2.62580999999959,1200,,,,-0.125,0.01171875,-0.9765625,0.015264240296087564,0.7749457925141343,22.554860941204108,0.26897521792058743,1615,0,6.066698636828921,2.5812665610867853,42.54812568761484,0.30021920409020464,0.12773764429465717,0.103515625,,
2.6332799999993295,1200,,,,0,0.01953125,-0.955078125,0.015264240296087564,0.7749457925141343,22.554723204779787,0.2683143607733977,1615,0,6.051756139111409,2.5819428675416414,42.66435738966761,0.30014056556254765,0.12805304356297495,0.103515625,,
2.641079999999143,1200,,,,-0.03125,0.060546875,-1.005859375,0.015264240296087564,0.7749457925141343,22.554720412908807,0.2659077269506049,1615,0,5.99747443700299,2.5822168375640215,43.05507034148171,0.3001087210186394,0.12921202093549633,0.103515625,,
2.6505849999990314,1200,,,,-0.125,0.078125,-0.90625,0.015264240296087564,0.7749457925141343,22.55486417788259,0.26700970350236164,1618,0,6.022367596672468,2.5856476978982537,42.934072960390175,0.29971051088825823,0.12867792941472292,0.103515625,,
2.6602450000001117,1200,,,,-0.0625,0.025390625,-0.990234375,0.015264240296087564,0.7749457925141343,22.55473525248234,0.2670974943837158,1619,0,6.0243132724261,2.587491585204123,42.950813946667374,0.29949693245205283,0.12863637023345728,0.103515625,,
2.668379999999888,1200,,,,0,0.029296875,-1.009765625,0.015264240296087564,0.7749457925141343,22.554801324284636,0.26653608102127796,1619,0,6.011668353188357,2.587598088185763,43.04292812183162,0.29948460545411454,0.12890694346156553,0.103515625,,
2.681539999999106,1200,,,,-0.09375,0.078125,-0.966796875,0.015264240296087564,0.7749457925141343,22.55506519526089,0.26641139583301543,1618,0,6.008926401774119,2.5863212320759654,43.041319848956064,0.2996324597668433,0.12896576537954163,0.103515625,,
2.6894799999995156,1200,,,,-0.041015625,0.046875,-0.947265625,0.015264240296087564,0.7749457925141343,22.555152869028287,0.2662014633026369,1618,0,6.0042146987499985,2.5860791657402795,43.071064168952326,0.2996605064455951,0.1290669690201898,0.103515625,,
2.6976749999988825,1200,,,,-0.125,0.04296875,-0.94140625,0.01551887003546133,0.7749457925141343,22.554998621300847,0.2669941628980229,1617,0,6.02205297606028,2.628271086334501,43.644104374086005,0.2948500238591852,0.1286846521601203,0.103515625,,0.21348500000033527,5451,
2.7049249999998137,1200,,,,-0.03125,0.044921875,-0.98828125,0.01551887003546133,0.7749457925141343,22.555046794596876,0.26689951575067683,1617,0,6.019931067211762,2.627068905855103,43.63951806962927,0.29498495101783095,0.12873001100211337,0.103515625,,
2.720665000000037,1500,,,,-0.03125,0.015625,-0.96875,0.01551887003546133,0.7749457925141343,22.55543387940043,0.26742862251002975,1616,0,6.031968612484113,2.62640002809014,43.54134109143721,0.2950600762358572,0.12847311421850927,0.1015625,,
2.729609999999404,1500,,,,0,-0.03515625,-1.00390625,0.01551887003546133,0.7749457925141343,22.55560435471107,0.26695923176835745,1615,0,6.021426810604685,2.6250713006523188,43.59550291351467,0.2952094262436086,0.12869803401900232,0.1015625,,
2.7372549999998883,1500,,,,-0.03125,0.009765625,-0.955078125,0.01551887003546133,0.7749457925141343,22.555286155642385,0.2663100255520156,1615,0,6.006698832442147,2.624586712725186,43.69432838133664,0.29526393193901573,0.12901359201307985,0.1015625,,
2.7519199999989943,1500,,,,-0.3125,-0.130859375,-1.0234375,0.01551887003546133,0.7749457925141343,22.524585020191516,1.3875660797761635,1615,0,31.25435013505204,2.624359334070927,8.396781000823575,0.29528951407429116,0.024794813815214336,0.109375,,
2.758819999999367,1500,,,,-0.125,-0.26171875,-0.8046875,0.01551887003546133,0.771396238706117,22.50952154038367,1.85437055818391,1680,0,41.740994023294014,2.7307335495713847,6.542090368158145,0.28248682073986864,0.018480543090939112,0.12109375,,
2.766424999999814,1500,,,,0,0.0859375,-0.96875,0.01551887003546133,0.771396238706117,22.500006436333543,2.127827494998949,1929,0,47.87613233288383,3.1352414308956216,6.548652278542923,0.24604045835339633,0.01611233408209714,0.125,,
2.774454999999143,1500,,,,0.0625,-0.125,-1.064453125,0.01551887003546133,0.771396238706117,22.49155025636523,2.349753414523119,2164,0,52.84959701281253,3.5169281707177413,6.654597895732524,0.21933807040155984,0.014596066617482521,0.126953125,,
2.7827249999996275,1500,,,,-0.125,-0.12890625,-0.73828125,0.01551887003546133,0.771396238706117,22.484997596791864,2.514270372282692,2400,0,56.533363278461316,3.9004087878799396,6.899304342938251,0.19777317728929844,0.013644973409887533,0.12890625,,
2.790644999999553,1500,,,,0.1875,0.31640625,-1.072265625,0.01551887003546133,0.771396238706117,22.479889026526358,2.6411385578995383,2634,0,59.37250168526148,4.281133664608383,7.2106337834693655,0.18018503955696522,0.012992483335052176,0.1328125,,
2.801149999999441,1500,,,,-0.15625,-0.396484375,-0.908203125,0.01551887003546133,0.771396238706117,22.475971114058616,2.7309745441065014,2905,0,61.38130496656712,4.720409079934473,7.690304209898377,0.16341724321842568,0.012567283134926463,0.13671875,,
2.8111699999999256,1500,,,,0.0625,0.287109375,-1,0.01551887003546133,0.771396238706117,22.47161243620046,2.8290310884035454,4535,0,63.57289018856683,7.370354531569257,11.59354956131091,0.10466202614840502,0.012134043873387521,0.140625,,
2.8183650000002234,1500,,,,-0.375,0.083984375,-1.142578125,0.01551887003546133,0.771396238706117,22.46940689831642,2.8758645424525118,5585,0,64.61897058880606,9.075737671260653,14.045005032675098,0.08499543140706128,0.01193761261866567,0.142578125,,
2.8252949999989942,1500,,,,-0.625,0.37890625,-1.51171875,0.01551887003546133,0.771396238706117,22.467674468693016,2.9084844164205816,5088,0,65.3468810654042,8.269116491000746,12.654186942333753,0.09328641573082506,0.011804637438381244,0.150390625,,
2.8336699999999255,1500,,,,0,0.0234375,-1.43359375,0.01551887003546133,0.771396238706117,22.46602407568029,2.9290546999621587,4662,0,65.80421340833438,7.5762277053390505,11.513286631550997,0.10181798497984762,0.011722596453199398,0.15234375,,
2.8414399999985473,1500,,,,-0.01953125,0.1015625,-0.8828125,0.01551887003546133,0.771396238706117,22.465336371810434,2.931068997407009,4333,0,65.84745095573362,7.041087225801621,10.69302930273647,0.10955640996455547,0.011714899020536013,0.158203125,,
2.849584999999963,1500,,,,0.0625,-0.3125,-0.6484375,0.015824501022726103,0.771396238706117,22.464878273476177,2.9232401808772477,3881,0,65.67023482754185,6.431558296967192,9.7937190476892,0.11993924381745394,0.011746512567404378,0.1640625,,
2.8568699999991805,1500,,,,-0.3125,0.2265625,-0.9765625,0.015824501022726103,0.771396238706117,22.464897767915947,2.9140187569024456,3756,0,65.46313346760296,6.223576060176643,9.506993830743877,0.12394742688887818,0.011783674227691424,0.166015625,,
2.8652949999989943,1500,,,,0.21875,0.126953125,-1.12109375,0.015824501022726103,0.771396238706117,22.465438359520594,2.8953545584292133,3710,0,65.04540936134846,6.147838387887842,9.451609957183289,0.12547438465947358,0.011859349434189264,0.16796875,,
2.8739199999999254,1500,,,,-0.40625,0.095703125,-1.05078125,0.015824501022726103,0.771396238706117,22.465944875384398,2.8724827156036947,3698,0,64.53303834424709,6.127488649105588,9.495118789260964,0.12589109223706443,0.011953508753007358,0.173828125,,
2.8814649999989195,1500,,,,0.6875,0.09765625,-1.0390625,0.015824501022726103,0.771396238706117,22.466309433402838,2.8490844115193883,3711,0,64.008411991079,6.148936399748641,9.606450478111585,0.12545197877435363,0.012051482214769337,0.177734375,,
2.896194999999367,1500,,,,0.15625,0.017578125,-0.9453125,0.015824501022726103,0.771396238706117,22.467168780862792,2.805020624973532,3743,0,63.02087181508158,6.201926117812384,9.84106683895191,0.12438010773630641,0.01224032953669031,0.189453125,,
2.9044199999999254,1500,,,,-0.4375,0.12109375,-0.83203125,0.015824501022726103,0.771396238706117,22.467833710159987,2.783045131207115,3759,0,62.52899521583184,6.2288841794831304,9.96159327042253,0.12384180159376908,0.01233661657353492,0.193359375,,
2.9188649999992924,1500,,,,-0.6875,-0.1484375,-0.69921875,0.015824501022726103,0.7735363728961085,22.468973957931404,2.7371462171848147,3769,0,61.50086707297606,6.245336333413481,10.154875257291662,0.1238582410298023,0.012577649872452063,0.19921875,,
2.9262449999991804,1500,,,,0.375,0.40234375,-1.3515625,0.015824501022726103,0.7735363728961085,22.46946858022158,2.7170794871637516,3779,0,61.05133216679048,6.261787485524126,10.256594349844985,0.1235328370188791,0.012670261981881566,0.203125,,
2.9337249999996273,1500,,,,-0.25,-0.130859375,-0.8125,0.015824501022726103,0.7735363728961085,22.470126518670554,2.6968491976927393,3789,0,60.59854267393103,6.278249654022843,10.36039709371376,0.12320892215562955,0.012764933590207892,0.20703125,,
2.941034999999218,1500,,,,0.40625,0.185546875,-1.13671875,0.015824501022726103,0.7735363728961085,22.470760907455297,2.675854641299523,3796,0,60.12848986774614,6.289964742741963,10.460872635545764,0.12297944496250124,0.012864723105428357,0.212890625,,
2.9574050000002607,1500,,,,0.25,0.255859375,-1.166015625,0.015824501022726103,0.7735363728961085,22.471729925008926,2.6312951643352642,3803,0,59.12975428592404,6.3019252398312275,10.657790339121052,0.12274604084589628,0.013082015682927514,0.22265625,,
2.980359999999404,1500,,,,0.75,0.38671875,-1.33984375,0.015824501022726103,0.7735363728961085,22.47326769018479,2.5659977582293725,3817,0,57.66635451310276,6.325739961810744,10.969550642174598,0.12228393477538456,0.013413998152429562,0.236328125,,
2.9880699999993667,1500,,,,-0.0625,0.0625,-0.951171875,0.015824501022726103,0.7735363728961085,22.473865573273645,2.5469147054368153,3817,0,57.23901871658083,6.32573306166771,11.051435198408267,0.12228406816334647,0.01351414455104963,0.240234375,,
3.008719999999739,1500,,,,0.53125,0.1484375,-1.1875,0.06412407623308865,0.7735363728961085,22.475309177724945,2.5020774674413477,3819,0,56.23496466736331,25.6453725089328,45.60396305150775,0.03016280510749728,0.01375543449652135,0.2578125,,
3.0207849999992176,1500,,,,-0.46875,-0.001953125,-0.900390625,0.06412407623308865,0.7735363728961085,22.47565866703536,2.4770506237189656,3822,0,55.67334431967451,25.661763789967925,46.093447597864646,0.030143538816241107,0.013894196268406083,0.265625,,
3.02805999999959,1500,,,,0.03125,-0.087890625,-0.884765625,0.06412407623308865,0.7735363728961085,22.47618128020566,2.4615196111605893,3825,0,55.32556100522675,25.685486142900547,46.42607445132634,0.030115699138126437,0.013981536903404026,0.2734375,,
3.0357599999997764,1500,,,,0.34375,0.17578125,-1.19140625,0.06412407623308865,0.7735363728961085,22.476527102951184,2.448741481169773,3827,0,55.03920426963323,25.699019372544818,46.69220733397073,0.030099840063255688,0.014054279729528931,0.27734375,,
3.0437999999988823,1500,,,,-0.625,-0.26953125,-0.73046875,0.06412407623308865,0.7735363728961085,22.476895660197187,2.43192312013264,3828,0,54.66208222484254,25.70423782808475,47.02389075182873,0.030093729215768993,0.014151242349574378,0.283203125,,
3.0517499999990685,1500,,,,0.25,0.189453125,-1.1015625,0.06412407623308865,0.7735363728961085,22.47717857620032,2.4199562731863344,3829,0,54.39378929900545,25.709989924434964,47.266407168483575,0.030086996345375226,0.014221042197371827,0.2890625,,
3.060019999999553,1500,,,,-0.5625,-0.166015625,-0.76953125,0.06412407623308865,3.0260135899916336,22.4775146010077,2.406160713716274,3830,0,54.08451257492866,25.7197077192721,47.5546630537532,0.1176534983608777,0.055949724716468426,0.296875,,
3.067894999999553,1500,,,,0.75,0.3984375,-1.2890625,0.06412407623308865,3.0260135899916336,22.478088262781515,2.3926200731694554,3829,0,53.78152518400579,25.7133602046742,47.81076794810043,0.11768254191226092,0.0562649270290971,0.302734375,,
3.0760249999994413,1500,,,,-0.5,-0.181640625,-0.744140625,0.06412407623308865,3.0260135899916336,22.478184716564968,2.379549403303234,3827,0,53.48795102964204,25.696669223426053,48.04197717199044,0.11775898127812633,0.056573742903605936,0.306640625,,
3.084164999999106,1500,,,,0.5625,0.173828125,-1.173828125,0.06412407623308865,3.0260135899916336,22.478654398394596,2.3684070841368854,3827,0,53.23860431902252,25.701378161507975,48.27583008656126,0.11773740579108652,0.05683870996803006,0.314453125,,
3.0928849999997765,1500,,,,-0.40625,0.00390625,-0.849609375,0.06412407623308865,3.0260135899916336,22.47909352609517,2.3575532410533375,3829,0,52.99565979838677,25.709299202528925,48.512084386411466,0.117701130869175,0.05709927193101477,0.322265625,,
3.1049599999990316,1500,,,,0.625,0.01171875,-1.28125,0.06412407623308865,3.0260135899916336,22.479147882146567,2.354756993118307,3830,0,52.932930674825215,25.716361112933548,48.582915748445785,0.11766880923404666,0.057166938452376276,0.32421875,,
3.1135949999997394,1500,,,,0.0625,0.158203125,-0.916015625,0.06412407623308865,3.0260135899916336,22.47903612512762,2.3566375899233227,3834,0,52.97494151772006,25.745757331303547,48.599878723210324,0.11753445630097617,0.057121603220259054,0.33203125,,
3.1215849999999628,1500,,,,-0.75,-0.3359375,-0.58203125,0.06412407623308865,3.0260135899916336,22.47923682734655,2.34502062776002,3839,0,52.71427405643036,25.778553860493854,48.90241651226771,0.11738492416477478,0.057404064537667755,0.33984375,,
3.130499999999069,1500,,,,0.21875,0.158203125,-1.15625,0.06412407623308865,3.0260135899916336,22.479473612177806,2.3348384948415783,3843,0,52.48594033348821,25.80656060669622,49.168521022439535,0.1172575313738806,0.05765379396396012,0.341796875,,
3.1380799999991433,1500,,,,-0.4375,-0.29296875,-0.76953125,0.06412407623308865,3.0260135899916336,22.479821393462537,2.323739006977933,3844,0,52.23723784188593,25.811770916833567,49.41258761606389,0.11723386201363539,0.05792828478318303,0.345703125,,
3.145959999999963,1500,,,,0,0.197265625,-1.15625,0.06412407623308865,3.0260135899916336,22.480126257490944,2.311461896394522,3844,0,51.96195527032831,25.813872434153424,49.678408558451316,0.1172243179596728,0.05823517560586427,0.353515625,,
3.154144999999553,1500,,,,-0.53125,-0.052734375,-0.67578125,0.0841842327958208,3.0260135899916336,22.48031374773454,2.3025311828214767,3844,0,51.76162340376912,33.890387219841244,65.4739650560756,0.08928825658917357,0.05846056191837462,0.357421875,,
3.1618250000001864,1500,,,,0.875,0.40234375,-1.28125,0.0841842327958208,3.0260135899916336,22.48056087406403,2.2919749845285247,3842,0,51.52488316152546,33.86870993662522,65.73272535223444,0.08934540452393605,0.05872916937056174,0.365234375,,
3.170234999999404,1500,,,,-0.375,-0.251953125,-0.783203125,0.0841842327958208,3.0260135899916336,22.480827627414374,2.2853210762145544,3837,0,51.375909187676505,33.823528844749184,65.83538740149908,0.08946475111692541,0.05889946548561482,0.3671875,,
3.1779950000001116,1500,,,,0.3125,0.169921875,-1.203125,0.0841842327958208,3.0260135899916336,22.48117599627228,2.278260353399217,3836,0,51.21797197009728,33.81551880010674,66.02276017459133,0.0894859430629845,0.0590810895784456,0.37109375,,
3.186024999999441,1500,,,,-0.9375,-0.0859375,-0.58984375,0.0841842327958208,3.0260135899916336,22.4813164054194,2.2720409156501535,3838,0,51.07847071078991,33.83198094684414,66.2353051609617,0.08944240051287629,0.059242446922993186,0.376953125,,
3.193729999999516,1500,,,,0.5,0.2265625,-1.185546875,0.0841842327958208,3.0260135899916336,22.48154442697775,2.2656097683552345,3833,0,50.93440666147297,33.794541721968905,66.34914184154276,0.08954148912232489,0.059410009624800926,0.37890625,,
3.202074999999255,1500,,,,-0.8125,-0.234375,-0.625,0.0841842327958208,3.0260135899916336,22.48166535225599,2.2587872557048287,3833,0,50.78129918469664,33.7893845792218,66.53903133971907,0.08955515549260486,0.05958913297955849,0.384765625,,
3.2106449999995528,1500,,,,0.21875,0.169921875,-1.212890625,0.0841842327958208,4.093220898030049,22.481980413189042,2.2509386656024346,3833,0,50.605558991363814,33.79225677044826,66.77578006047743,0.12112895938958478,0.08088480751153417,0.38671875,,
3.2188499999986964,1500,,,,-0.53125,-0.001953125,-0.798828125,0.0841842327958208,4.093220898030049,22.482328982336725,2.2422553409641437,3836,0,50.411122237957485,33.817346312783435,67.08310549635091,0.12103909219165294,0.08119678190675199,0.390625,,
3.2262399999992923,1500,,,,1,0.39453125,-1.30859375,0.0841842327958208,4.093220898030049,22.482225142712394,2.2390498580151124,3832,0,50.33882301365398,33.783151191194015,67.11152380744107,0.12116160730136377,0.08131340092953301,0.396484375,,
3.233359999999404,1500,,,,-0.53125,-0.15625,-0.826171875,0.0841842327958208,4.093220898030049,22.482301977975844,2.237018974278338,3831,0,50.29333611018737,33.76886656016708,67.14381898664085,0.12121286009813284,0.08138694337282053,0.3984375,,
3.2411149999992923,1500,,,,0.3125,0.087890625,-1.134765625,0.0841842327958208,4.093220898030049,22.482376254659744,2.236620973139293,3830,0,50.28455425718081,33.76261479784631,67.14311242606847,0.12123530486421782,0.08140115704506862,0.40234375,,
3.2490949999997394,1500,,,,-0.9375,0.03125,-0.7265625,0.0841842327958208,4.093220898030049,22.482127210066224,2.2431057189895856,3833,0,50.42978811995092,33.789100851544134,67.00226614312616,0.12114027289492056,0.081166728051564,0.40625,,
3.2592949999999257,1500,,,,0.5625,0.15234375,-1.142578125,0.0841842327958208,4.093220898030049,22.48221754665221,2.2450410685373554,3835,0,50.47350170402535,33.806626508208005,66.9789599827029,0.12107747269714252,0.0810964319858871,0.41015625,,
3.2670049999998882,1500,,,,-0.3125,0.05078125,-0.9140625,0.0841842327958208,4.093220898030049,22.482422963854663,2.237837010812308,3838,0,50.3119982012505,33.83159684966307,67.24359607888162,0.12098810813509718,0.08135675473784526,0.4140625,,
3.275274999999441,1500,,,,-0.25,-0.236328125,-0.9921875,0.0841842327958208,4.093220898030049,22.482492425676362,2.233146644143689,3841,0,50.20670251238508,33.85859168243653,67.4383896733394,0.12089164654043556,0.08152737967645508,0.41796875,,
3.2835999999996273,1500,,,,-0.125,0.2578125,-1.19921875,0.0841842327958208,4.093220898030049,22.482370484179665,2.2282692499505616,3842,0,50.09677481589367,33.8709053928684,67.61095004088476,0.12084769658657801,0.08170627576471123,0.419921875,,
3.2901749999998136,1500,,,,0.0625,-0.005859375,-0.890625,0.0841842327958208,4.093220898030049,22.482514161092848,2.2218875374404234,3842,0,49.953618024860035,33.87208575606588,67.80707203071661,0.12084348532617385,0.08194042913954715,0.42578125,,
3.297179999999702,1500,,,,-0.1875,0.27734375,-0.94140625,0.0909341957524675,4.093220898030049,22.482664656300308,2.2166704641534305,3842,0,49.83665869908713,36.584754405794286,73.4093243022017,0.1118832411071691,0.082132731304176,0.42578125,,
3.3046199999991805,1500,,,,0.9375,0.05859375,-1.3203125,0.0909341957524675,4.093220898030049,22.483073039805245,2.212748109055122,3841,0,49.749377354577256,36.57588565466186,73.52028829220443,0.11191037003661287,0.08227682667979054,0.4296875,,
3.3118499999996276,1500,,,,-0.625,-0.126953125,-0.78515625,0.0909341957524675,4.093220898030049,22.483113555162213,2.208718080742235,3841,0,49.6588594206676,36.572060873802414,73.64659861394526,0.1119220738517948,0.08242680049003472,0.43359375,,
3.319859999999404,1500,,,,0.1875,0.06640625,-1.03125,0.0909341957524675,4.093220898030049,22.48305965137164,2.2034912920818486,3835,0,49.54122616115417,36.523085622976964,73.72261135436959,0.11207215458967057,0.08262251896461112,0.4375,,
3.3279799999995157,1500,,,,-0.625,0.1328125,-0.75390625,0.0909341957524675,4.093220898030049,22.483040206049914,2.2099244471765296,3840,0,49.68582019820254,36.567143121601234,73.59673841697818,0.11193712575298422,0.0823820736319077,0.439453125,,
3.3355750000001865,1500,,,,0.53125,0.060546875,-1.080078125,0.0909341957524675,4.093220898030049,22.482701957827718,2.2131375145198255,3841,0,49.75731113063685,36.573586441253184,73.50394466700571,0.11191740532760822,0.08226370768475366,0.443359375,,
3.343914999999106,1500,,,,-0.9375,-0.078125,-0.59765625,0.0909341957524675,4.093220898030049,22.482898789474536,2.2106960615490663,3840,0,49.702855806097624,36.57088536960433,73.57904244431315,0.11192567138207993,0.08235383725230304,0.447265625,,
3.351629999999888,1500,,,,0.40625,0.0390625,-1.1484375,0.0909341957524675,4.093220898030049,22.483019401823718,2.204832078569443,3839,0,49.57128240024011,36.56185414255089,73.75611921303411,0.11195331839766669,0.0825724229803307,0.44921875,,
3.359700000000186,1500,,,,-1.0625,-0.296875,-0.60546875,0.0909341957524675,4.5428197687190455,22.483165581911848,2.2016517459977933,3842,0,49.500100758973716,36.58218844440492,73.90326056613745,0.12418119204713268,0.091773949932728,0.453125,,
3.367269999999553,1500,,,,0.40625,0.208984375,-1.216796875,0.0909341957524675,4.5428197687190455,22.483287442597593,2.2006822725497335,3843,0,49.47857210356456,36.59211006578158,73.95546902442925,0.12414752143433173,0.09181388175896388,0.455078125,,
3.37618499999959,1500,,,,-0.375,0.068359375,-0.75,0.0909341957524675,4.5428197687190455,22.483326375766655,2.198083626407929,3838,0,49.42023157375821,36.55232619801758,73.96227219911816,0.12428264466969617,0.09192226794686348,0.45703125,,
3.384254999999888,1500,,,,0.8125,-0.00390625,-1.27734375,0.0909341957524675,4.5428197687190455,22.483555068088133,2.193329154627119,3839,0,49.31383683050202,36.5545767049059,74.12640965364076,0.12427499312580918,0.0921205905014712,0.4609375,,
3.393004999999888,1500,,,,-0.59375,-0.046875,-0.85546875,0.0909341957524675,4.5428197687190455,22.483431681682674,2.189640221639022,3834,0,49.23062633068546,36.513355525568855,74.16796869555581,0.12441529142775959,0.09227629439862528,0.462890625,,
3.400995000000112,1500,,,,0.125,0.013671875,-1.02734375,0.0909341957524675,4.5428197687190455,22.48355572455251,2.1859884697713543,3835,0,49.14879357333351,36.5154434133112,74.29570648326809,0.12440817758392665,0.09242993445893709,0.466796875,,
3.410604999999516,1500,,,,0.21875,0.240234375,-1.037109375,0.0909341957524675,4.5428197687190455,22.483775319519737,2.1830745125758884,3838,0,49.083756846526335,36.54808952139175,74.4606604495847,0.12429705158897877,0.09255240553251459,0.470703125,,
3.4184550000000744,1500,,,,-0.5625,-0.201171875,-0.775390625,0.0909341957524675,4.5428197687190455,22.483788888690803,2.1786602713289516,3832,0,48.98453760073797,36.492242078541466,74.49747178585532,0.12448727482793828,0.09273987244192351,0.474609375,,
3.426379999999888,1500,,,,0.5625,0.31640625,-1.3203125,0.0909341957524675,4.5428197687190455,22.483798441628974,2.1755562590477404,3831,0,48.91476842685375,36.48380750352785,74.58648722437492,0.12451605464368737,0.09287215118910958,0.478515625,,
3.4348549999995157,1500,,,,-0.375,-0.060546875,-0.73828125,0.0909341957524675,4.5428197687190455,22.48359672955395,2.1747057176861437,3833,0,48.89520636191045,36.496409326218775,74.64210101923122,0.12447306057189342,0.09290930761380155,0.478515625,,
3.4459899999992922,1500,,,,0.5625,0.375,-1.20703125,0.0909341957524675,4.5428197687190455,22.483623691763462,2.172683789692056,3837,0,48.84980472863073,36.53807813169496,74.79677418296843,0.12433110883241491,0.09299565871256209,0.482421875,,
3.4558649999992923,1500,,,,-0.14453125,-0.056640625,-1.02734375,0.09300999314357304,4.5428197687190455,22.483570619123117,2.171592650006904,3835,0,48.825156702398935,37.34950026559797,76.49642681794582,0.12163000137657437,0.0930426049916977,0.484375,,
3.4642099999999627,1500,,,,-0.125,-0.013671875,-0.87109375,0.09300999314357304,4.5428197687190455,22.483594654121514,2.171889665673283,3832,0,48.83188687647359,37.32417427753603,76.43402019658228,0.12171253233733804,0.0930297815484927,0.490234375,,
3.4720949999997393,1500,,,,0,0.4140625,-1.11328125,0.09300999314357304,4.5428197687190455,22.483678676997705,2.1695107047336797,3829,0,48.7785815715389,37.291845785987725,76.45127140750357,0.1218180455531647,0.09313144462916627,0.490234375,,
3.4798349999999627,1500,,,,0,-0.111328125,-0.998046875,0.09300999314357304,4.5428197687190455,22.483792316403914,2.1667940386521964,3828,0,48.71774715747806,37.28689982734582,76.53658472100011,0.1218342042313582,0.09324773894068977,0.494140625,,
3.4872599999997766,1500,,,,-0.4375,0.0625,-0.9375,0.09300999314357304,4.5428197687190455,22.48385986457528,2.166571839749537,3830,0,48.71289763146363,37.300221847902385,76.57155222031011,0.121790690340747,0.09325702205374127,0.49609375,,
3.4950449999989943,1500,,,,0.28125,0.103515625,-1.037109375,0.09300999314357304,4.5428197687190455,22.483866794092425,2.1665469961079395,3830,0,48.71235406363199,37.30633950283847,76.5849653952382,0.1217707185764876,0.0932580626833359,0.498046875,,
3.5031049999995156,1500,,,,0.1875,0.1015625,-1.064453125,0.09300999314357304,4.5428197687190455,22.483678149854985,2.1686417095373587,3831,0,48.75904221958927,37.3141167891194,76.5275835835188,0.12174533821590297,0.09316876546221281,0.501953125,,
3.5110449999989943,1500,,,,-0.3125,-0.2265625,-0.80859375,0.09300999314357304,4.730032642052719,22.483497504612046,2.1702744144573742,3832,0,48.79535938177575,37.3280028387121,76.49908374822523,0.12671539547643035,0.09693611650740926,0.50390625,,
3.519164999999106,1500,,,,-0.125,0.109375,-1.013671875,0.09300999314357304,4.730032642052719,22.48313280071906,2.173870765173785,3833,0,48.87542510500297,37.33343802348468,76.3848865626811,0.1266969476284847,0.09677731972439756,0.509765625,,
3.5270449999999256,1500,,,,0.1875,-0.15234375,-0.8359375,0.09300999314357304,4.730032642052719,22.483311000881145,2.1682323335466074,3837,0,48.74904187729463,37.36850075962807,76.65484145039748,0.12657806831691037,0.09702821757930344,0.509765625,,
3.5350849999990315,1500,,,,-0.15625,0.19140625,-0.84375,0.09300999314357304,4.730032642052719,22.483344126647943,2.1665648624355525,3838,0,48.71162337484218,37.381685872402144,76.74079261277187,0.12653342222707967,0.09710275113712617,0.51171875,,
3.5441549999993294,1500,,,,-0.25,-0.2578125,-0.88671875,0.09300999314357304,4.730032642052719,22.483599947660576,2.16510679786272,3836,0,48.67939508710581,37.361604314618695,76.75034631750187,0.12660143291014864,0.09716703820145886,0.515625,,
3.5529550000000745,1500,,,,0.40625,0.166015625,-1.18359375,0.09300999314357304,4.730032642052719,22.483840409185422,2.164447715071058,3831,0,48.665096999683705,37.31174075300683,76.67043333592726,0.12677062357835828,0.09719558644018446,0.517578125,,
3.564749999999069,1500,,,,-0.75,-0.02734375,-0.5859375,0.09300999314357304,4.730032642052719,22.4839135893945,2.162402184084943,3834,0,48.6192638524838,37.34325859970853,76.8075360273082,0.12666362870886788,0.0972872122540596,0.521484375,,
3.5760849999990314,1500,,,,0.0625,0.037109375,-0.990234375,0.09300999314357304,4.730032642052719,22.484258961865383,2.1576489267431067,3834,0,48.513137217682925,37.34060638560061,76.97009207639955,0.12667262532396173,0.09750003634744597,0.521484375,,
3.593414999999106,1500,,,,-0.4375,-0.056640625,-0.673828125,0.09300999314357304,4.730032642052719,22.484018342425482,2.158562793634763,3832,0,48.533165445361206,37.32576515562097,76.90774919192617,0.12672299207616947,0.0974598009144449,0.52734375,,
3.6011549999993293,1500,,,,0.375,0.025390625,-1.189453125,0.0924247583107508,4.730032642052719,22.48421068321742,2.155779127989113,3834,0,48.470992100189946,37.10560814631543,76.55219449525157,0.12747487181455638,0.09758481180405182,0.529296875,,
3.6092899999991057,1500,,,,-1.0625,-0.1171875,-0.7890625,0.0924247583107508,4.730032642052719,22.484266128782682,2.156714406353087,3829,0,48.49214067622237,37.055207872084665,76.41487332864708,0.1276482554997637,0.09754225274637221,0.533203125,,
3.617344999999739,1500,,,,0.53125,0.12890625,-1.1328125,0.0924247583107508,4.730032642052719,22.48425315767046,2.154940131928439,3828,0,48.4522194659028,37.047493235143456,76.4619116389804,0.12767483651406092,0.09762262068059392,0.53515625,,
3.6252599999997766,1500,,,,-0.9375,-0.09375,-0.54296875,0.0924247583107508,4.730032642052719,22.484372557130932,2.155061041536239,3830,0,48.45519534125941,37.06726010666778,76.4980098534556,0.12760675130671081,0.09761662518828222,0.537109375,,
3.641949999999255,1500,,,,-0.46875,-0.015625,-0.86328125,0.0924247583107508,4.730032642052719,22.48453249894708,2.1550710978503145,3835,0,48.45576613715696,37.116661593906436,76.59906044792584,0.12743690943447522,0.09761547529068217,0.5390625,,
3.649304999999702,1500,,,,0.8125,0.1015625,-1.23828125,0.0924247583107508,4.730032642052719,22.484452112483964,2.152364037994721,3832,0,48.394726140924924,37.088554059991594,76.63759466680341,0.12753348740427523,0.09773859714132722,0.541015625,,
3.6586049999995156,1500,,,,-0.4375,0.02734375,-0.779296875,0.0924247583107508,4.797581346104665,22.484318109756963,2.150264595669771,3828,0,48.34723318918706,37.054809300812984,76.64308142684028,0.1294725687874315,0.0992317663211729,0.541015625,,
3.667574999999255,1500,,,,0.0625,-0.06640625,-1.091796875,0.0924247583107508,4.797581346104665,22.484447775282668,2.148982552967487,3833,0,48.318685982191084,37.0937250072428,76.76890265789619,0.12933673674369195,0.09929039353166433,0.54296875,,
3.676149999999441,1500,,,,0.25,0.25390625,-1.009765625,0.0924247583107508,4.797581346104665,22.48486358939069,2.1513580046389995,3829,0,48.37299126625165,37.056553795598184,76.60587618333085,0.12946647366530217,0.09917892651496601,0.546875,,
3.6837999999998137,1500,,,,-0.1875,-0.20703125,-0.73828125,0.0924247583107508,4.797581346104665,22.484822014656373,2.1518574448255428,3829,0,48.38413164781558,37.06000603353249,76.59537284514984,0.12945441351962372,0.09915609069985788,0.548828125,,
3.6931249999990685,1500,,,,-0.125,0.11328125,-1.06640625,0.0924247583107508,4.797581346104665,22.484979148397393,2.1546532370868547,3829,0,48.44733310792488,37.05872241408711,76.49280163994237,0.1294588974897031,0.09902673766205493,0.55078125,,
3.7005649999994783,1500,,,,-0.40625,-0.078125,-0.73828125,0.0924247583107508,4.797581346104665,22.484998558754036,2.154091333252743,3828,0,48.43474052361248,37.05254379757656,76.49993248030931,0.12948048512713595,0.09905248369743593,0.55078125,,
3.7078149999994783,1500,,,,0.625,0.44921875,-1.171875,0.0924247583107508,4.797581346104665,22.485071435971005,2.1517672415933897,3828,0,48.38264014080965,37.05056824886535,76.57822752341713,0.12948738906997972,0.09915914741614142,0.5546875,,
3.717354999999516,1500,,,,-0.28125,-0.189453125,-0.8828125,0.0924247583107508,4.797581346104665,22.48511175026335,2.150409505036383,3830,0,48.352198029571575,37.06472232738515,76.65571336533004,0.12943794111631554,0.09922157712810753,0.556640625,,
3.725429999999702,1500,,,,0.40625,0.123046875,-1.19921875,0.0924247583107508,4.797581346104665,22.48544685833038,2.149521237516499,3831,0,48.332945557029795,37.08087866823115,76.71967483231097,0.1293815443002155,0.09926110008014771,0.55859375,,
3.732834999999963,1500,,,,-0.9375,-0.1328125,-0.50390625,0.0924247583107508,4.797581346104665,22.485573029249252,2.1493737548972995,3829,0,48.32990053289491,37.06154807829219,76.6845113886938,0.12944902722276513,0.0992673540231947,0.5625,,
3.7418149999994785,1500,,,,0.40625,0.220703125,-1.162109375,0.0924247583107508,4.797581346104665,22.485626650845155,2.1491278976184613,3828,0,48.32448753076449,37.0459725093379,76.66086988662543,0.12950345263295152,0.09927847332163456,0.560546875,,
3.7505,1500,,,,-0.625,-0.150390625,-0.8046875,0.09230909419284551,4.797581346104665,22.485425607793154,2.150067906470247,3830,0,48.3451919626403,37.02721307059021,76.58923580074666,0.12956906416257571,0.09923595607629589,0.564453125,,
3.7583199999993666,1500,,,,0.9375,0.265625,-1.27734375,0.09230909419284551,4.797581346104665,22.485421167207786,2.148522381173353,3833,0,48.31043062785499,37.05237716248329,76.69643321523097,0.1294810674377559,0.09930736041376662,0.568359375,,
3.7663149999994783,1500,,,,-0.46875,0.0078125,-0.7421875,0.09230909419284551,4.797581346104665,22.485351653154517,2.14874374291958,3832,0,48.31525867206221,37.04634567540059,76.67628549161064,0.1295021481508861,0.099297436833942,0.56640625,,
3.774164999999106,1500,,,,0.34375,-0.048828125,-1.08984375,0.09230909419284551,4.797581346104665,22.48528582434782,2.1483189427230736,3826,0,48.30556546898902,36.98813491660104,76.5711664018228,0.12970595454250414,0.0993173622858135,0.5703125,,
3.7823999999994413,1500,,,,-1,-0.09375,-0.70703125,0.09230909419284551,4.797581346104665,22.485157044172862,2.1496189389809475,3825,0,48.334519428114845,36.9729466540733,76.49387454666025,0.129759236962957,0.09925786793514792,0.572265625,,
3.7901149999992922,1500,,,,0.5625,0.20703125,-1.15625,0.09230909419284551,4.797581346104665,22.485002418604996,2.1501062208527713,3826,0,48.34514357613221,36.98295764754208,76.49777187920155,0.12972411216612137,0.09923605539715907,0.57421875,,
3.798219999999739,1500,,,,-0.28125,0.005859375,-0.912109375,0.09230909419284551,4.797581346104665,22.48485501341904,2.1508903278170743,3828,0,48.36245717073226,37.00294637369963,76.5117170185738,0.12965403613142046,0.09920052922803187,0.576171875,,
3.804834999999963,1500,,,,0.3125,-0.0859375,-1.28515625,0.09230909419284551,4.797581346104665,22.484931987702627,2.1510737684071617,3828,0,48.36674738316622,37.0065018930474,76.5122814645322,0.12964157920060018,0.09919172997302764,0.576171875,,
3.8125149999996646,1500,,,,-0.875,-0.0234375,-0.62109375,0.09230909419284551,4.825699094182799,22.484789180208633,2.1511697605688176,3828,0,48.368598557229745,37.0042092574084,76.50461324329049,0.13040946397784933,0.09976925604890186,0.578125,,
3.8193899999996646,1500,,,,0.5,0.15234375,-1.208984375,0.09230909419284551,4.825699094182799,22.48475530141846,2.1504106575749424,3828,0,48.35145743313495,37.00336075795426,76.52998011306293,0.1304124543105308,0.09980462534880652,0.578125,,
3.826594999999739,1500,,,,-0.875,-0.2109375,-0.609375,0.09230909419284551,4.825699094182799,22.484550779692395,2.15178534098045,3829,0,48.38192676627264,37.010437594071306,76.4964110934737,0.13038751789727088,0.09974177170527292,0.58203125,,
3.8335649999994783,1500,,,,0.21875,0.16796875,-1.166015625,0.09230909419284551,4.825699094182799,22.48461321823388,2.152120066913194,3830,0,48.389587303742786,37.02098668797378,76.50610131388808,0.13035036410173317,0.09972598162269398,0.58203125,,
3.8421949999993665,1500,,,,-0.46875,-0.01171875,-0.78125,0.09230909419284551,4.825699094182799,22.484583036683482,2.1502394091375256,3834,0,48.34723654350192,37.058155070748214,76.64999640135376,0.13021962601672946,0.09981333865567946,0.583984375,,
3.849539999999106,1500,,,,0.875,0.265625,-1.34765625,0.09230909419284551,4.825699094182799,22.48461612915917,2.1492166742900296,3831,0,48.32431189979943,37.034135404403244,76.63665337065451,0.13030408409666933,0.09986068925697063,0.5859375,,
3.857540000000037,1500,,,,-0.625,-0.142578125,-0.865234375,0.09230909419284551,4.825699094182799,22.484488874092765,2.148768835528279,3826,0,48.31396897543286,36.98331071931932,76.54786287196761,0.1304831557890233,0.09988206716439745,0.5859375,,
3.8653749999990685,1500,,,,0.75,0.33203125,-1.3515625,0.09230909419284551,4.825699094182799,22.484465086247845,2.1500358418049688,3832,0,48.342405819245315,37.042990691238636,76.62628713544841,0.13027293434285714,0.0998233127293319,0.58984375,,
3.875149999999441,1500,,,,-0.34375,-0.05078125,-0.71875,0.09230909419284551,4.825699094182799,22.484540457474257,2.148905546135407,3833,0,48.317153691372376,37.05067045246531,76.68222902600566,0.13024593172676857,0.09987548366377565,0.587890625,,
3.884320000000298,1500,,,,0.4375,0.0546875,-1.21875,0.09230909419284551,4.825699094182799,22.48468183613433,2.152640548267701,3832,0,48.40143783536102,37.04490126308676,76.536778492193,0.13026621558285398,0.09970156487081154,0.58984375,,
3.892469999999739,1500,,,,-0.40625,0.095703125,-0.888671875,0.09230909419284551,4.825699094182799,22.484912079823435,2.152230933588698,3832,0,48.39272331721819,37.04338188535897,76.54742148429345,0.1302715586043754,0.09971951903904959,0.59375,,
3.900214999999851,1500,,,,0.625,0.02734375,-1.171875,0.09271213366567667,4.825699094182799,22.484769373819002,2.1503550851277993,3829,0,48.35023816091749,37.17233242913836,76.88138433863088,0.12981964753979408,0.09980714217212507,0.59375,,
3.9085849999999627,1500,,,,-0.375,-0.0078125,-0.751953125,0.09271213366567667,4.825699094182799,22.48473142321136,2.1504878538764887,3828,0,48.35314182329105,37.16742904459145,76.86662674459018,0.12983677424642928,0.09980114863721898,0.595703125,,
3.9165249999994414,1500,,,,-0.0625,-0.13671875,-1.009765625,0.09271213366567667,4.825699094182799,22.484891180521146,2.149658400772387,3830,0,48.33483521666023,37.181580224258404,76.92501703500692,0.1297873588232908,0.09983894788410201,0.595703125,,
3.924164999999106,1500,,,,-0.3125,0.2578125,-0.96875,0.09271213366567667,4.825699094182799,22.48484785027688,2.1519376881975423,3830,0,48.385991502398305,37.18450102785503,76.8497242141084,0.12977716416223664,0.09973339275156959,0.595703125,,
3.9316749999998137,1500,,,,0.3125,0.05859375,-0.939453125,0.09271213366567667,4.825699094182799,22.48490380744758,2.151675420205671,3828,0,48.380214848173864,37.164321025827704,76.81718889107103,0.129847632379161,0.09974530103528358,0.599609375,,
3.939334999999963,1500,,,,-0.75,0.05859375,-0.7890625,0.09271213366567667,4.825699094182799,22.484804727427665,2.154911763463165,3828,0,48.452770206306056,37.16809505605318,76.70994846692132,0.1298344477139645,0.09959593793369408,0.599609375,,
3.94780999999959,1500,,,,0.25,0.0546875,-1.1171875,0.09271213366567667,4.825699094182799,22.484666282430126,2.1583573531574656,3830,0,48.5299448039748,37.18192344208896,76.61645524691305,0.1297861607858682,0.09943755579519131,0.6015625,,
3.9563199999993666,1500,,,,0,0.279296875,-1.046875,0.09271213366567667,4.836599348641307,22.48455857745434,2.163334345326931,3837,0,48.64161781012221,37.25537690484402,76.59156619805367,0.1298228537855013,0.09943335699732465,0.603515625,,
3.9643999999994413,1500,,,,-0.34375,-0.078125,-0.791015625,0.09271213366567667,4.836599348641307,22.484728219442207,2.1609021672969866,3835,0,48.58729794047638,37.23241256036287,76.62993032865457,0.12990292640317072,0.09954452199763315,0.603515625,,
3.9722599999988453,1500,,,,0.5,0.328125,-1.22265625,0.09271213366567667,4.836599348641307,22.484395869804462,2.161800469417713,3835,0,48.60677754591698,37.23552479722555,76.6056230780791,0.12989206879666929,0.09950462863069569,0.60546875,,
3.980234999999404,1500,,,,0.375,-0.25,-1.29296875,0.09271213366567667,4.836599348641307,22.484441421355903,2.1605328705295963,3839,0,48.57837476633663,37.272852516346646,76.7272530125393,0.1297619855233815,0.09956280694661952,0.60546875,,
3.9886650000000374,1500,,,,-0.40625,0.05078125,-0.900390625,0.09271213366567667,4.836599348641307,22.4843206329037,2.1575828458667754,3834,0,48.51178449852142,37.22293501486502,76.72967589143114,0.12993600173414066,0.09969947299689048,0.609375,,
3.996519999999553,1500,,,,-0.03125,-0.03515625,-0.853515625,0.09271213366567667,4.836599348641307,22.48411061352448,2.1550406616308893,3834,0,48.45417261275189,37.22768243495079,76.83070503024837,0.12991943178553925,0.09981801541212239,0.611328125,,
4.004504999999888,1500,,,,-0.0625,0.1953125,-1.16796875,0.09271213366567667,4.836599348641307,22.484105183522104,2.154295661892383,3835,0,48.43741025839371,37.237706291563676,76.87798768124841,0.12988445933731033,0.09985255864919354,0.611328125,,
4.012889999999665,1500,,,,-0.03125,-0.142578125,-1.009765625,0.09271213366567667,4.836599348641307,22.484198453168986,2.1545543688664965,3833,0,48.443428007736564,37.20927954718356,76.80975743756434,0.12998368706677627,0.09984015474439353,0.61328125,,
4.021594999998808,1500,,,,0.21875,0.166015625,-1.09375,0.09271213366567667,4.836599348641307,22.483896615185998,2.1569593020448536,3832,0,48.496849950340234,37.20599183144207,76.71836803738847,0.12999517310418773,0.09973017533291098,0.61328125,,
4.032004999999888,1500,,,,-0.25,-0.0078125,-0.7265625,0.09271213366567667,4.836599348641307,22.48370593398078,2.164740054792078,3839,0,48.671378815454524,37.269563183162894,76.57387994795982,0.12977343804303873,0.09937255665141648,0.61328125,,
4.039859999999404,1500,,,,0.041015625,0.0234375,-1.01171875,0.09271213366567667,4.836599348641307,22.483549112944832,2.1711346181663074,3842,0,48.814811818356894,37.30462540546899,76.4207092394045,0.1296514653631194,0.09908056936977672,0.615234375,,
4.049004999999888,1500,,,,-0.9375,-0.23828125,-0.76953125,0.09271213366567667,4.836599348641307,22.48366814335632,2.167408160984949,3838,0,48.7312858227878,37.26013818502914,76.46040434994124,0.12980626439503162,0.099250394627995,0.619140625,,
4.056819999999367,1500,,,,0.3125,0.08984375,-1.1640625,0.09291616236699443,4.836599348641307,22.48361209839917,2.161252989636534,3843,0,48.59277386549335,37.39246977355022,76.95067969787853,0.1293468812820303,0.09953330431453035,0.6171875,,
4.064769999999553,1500,,,,-0.28125,0.23828125,-0.958984375,0.09291616236699443,4.836599348641307,22.483628965297537,2.159769175311297,3842,0,48.55944878838585,37.38519179358282,76.98850115968445,0.12937206194757334,0.09960161141281518,0.619140625,,
4.072620000000112,1500,,,,0.625,-0.01953125,-1.171875,0.09291616236699443,4.836599348641307,22.483647385423453,2.1555699022328505,3840,0,48.46507359643512,37.36143599221366,77.08940319232653,0.1294543215536277,0.09979556389236693,0.62109375,,
4.080239999999292,1500,,,,-0.375,0.068359375,-0.78125,0.09291616236699443,4.836599348641307,22.483762345898267,2.1541740059675876,3837,0,48.433936401886875,37.33198665766115,77.07815930527335,0.12955644158435795,0.09985972043463483,0.623046875,,
4.087574999999255,1500,,,,0.625,-0.08984375,-1.34765625,0.09291616236699443,4.836599348641307,22.48371549152325,2.1507809568250735,3837,0,48.3575471178411,37.33616522049521,77.20855884090192,0.1295419419771133,0.10001746649504654,0.623046875,,
4.0958449999997395,1500,,,,-0.53125,-0.009765625,-0.830078125,0.09291616236699443,4.836599348641307,22.483729416205794,2.149304557357781,3835,0,48.32438210065032,37.313973801410505,77.21562527937292,0.12961898334340574,0.10008610846937697,0.623046875,,
4.102889999999665,1500,,,,0.15625,-0.01171875,-0.923828125,0.09291616236699443,4.836599348641307,22.483840571760403,2.146936538439414,3831,0,48.271378847958935,37.28092642123778,77.23194843607442,0.12973388305839006,0.1001960056677729,0.625,,
4.110774999999442,1500,,,,-0.4375,0.18359375,-0.78515625,0.09291616236699443,4.833190100243211,22.483848394703067,2.148502681145174,3838,0,48.30660855848116,37.340437756985885,77.29881867359958,0.12943581785778577,0.10005235814458042,0.623046875,,
4.121929999998771,1500,,,,0.25,-0.0390625,-1.150390625,0.09291616236699443,4.833190100243211,22.483855118414198,2.146984333803048,3836,0,48.27248470273276,37.32848246040464,77.32869499110626,0.12947727262606806,0.10012308523181528,0.625,,
4.1296699999989945,1500,,,,0.03125,0.22265625,-1.0703125,0.09291616236699443,4.833190100243211,22.483864893058573,2.1582836052174343,3832,0,48.52655698061216,37.28476582688766,76.83373424119921,0.1296290855810549,0.09959886711464443,0.62890625,,
4.137144999999553,1500,,,,-0.375,-0.0078125,-0.7109375,0.09291616236699443,4.833190100243211,22.483676918535007,2.1640507094649077,3831,0,48.655816986935456,37.27747764631286,76.614637169328,0.12965442957542128,0.0993342707931709,0.62890625,,
4.144544999999925,1500,,,,0.6875,0.30078125,-1.3125,0.09291616236699443,4.833190100243211,22.48369089736893,2.1620792402568014,3839,0,48.611521333552176,37.3501552535465,76.83395670187971,0.129402142171398,0.09942478588727677,0.630859375,,
4.152674999998882,1500,,,,-0.40625,-0.16796875,-0.865234375,0.09291616236699443,4.833190100243211,22.483803731688347,2.1597304557760997,3843,0,48.55895568101965,37.394965926598495,77.00941134781272,0.12924707859689302,0.09953241441171214,0.62890625,,
4.160319999999366,1500,,,,0.25,0.34375,-1.09375,0.09291616236699443,4.833190100243211,22.483813290297732,2.158145911148423,3846,0,48.52334971948063,37.418008202751324,77.11340708971942,0.12916748732466818,0.0996054503282331,0.62890625,,
4.167869999999181,1500,,,,-0.25,-0.078125,-0.92578125,0.09291616236699443,4.833190100243211,22.483724580232302,2.156619491891914,3840,0,48.48883868005832,37.362352445721775,77.05351058673125,0.1293598979685403,0.09967634267617395,0.62890625,,
4.175514999999665,1500,,,,0.125,0.4140625,-1.11328125,0.09291616236699443,4.833190100243211,22.483795771998945,2.155309725082609,3843,0,48.45954368416057,37.395223966817696,77.16792425975866,0.1292461867465187,0.09973659949717979,0.62890625,,
4.185529999999329,1500,,,,0.09375,0.00390625,-0.90234375,0.09291616236699443,4.833190100243211,22.483611387208033,2.158521554145897,3845,0,48.53135979432867,37.410065174467924,77.0843127680911,0.12919491259111265,0.0995890105021952,0.6328125,,
4.193889999999665,1500,,,,0.3125,0.091796875,-1.16796875,0.09291616236699443,4.833190100243211,22.483391510586976,2.1638691127467586,3840,0,48.65111643955185,37.36255453431983,76.79691088023056,0.1293591982797543,0.09934386821828364,0.630859375,,
4.202370000000112,1500,,,,-0.65625,-0.140625,-0.79296875,0.09283625409021717,4.833190100243211,22.483425490141215,2.163810044948719,3844,0,48.64986192042364,37.36740613284759,76.80886370031078,0.12934240292356353,0.0993464299682667,0.6328125,,
