Time (s),ESC signal (µs),Servo 1 (µs),Servo 2 (µs),Servo 3 (µs),AccX (g),AccY (g),AccZ (g),Torque (N·m),Thrust (kgf),Voltage (V),Current (A),Motor Electrical Speed (RPM),Motor Optical Speed (RPM),Electrical Power (W),Mechanical Power (W),Motor Efficiency (%),Propeller Mech. Efficiency (kgf/W),Overall Efficiency (kgf/W),Vibration (g),App message,90% settling time (s),Max acceleration (RPM/s),
0,1000,,,,-0.0625,0.048828125,-0.955078125,0.000041543727870829356,0.009537926583438805,15.496141254087117,-0.025729439498623448,0,0,0.3987070288591574,0,0,0,0,0.05859375,,
0,1000,,,,-0.0625,0.046875,-0.95703125,0.000041543727870829356,0.009537926583438805,15.496080217805805,-0.025465870647457638,0,0,0.3946211743692698,0,0,0,0,0.05859375,,
0.009319999999366701,1000,,,,-0.033203125,0.05078125,-0.95703125,0.000041543727870829356,0.009537926583438805,15.495972131280599,-0.02499689797110243,0,0,0.3873512343286678,0,0,0,0,0.056640625,,
0.018989999999292195,1000,,,,-0.0625,0.05078125,-0.95703125,0.000041543727870829356,0.009537926583438805,15.495914806324334,-0.025068794899505732,0,0,0.38846391005995884,0,0,0,0,0.056640625,,
0.026509999999776483,1000,,,,-0.0625,0.05078125,-0.95703125,0.000041543727870829356,0.009537926583438805,15.495990680627683,-0.024375416277944012,0,0,0.37772122347944076,0,0,0,0,0.056640625,,
0.03454999999888241,1000,,,,-0.0625,0.05078125,-0.953125,0.000041543727870829356,0.009537926583438805,15.49608981743537,-0.023984664628563128,0,0,0.3716685173252794,0,0,0,0,0.056640625,,
0.0415249999994412,1000,,,,-0.0625,0.048828125,-0.955078125,0.000041543727870829356,0.009537926583438805,15.496085960373593,-0.023940592500095767,0,0,0.37098547932375936,0,0,0,0,0.056640625,,
0.049434999999590216,1000,,,,-0.0625,0.046875,-0.95703125,0.000041543727870829356,0.009537926583438805,15.496146632097767,-0.023998445013534236,0,0,0.371883422872062,0,0,0,0,0.056640625,,
0.05741999999899417,1000,,,,-0.0625,0.05078125,-0.95703125,0.000041543727870829356,0.009537926583438805,15.49613946379569,-0.023628535414779155,0,0,0.3661510801126533,0,0,0,0,0.056640625,,
0.06441000000014901,1000,,,,-0.0625,0.05078125,-0.953125,0.000041543727870829356,0.009537926583438805,15.496047309262236,-0.024721744159434268,0,0,0.3830893170620708,0,0,0,0,0.056640625,,
0.07245499999914318,1000,,,,-0.0625,0.05078125,-0.95703125,0.000041543727870829356,0.009537926583438805,15.496045217970055,-0.02549644567919989,0,0,0.39509407514239875,0,0,0,0,0.056640625,,
0.08467499999888241,1000,,,,-0.0625,0.05078125,-0.955078125,0.000041543727870829356,0.009537926583438805,15.49604268245954,-0.024517414128463616,0,0,0.37992289579820876,0,0,0,0,0.056640625,,
0.10393499999865889,1000,,,,-0.0625,0.05078125,-0.9609375,0.000041543727870829356,0.009537926583438805,15.495804212619612,-0.025246912560975353,0,0,0.39122121401800086,0,0,0,0,0.056640625,,
0.11307499999925494,1000,,,,-0.0625,0.05078125,-0.95703125,0.00006900482080341618,0.009537926583438805,15.49568841164205,-0.024890870792024344,0,0,0.3857011780876512,0,0,0,0,0.056640625,,
0.12716999999992548,1000,,,,-0.0625,0.05078125,-0.955078125,0.00006900482080341618,0.009537926583438805,15.495822533473644,-0.025264150603428827,0,0,0.3914887942096842,0,0,0,0,0.056640625,,
0.13459999999962746,1000,,,,-0.0625,0.048828125,-0.955078125,0.00006900482080341618,0.009528333336132993,15.495922741160648,-0.02491442106663025,0,0,0.3860719439892476,0,0,0,0,0.056640625,,
0.14258499999903143,1000,,,,-0.0625,0.044921875,-0.955078125,0.00006900482080341618,0.009528333336132993,15.495926546689661,-0.025137943221295755,0,0,0.3895357216920543,0,0,0,0,0.056640625,,
0.15057499999925494,1000,,,,-0.0625,0.05078125,-0.953125,0.00006900482080341618,0.009528333336132993,15.49593010780492,-0.02598700935906107,0,0,0.4026928807388827,0,0,0,0,0.056640625,,
0.15751499999966473,1000,,,,-0.0625,0.05078125,-0.955078125,0.00006900482080341618,0.009528333336132993,15.495933120874893,-0.02585703502305014,0,0,0.40067888542130475,0,0,0,0,0.056640625,,
0.16455499999877066,1000,,,,-0.0625,0.05078125,-0.955078125,0.00006900482080341618,0.009528333336132993,15.495849565750694,-0.02573186169497104,0,0,0.39873705787197394,0,0,0,0,0.056640625,,
0.17257499999925494,1000,,,,-0.0625,0.05078125,-0.95703125,0.00006900482080341618,0.009528333336132993,15.495726232954567,-0.026128153819748597,0,0,0.4048747185633504,0,0,0,0,0.056640625,,
0.17955999999959021,1000,,,,-0.0625,0.05078125,-0.953125,0.00006900482080341618,0.009528333336132993,15.495737990576849,-0.025154373906835135,0,0,0.3897855873773202,0,0,0,0,0.056640625,,
0.18659999999962748,1000,,,,-0.0625,0.046875,-0.95703125,0.00006900482080341618,0.009528333336132993,15.49574929894751,-0.024779161839655735,0,0,0.38397167970535223,0,0,0,0,0.056640625,,
0.1945249999994412,1000,,,,-0.0625,0.05078125,-0.955078125,0.00006900482080341618,0.009528333336132993,15.495566682366192,-0.02532492685098932,0,0,0.39242409274555107,0,0,0,0,0.056640625,,
0.2038649999992922,1000,,,,-0.0625,0.05078125,-0.95703125,0.00006900482080341618,0.009528333336132993,15.495455957273995,-0.02574573618468847,0,0,0.3989419211374356,0,0,0,0,0.056640625,,
0.21157999999914318,1000,,,,-0.0625,0.046875,-0.953125,0.00006900482080341618,0.009528333336132993,15.495267261808385,-0.025237897244438423,0,0,0.3910679629286307,0,0,0,0,0.056640625,,
0.2206949999993667,1000,,,,-0.0625,0.046875,-0.955078125,0.00006900482080341618,0.009528333336132993,15.495303474187578,-0.024160585254497755,0,0,0.3743756006324242,0,0,0,0,0.056640625,,
0.22822499999962748,1000,,,,-0.0625,0.04296875,-0.95703125,0.00006900482080341618,0.009528333336132993,15.495337351902599,-0.024630478614318385,0,0,0.38165757526768584,0,0,0,0,0.056640625,,
0.24075,1000,,,,-0.0625,0.05078125,-0.95703125,0.00006900482080341618,0.009528333336132993,15.49544042785008,-0.02398438604879443,0,0,0.37164862521765263,0,0,0,0,0.056640625,,
0.26087999999988826,1000,,,,-0.0625,0.05078125,-0.955078125,0.000016297335419056774,0.009528333336132993,15.495622875550609,-0.023359188849416207,0,0,0.36196518108932046,0,0,0,0,0.056640625,,
0.2688300000000745,1000,,,,-0.0625,0.05078125,-0.953125,0.000016297335419056774,0.009528333336132993,15.495544081641446,-0.02428842049259969,0,0,0.3763622904165219,0,0,0,0,0.056640625,,
0.2777299999995157,1000,,,,-0.0625,0.05078125,-0.95703125,0.000016297335419056774,0.009528333336132993,15.495569172356346,-0.024334903825519248,0,0,0.3770831855309726,0,0,0,0,0.056640625,,
0.2858649999992922,1000,,,,-0.0625,0.046875,-0.955078125,0.000016297335419056774,0.008996572525667823,15.495592739858711,-0.024378588883583963,0,0,0.37776068491246395,0,0,0,0,0.056640625,,
0.29277999999932947,1000,,,,-0.0625,0.25390625,-0.923828125,0.000016297335419056774,0.008996572525667823,15.4954388445319,-0.02013409677495495,0,0,0.3119866652662014,0,0,0,0,0.05859375,,
0.30176999999862164,1000,,,,0,0.27734375,-0.76171875,0.000016297335419056774,0.008996572525667823,15.49540069417521,-0.015020630125426801,0,0,0.2327506824724875,0,0,0,0,0.0625,,
0.3096699999999255,1000,,,,0.03125,0.283203125,-0.75390625,0.000016297335419056774,0.008996572525667823,15.495215924860322,-0.010378644533584613,0,0,0.16081933805526483,0,0,0,0,0.064453125,,
0.3167749999994412,1000,,,,0.0625,0.30078125,-0.78125,0.000016297335419056774,0.008996572525667823,15.494990928040934,-0.006708372913122325,0,0,0.10394617743074595,0,0,0,0,0.068359375,,
0.3242899999991059,1000,,,,0.0625,0.123046875,-0.869140625,0.000016297335419056774,0.008996572525667823,15.494862366189809,-0.0015292900416766092,0,0,0.023696138713763734,0,0,0,0,0.068359375,,
0.331804999999702,1000,,,,-0.0625,-0.0078125,-1.05859375,0.000016297335419056774,0.008996572525667823,15.49472227230747,0.003898574251507053,0,0,0.06040732528507076,0,0,0,0,0.0703125,,
0.3399799999995157,1000,,,,-0.0625,-0.18359375,-1.09375,0.000016297335419056774,0.008996572525667823,15.4946866343032,0.008360837203645707,0,0,0.1295485524709141,0,0,0,0,0.072265625,,
0.3496049999995157,1000,,,,-0.125,-0.2734375,-1.15234375,0.000016297335419056774,0.008996572525667823,15.494445560042111,0.012598809452117415,0,0,0.19521156717717728,0,0,0,0,0.07421875,,
0.35785999999940393,1000,,,,-0.15625,-0.28125,-1.1484375,0.000016297335419056774,0.008996572525667823,15.494390155542016,0.016561996066623036,0,0,0.25661802881080953,0,0,0,0,0.078125,,
0.3647949999989942,1000,,,,-0.1875,-0.259765625,-1.154296875,0.000016297335419056774,0.008996572525667823,15.494287278650516,0.019625318129791194,0,0,0.304080317037893,0,0,0,0,0.083984375,,
0.3732549999989569,1000,,,,-0.125,-0.212890625,-1.125,0.000016297335419056774,0.008996572525667823,15.494179779978797,0.024050491625528567,0,0,0.3726426410428141,0,0,0,0,0.087890625,,
0.3808849999997765,1000,,,,-0.125,-0.1015625,-1.01953125,0.000016297335419056774,0.008996572525667823,15.49393129677588,0.02865059018469679,0,0,0.4439102759337734,0,0,0,0,0.08984375,,
0.39122499999962745,1000,,,,-0.03125,0.10546875,-0.998046875,0.000016297335419056774,0.008996572525667823,15.493836147778698,0.03220309189241227,0,0,0.49894942923289637,0,0,0,0,0.08984375,,
0.4101399999996647,1000,,,,0.125,0.330078125,-0.845703125,-0.00000589374922700866,0.008996572525667823,15.493619050194559,0.04088208675322173,0,0,0.6334114781314228,0,0,0,0,0.09375,,
0.4172049999991432,1000,,,,0.09375,0.314453125,-0.84375,-0.00000589374922700866,0.008996572525667823,15.493605184686349,0.04210712374450752,0,0,0.6523911507601314,0,0,0,0,0.09765625,,
0.4249899999992922,1000,,,,0.0625,0.23046875,-0.890625,-0.00000589374922700866,0.008996572525667823,15.493461145471562,0.04583163398819955,0,0,0.7100906404296435,0,0,0,0,0.099609375,,
0.43413999999966474,1000,,,,0.03125,0.091796875,-0.91796875,-0.00000589374922700866,0.009144029666839896,15.493192216830941,0.04981838698619265,0,0,0.7718458455095518,0,0,0,0,0.099609375,,
0.4524549999991432,1000,,,,-0.125,-0.154296875,-0.955078125,-0.00000589374922700866,0.009144029666839896,15.49304858874159,0.05887983741687573,0,0,0.9122281819968608,0,0,0,0,0.1015625,,
0.47593999999947845,1000,,,,-0.125,-0.130859375,-0.966796875,-0.00000589374922700866,0.009144029666839896,15.492581809926305,0.06789745506930604,0,0,1.0519068773470195,0,0,0,0,0.103515625,,
0.48532999999914317,1000,,,,-0.09375,-0.001953125,-0.98046875,-0.00000589374922700866,0.009144029666839896,15.492546373694399,0.06910570795842243,0,0,1.0706233852328415,0,0,0,0,0.10546875,,
0.4928849999997765,1000,,,,-0.0625,0.076171875,-0.953125,-0.00000589374922700866,0.009144029666839896,15.492388834882945,0.0712942054343018,0,0,1.1045175522622281,0,0,0,0,0.10546875,,
0.5015649999994785,1000,,,,0,0.1171875,-0.958984375,-0.00000589374922700866,0.009144029666839896,15.492271786406796,0.07433457444894519,0,0,1.151611430489949,0,0,0,0,0.103515625,,
0.5166399999996647,1000,,,,0,0.162109375,-0.982421875,-0.00000589374922700866,0.009144029666839896,15.492479038421468,0.07760724124695915,0,0,1.2023285582482326,0,0,0,0,0.103515625,,
0.5250699999993667,1000,,,,0,0.0859375,-0.953125,-0.00000589374922700866,0.009144029666839896,15.49258647559917,0.07980986668831987,0,0,1.2364612612748371,0,0,0,0,0.103515625,,
0.5337249999996275,1000,,,,0,0.08203125,-0.984375,-0.00000589374922700866,0.009144029666839896,15.492406840018496,0.08096505500705,0,0,1.254343571993695,0,0,0,0,0.103515625,,
0.5432699999986217,1000,,,,0,0.08203125,-0.982421875,-0.00000589374922700866,0.009144029666839896,15.492582000077467,0.0819293769514866,0,0,1.269297590636163,0,0,0,0,0.1015625,,
0.559824999999255,1000,,,,0,0.078125,-0.95703125,0.00019962865443098258,0.009144029666839896,15.49262736238033,0.08568010812559256,0,0,1.3274099875582606,0,0,0,0,0.1015625,,
0.5671799999997019,1000,,,,0,0.11328125,-1.033203125,0.00019962865443098258,0.009144029666839896,15.49251325357121,0.08718268473037123,0,0,1.3506788986671965,0,0,0,0,0.099609375,,
0.5765299999993294,1000,,,,0,0.154296875,-1.0546875,0.00019962865443098258,0.009144029666839896,15.492382841637673,0.08923786088026302,0,0,1.3825071047258364,0,0,0,0,0.1015625,,
0.5857449999991804,1000,,,,0,0.154296875,-1.05859375,0.00019962865443098258,0.009181138380818656,15.492286715205989,0.0901248723501618,0,0,1.3962403626200472,0,0,0,0,0.1015625,,
0.5949349999986588,1000,,,,0,0.16015625,-1.0625,0.00019962865443098258,0.009181138380818656,15.492212988946232,0.09222422116011635,0,0,1.4287572769522043,0,0,0,0,0.1015625,,
0.6039299999987706,1000,,,,0,0.154296875,-1.056640625,0.00019962865443098258,0.009181138380818656,15.492127979682493,0.09388580647746693,0,0,1.4544909294246213,0,0,0,0,0.103515625,,
0.6127799999993294,1000,,,,0,0.166015625,-1.052734375,0.00019962865443098258,0.009181138380818656,15.492047816422158,0.09426152830811925,0,0,1.4603041037984141,0,0,0,0,0.103515625,,
0.6208849999988452,1000,,,,0,0.1796875,-1.048828125,0.00019962865443098258,0.009181138380818656,15.491971967875289,0.09557025667174775,0,0,1.4805717373213625,0,0,0,0,0.103515625,,
0.6281349999997765,1000,,,,0,0.177734375,-1.0390625,0.00019962865443098258,0.009181138380818656,15.492059602922993,0.09523114200749254,0,0,1.475326528034498,0,0,0,0,0.10546875,,
0.6352099999990314,1000,,,,0,0.1796875,-1.0390625,0.00019962865443098258,0.009181138380818656,15.492313434147281,0.09546649473804965,0,0,1.4789968589412372,0,0,0,0,0.10546875,,
0.6429749999996275,1000,,,,0,0.177734375,-1.0390625,0.00019962865443098258,0.009181138380818656,15.492298128238357,0.09572430846996964,0,0,1.4829895249362217,0,0,0,0,0.10546875,,
0.6500949999997392,1000,,,,0,0.16796875,-1.046875,0.00019962865443098258,0.009181138380818656,15.492227142720143,0.09613115718868868,0,0,1.4892857226596994,0,0,0,0,0.107421875,,
0.6569399999994785,1000,,,,0,0.16796875,-1.0546875,0.00019962865443098258,0.009181138380818656,15.492045826687175,0.09744504630596272,0,0,1.5096231229556283,0,0,0,0,0.107421875,,
0.6638849999997765,1000,,,,0,0.16015625,-1.05859375,0.00019962865443098258,0.009181138380818656,15.49221524380863,0.09842349112615865,0,0,1.5247979095735384,0,0,0,0,0.107421875,,
0.671910000000149,1000,,,,0,0.15625,-1.0625,0.00019962865443098258,0.009181138380818656,15.492270115172776,0.09917503565051043,0,0,1.5364464409795975,0,0,0,0,0.107421875,,
0.6788899999987335,1000,,,,0,0.146484375,-1.05859375,0.00019962865443098258,0.009181138380818656,15.492344557537544,0.09812182890888622,0,0,1.5201371820722136,0,0,0,0,0.109375,,
0.6900949999997392,1000,,,,0,0.140625,-1.0625,0.00019962865443098258,0.009181138380818656,15.492327451762629,0.09760432385051108,0,0,1.5121181458000028,0,0,0,0,0.109375,,
0.7036199999991805,1000,,,,0,0.06640625,-1.013671875,0.00019962865443098258,0.009181138380818656,15.492376099991342,0.09971362627460766,0,0,1.5448010005402004,0,0,0,0,0.107421875,,
0.7216699999999255,1000,,,,-0.0625,0.10546875,-0.984375,0.0004724155441883156,0.009181138380818656,15.492495830905993,0.1022334534294836,0,0,1.5838513510353966,0,0,0,0,0.107421875,,
0.7300599999995903,1000,,,,-0.0625,0.1015625,-0.99609375,0.0004724155441883156,0.009196006954443751,15.49253715021222,0.10237339430910385,0,0,1.5860236145271156,0,0,0,0,0.107421875,,
0.7381200000001118,1000,,,,-0.03125,0.04296875,-0.9609375,0.0004724155441883156,0.009196006954443751,15.492510867300913,0.0959112486048694,0,0,1.4859060613073387,0,0,0,0,0.10546875,,
0.7451549999993294,1000,,,,0,0.00390625,-0.95703125,0.0004724155441883156,0.009196006954443751,15.492616548474246,0.0901912923670282,0,0,1.3972991086537,0,0,0,0,0.10546875,,
0.7532299999995157,1000,,,,-0.0625,0.052734375,-0.95703125,0.0004724155441883156,0.009196006954443751,15.492762734901119,0.08502511752931087,0,0,1.3172739723886953,0,0,0,0,0.10546875,,
0.760125,1000,,,,-0.0625,0.05078125,-0.9609375,0.0004724155441883156,0.009196006954443751,15.493049687027783,0.07945771395486954,0,0,1.2310423103204347,0,0,0,0,0.10546875,,
0.767144999999553,1000,,,,-0.0625,0.046875,-0.955078125,0.0004724155441883156,0.009196006954443751,15.493348914455991,0.07588918276131114,0,0,1.1757775873539122,0,0,0,0,0.103515625,,
0.7750349999992177,1000,,,,-0.0625,0.05078125,-0.95703125,0.0004724155441883156,0.009196006954443751,15.493290581878941,0.07217852314837071,0,0,1.1182828329085832,0,0,0,0,0.103515625,,
0.7819699999997393,1000,,,,-0.0625,0.048828125,-0.95703125,0.0004724155441883156,0.009196006954443751,15.493422699006203,0.06848850409308858,0,0,1.0611213439368379,0,0,0,0,0.103515625,,
0.7890499999988824,1000,,,,-0.0625,0.046875,-0.95703125,0.0004724155441883156,0.009196006954443751,15.493190579945542,0.06485206690246335,0,0,1.0047654320232433,0,0,0,0,0.1015625,,
0.79875,1000,,,,-0.0625,0.05078125,-0.95703125,0.0004724155441883156,0.009196006954443751,15.4934248063928,0.05976471960675191,0,0,0.9259601893023601,0,0,0,0,0.1015625,,
0.8089299999987707,1000,,,,-0.0625,0.05078125,-0.955078125,0.0004724155441883156,0.009196006954443751,15.493495038303816,0.054719608663183136,0,0,0.8477979853209544,0,0,0,0,0.1015625,,
0.816129999998957,1000,,,,-0.0625,0.046875,-0.955078125,0.0004724155441883156,0.009196006954443751,15.493625321152388,0.050791238471546096,0,0,0.7869404184754359,0,0,0,0,0.1015625,,
0.8241599999992177,1000,,,,-0.0625,0.05078125,-0.953125,0.0004724155441883156,0.009196006954443751,15.49387201249724,0.04750351122573515,0,0,0.7360133230757663,0,0,0,0,0.099609375,,
0.8311449999986217,1000,,,,-0.0625,0.05078125,-0.953125,0.0004724155441883156,0.009196006954443751,15.493964087494458,0.04417102664223588,0,0,0.6843843005025636,0,0,0,0,0.099609375,,
0.8382649999996648,1000,,,,-0.0625,0.05078125,-0.95703125,0.0004724155441883156,0.009196006954443751,15.494109595963089,0.04155562828180798,0,0,0.6438674589274361,0,0,0,0,0.099609375,,
0.8461749999998137,1000,,,,-0.0625,0.052734375,-0.955078125,0.0004724155441883156,0.009196006954443751,15.494201869373256,0.03808707006422643,0,0,0.5901287521880874,0,0,0,0,0.099609375,,
0.855734999999404,1000,,,,-0.0625,0.05078125,-0.953125,0.00040042020505977034,0.009196006954443751,15.494279943996005,0.036002039261540705,0,0,0.5578256748730469,0,0,0,0,0.09765625,,
0.8736899999994785,1000,,,,-0.0625,0.048828125,-0.955078125,0.00040042020505977034,0.009196006954443751,15.494587419143205,0.029123492686604205,0,0,0.45125650338336665,0,0,0,0,0.09765625,,
0.8805249999994412,1000,,,,-0.0625,0.046875,-0.955078125,0.00040042020505977034,0.009202510771676024,15.494478927361046,0.027758184071187395,0,0,0.43009859815282214,0,0,0,0,0.095703125,,
0.8872749999994413,1000,,,,-0.0625,0.046875,-0.95703125,0.00040042020505977034,0.009202510771676024,15.494544471335338,0.025012080371877174,0,0,0.3875507916426646,0,0,0,0,0.095703125,,
0.8951650000000373,1000,,,,-0.0625,0.046875,-0.955078125,0.00040042020505977034,0.009202510771676024,15.494809465661673,0.022051696519624894,0,0,0.3416868359661824,0,0,0,0,0.095703125,,
0.9022399999992922,1000,,,,-0.0625,0.046875,-0.953125,0.00040042020505977034,0.009202510771676024,15.494803283126954,0.01924768880562569,0,0,0.29823915169801485,0,0,0,0,0.095703125,,
0.9114799999995157,1000,,,,-0.0625,0.05078125,-0.955078125,0.00040042020505977034,0.009202510771676024,15.494862595161127,0.01747879481935076,0,0,0.27083152405485417,0,0,0,0,0.095703125,,
0.9198199999993667,1000,,,,-0.0625,0.05078125,-0.955078125,0.00040042020505977034,0.009202510771676024,15.494924772904549,0.015148068368794468,0,0,0.2347181798292852,0,0,0,0,0.09375,,
0.9461399999996647,1000,,,,-0.03125,0.0390625,-0.9765625,0.00040042020505977034,0.009202510771676024,15.495207499700179,0.017816938239573768,0,0,0.27607715503153835,0,0,0,0,0.09375,,
0.9532799999993294,1000,,,,-0.125,0.05859375,-0.94921875,0.00040042020505977034,0.009202510771676024,15.49498130218943,0.0253736079260575,0,0,0.3931635803833465,0,0,0,0,0.09375,,
0.9603199999993667,1000,,,,-0.03125,0.041015625,-1.01171875,0.00040042020505977034,0.009202510771676024,15.494768223680829,0.030829817200096893,0,0,0.47770087189395,0,0,0,0,0.09375,,
0.9682399999992922,1000,,,,0,0.02734375,-0.98046875,0.00040042020505977034,0.009202510771676024,15.494632573110929,0.03744306207281252,0,0,0.5801664892304152,0,0,0,0,0.091796875,,
0.976379999998957,1000,,,,-0.0625,0.078125,-0.98046875,0.00040042020505977034,0.009202510771676024,15.494365765537593,0.043912417844558335,0,0,0.6803950637327068,0,0,0,0,0.091796875,,
0.9832849999992177,1000,,,,-0.0625,0.01171875,-0.958984375,0.00040042020505977034,0.009202510771676024,15.494098056553685,0.048763435356626264,0,0,0.7555454489899842,0,0,0,0,0.091796875,,
0.9902049999991431,1000,,,,-0.0625,0.06640625,-1.00390625,0.00040042020505977034,0.009202510771676024,15.49400825949386,0.05377924711591835,0,0,0.8332560990034003,0,0,0,0,0.091796875,,
0.9972399999992922,1000,,,,0,0.02734375,-0.97265625,0.00040042020505977034,0.009202510771676024,15.493864384077327,0.05823002693601857,0,0,0.9022081404278416,0,0,0,0,0.091796875,,
1.0070499999988825,1000,,,,-0.03125,0.056640625,-0.990234375,0.00040042020505977034,0.009202510771676024,15.493782687365355,0.06209082613579918,0,0,0.9620217670270577,0,0,0,0,0.091796875,,
1.0166549999993295,1000,,,,-0.0625,0.015625,-0.955078125,-0.00000550841876579325,0.009202510771676024,15.493412383207867,0.06929275146936702,0,0,1.073581173682036,0,0,0,0,0.091796875,,
1.028339999999851,1000,,,,-0.0625,0.0703125,-0.95703125,-0.00000550841876579325,0.009202510771676024,15.49332107697598,0.07595484953137653,0,0,1.1767928711430151,0,0,0,0,0.091796875,,
1.0356249999990688,1000,,,,-0.03125,0.0546875,-0.98828125,-0.00000550841876579325,0.009247399847160174,15.493183342430523,0.08013212246388947,0,0,1.241501664951135,0,0,0,0,0.08984375,,
1.059875,1000,,,,-0.041015625,0.05859375,-0.96484375,-0.00000550841876579325,0.009247399847160174,15.492746499207438,0.09002087287665748,0,0,1.394670563115433,0,0,0,0,0.08984375,,
1.0678899999987335,1000,,,,-0.0625,0.078125,-0.98828125,-0.00000550841876579325,0.009247399847160174,15.49233925844205,0.09347261999115934,0,0,1.448109540278473,0,0,0,0,0.08984375,,
1.075614999999292,1000,,,,-0.0625,0.05078125,-0.982421875,-0.00000550841876579325,0.009247399847160174,15.492069409546941,0.09670928370150837,0,0,1.4982269356513345,0,0,0,0,0.08984375,,
1.0838299999991432,1000,,,,-0.03125,0.04296875,-0.955078125,-0.00000550841876579325,0.009247399847160174,15.491882043390856,0.10019049509074977,0,0,1.552139331814826,0,0,0,0,0.08984375,,
1.1027449999991805,1000,,,,-0.125,0.11328125,-1,-0.00000550841876579325,0.009247399847160174,15.491395246956197,0.10644271013797289,0,0,1.6489460939045295,0,0,0,0,0.08984375,,
1.111669999998994,1000,,,,-0.0625,0.048828125,-0.990234375,-0.00000550841876579325,0.009247399847160174,15.491427854420776,0.10964052141885662,0,0,1.6984882274812931,0,0,0,0,0.08984375,,
1.120384999998845,1000,,,,0,0.029296875,-0.974609375,-0.00000550841876579325,0.009247399847160174,15.49124523837603,0.1128674637642962,0,0,1.7484575606062325,0,0,0,0,0.08984375,,
1.1296599999992176,1000,,,,-0.09375,0.09375,-0.994140625,-0.00000550841876579325,0.009247399847160174,15.491178458937128,0.11466290719591073,0,0,1.7762635579923993,0,0,0,0,0.08984375,,
1.1422049999991433,1000,,,,-0.0625,0.046875,-0.95703125,-0.00000550841876579325,0.009247399847160174,15.491241219293862,0.11836667764280938,0,0,1.8336467556911578,0,0,0,0,0.08984375,,
1.1504249999998137,1000,,,,-0.01953125,0.044921875,-0.984375,-0.00000550841876579325,0.009247399847160174,15.49128588009195,0.12090224011380736,0,0,1.8729311651465106,0,0,0,0,0.087890625,,
1.1643199999993668,1000,,,,-0.125,0.1171875,-0.99609375,-0.00020454977511115839,0.009247399847160174,15.491087925171133,0.12282558072743681,0,0,1.9027018705089285,0,0,0,0,0.08984375,,
1.1817299999995157,1000,,,,-0.03125,0.0546875,-0.994140625,-0.00020454977511115839,0.009265006955841362,15.490884559040088,0.12827324576042354,0,0,1.9870660420880994,0,0,0,0,0.087890625,,
1.1898999999994413,1000,,,,-0.125,0.1171875,-0.9921875,-0.00020454977511115839,0.009265006955841362,15.490874041844465,0.13029345731044129,0,0,2.018359535672485,0,0,0,0,0.087890625,,
1.2209349999995902,1000,,,,-0.046875,0.0625,-1,-0.00020454977511115839,0.009265006955841362,15.490680073139249,0.13674227527766614,0,0,2.1182308387994646,0,0,0,0,0.087890625,,
1.2383799999998883,1000,,,,0,0.033203125,-1.0078125,-0.00020454977511115839,0.009265006955841362,15.490298984434286,0.13957350061260176,0,0,2.1620352547933233,0,0,0,0,0.087890625,,
1.2483099999995901,1000,,,,-0.09375,0.095703125,-0.994140625,-0.00020454977511115839,0.009265006955841362,15.490407383487556,0.14069331124700074,0,0,2.179396707347853,0,0,0,0,0.087890625,,
1.264704999999143,1000,,,,0,0.02734375,-1.001953125,-0.00020454977511115839,0.009265006955841362,15.490432965217154,0.14118156423610867,0,0,2.186963556723941,0,0,0,0,0.087890625,,undefined,0,
1.2756349999997765,1000,,,,-0.0625,0.07421875,-1,-0.00020454977511115839,0.009265006955841362,15.49044715526461,0.14162541368417159,0,0,2.193840986517149,0,0,0,0,0.087890625,,
1.2833099999995903,1180,,,,-0.0625,0.046875,-0.9765625,-0.00020454977511115839,0.009265006955841362,15.490531571600249,0.14294058884627203,0,0,2.2142257043863074,0,0,0,0,0.087890625,,
1.2932849999992178,1180,,,,-0.0625,0.064453125,-0.98828125,-0.00020454977511115839,0.009265006955841362,15.490506139983518,0.14435044301034483,0,0,2.2360614237610874,0,0,0,0,0.087890625,,
1.3015499999988824,1180,,,,-0.03125,0.029296875,-0.96484375,-0.00020454977511115839,0.009265006955841362,15.49034926860253,0.14488050179200235,0,0,2.244249574968511,0,0,0,0,0.087890625,,
1.315144999999553,1180,,,,-0.0625,0.05078125,-0.9765625,-0.0002829313240677414,0.009265006955841362,15.49033012113649,0.14674725392864046,0,0,2.2731634077248843,0,0,0,0,0.087890625,,
1.3315949999997392,1180,,,,-0.03125,0.02734375,-0.966796875,-0.0002829313240677414,0.00911740493574335,15.490270663277137,0.14982211364481424,0,0,2.3207850917024393,0,0,0,0,0.087890625,,
1.339734999999404,1180,,,,-0.0625,0.04296875,-0.974609375,-0.0002829313240677414,0.00911740493574335,15.490290106268992,0.15060913132468595,0,0,2.33297913687255,0,0,0,0,0.087890625,,
1.3485349999992178,1180,,,,-0.0625,0.0703125,-0.98828125,-0.0002829313240677414,0.00911740493574335,15.490373686364856,0.15135293239089598,0,0,2.3445134812620942,0,0,0,0,0.087890625,,
1.3565499999998136,1180,,,,0,0.03515625,-0.9921875,-0.0002829313240677414,0.00911740493574335,15.490353178383266,0.15143337202496426,0,0,2.3457564156602007,0,0,0,0,0.087890625,,
1.3646949999993667,1180,,,,-0.09375,0.064453125,-0.9609375,-0.0002829313240677414,0.00911740493574335,15.490338025604078,0.1526133821980037,0,0,2.364032877477785,0,0,0,0,0.087890625,,
1.3755999999996276,1180,,,,-0.0625,0.05078125,-0.966796875,-0.0002829313240677414,0.00911740493574335,15.490264476780998,0.15485343217315384,0,0,2.3987206194994206,0,0,0,0,0.087890625,,
1.3844999999990686,1180,,,,0,0.02734375,-1.00390625,-0.0002829313240677414,0.00911740493574335,15.490155064090592,0.1559100653404032,0,0,2.4150710881753414,0,0,0,0,0.087890625,,
1.393019999999553,1180,,,,-0.09375,0.064453125,-0.962890625,-0.0002829313240677414,0.00911740493574335,15.49025880122643,0.1567122220293531,0,0,2.427512876549937,0,0,0,0,0.087890625,,
1.401704999999143,1180,,,,0,-0.015625,-0.97265625,-0.0002829313240677414,0.00911740493574335,15.490214197278014,0.15757125132086103,0,0,2.4408124342932633,0,0,0,0,0.087890625,,
1.4096049999995157,1180,,,,-0.0625,0.068359375,-0.986328125,-0.0002829313240677414,0.00911740493574335,15.490166188442862,0.15896861853486882,0,0,2.4624503198522962,0,0,0,0,0.087890625,,
1.4175499999988823,1180,,,,-0.03125,0.02734375,-0.966796875,-0.0002829313240677414,0.00911740493574335,15.49015810327391,0.15866796913947712,0,0,2.457791927895886,0,0,0,0,0.087890625,,
1.4245849999999627,1180,,,,-0.125,0.109375,-0.98046875,-0.0002829313240677414,0.00911740493574335,15.489948940691303,0.15897869891034405,0,0,2.4625719287787655,0,0,0,0,0.087890625,,
1.4336549999993295,1180,,,,-0.0625,0.05078125,-0.962890625,-0.0002829313240677414,0.00911740493574335,15.489852180703675,0.16158310813130172,0,0,2.502898459852522,0,0,0,0,0.087890625,,
1.440614999999292,1180,,,,0,0.01953125,-1,-0.0002829313240677414,0.00911740493574335,15.490215959572811,0.15482147863044582,0,0,2.398218139165993,0,0,0,0,0.087890625,,
1.4484949999991805,1180,,,,-0.0625,0.0390625,-0.953125,-0.0002829313240677414,0.00911740493574335,15.490551128240579,0.14716749239169802,0,0,2.2797055653085545,0,0,0,0,0.087890625,,
1.4564449999993667,1180,,,,-0.0625,0.046875,-0.94921875,-0.0003121068900485635,0.00911740493574335,15.490818417549988,0.13787166254574834,0,0,2.1357448894219155,0,0,0,0,0.087890625,,
1.468324999999255,1180,,,,-0.0625,0.0546875,-0.955078125,-0.0003121068900485635,0.00911740493574335,15.49097456782011,0.12997432945070297,0,0,2.013429031990312,0,0,0,0,0.0859375,,
1.4922949999999255,1180,,,,-0.0625,0.048828125,-0.955078125,-0.0003121068900485635,0.009054399008710325,15.491645555246192,0.10834163881565147,0,0,1.6783902674065754,0,0,0,0,0.0859375,,
1.4996549999993294,1180,,,,-0.0625,0.046875,-0.953125,-0.0003121068900485635,0.009054399008710325,15.492126407354363,0.0999701557250564,0,0,1.548750289455474,0,0,0,0,0.0859375,,
1.5092599999997764,1180,,,,-0.0625,0.046875,-0.953125,-0.0003121068900485635,0.009054399008710325,15.49218646235763,0.09267410452189088,0,0,1.435724507485154,0,0,0,0,0.083984375,,
1.5166549999993295,1180,,,,-0.0625,0.05078125,-0.955078125,-0.0003121068900485635,0.009054399008710325,15.492249272782725,0.0857555153296408,0,0,1.3285458200027356,0,0,0,0,0.083984375,,
1.5237949999989941,1180,,,,-0.0625,0.05078125,-0.95703125,-0.0003121068900485635,0.009054399008710325,15.492238648179303,0.08194801428571936,0,0,1.2695581940587712,0,0,0,0,0.083984375,,
1.5307249999996275,1180,,,,-0.0625,0.05078125,-0.95703125,-0.0003121068900485635,0.009054399008710325,15.492401386903733,0.07712433322190969,0,0,1.1948411269711394,0,0,0,0,0.083984375,,
1.5385749999992548,1180,,,,-0.0625,0.048828125,-0.95703125,-0.0003121068900485635,0.009054399008710325,15.492479570081096,0.07159413422267726,0,0,1.1091706617824713,0,0,0,0,0.083984375,,
1.5457049999991432,1180,,,,-0.0625,0.0546875,-0.95703125,-0.0003121068900485635,0.009054399008710325,15.492746914114116,0.06666527585969619,0,0,1.0328282468538743,0,0,0,0,0.083984375,,
1.5526499999994412,1180,,,,-0.0625,0.05078125,-0.953125,-0.0003121068900485635,0.009054399008710325,15.492886979644744,0.06308691160349127,0,0,0.9773983913677288,0,0,0,0,0.08203125,,
1.5596550000002607,1180,,,,-0.0625,0.048828125,-0.955078125,-0.0003121068900485635,0.009054399008710325,15.493020640793183,0.05939524483770152,0,0,0.9202117542354744,0,0,0,0,0.08203125,,
1.566629999998957,1180,,,,-0.0625,0.046875,-0.95703125,-0.0003121068900485635,0.009054399008710325,15.493235061294333,0.05556662450188722,0,0,0.8609067749704159,0,0,0,0,0.08203125,,
1.5736049999995156,1180,,,,-0.0625,0.048828125,-0.95703125,-0.0003121068900485635,0.009054399008710325,15.493267989440053,0.05135082134779295,0,0,0.7955920366192154,0,0,0,0,0.08203125,,
1.5816200000001117,1180,,,,-0.0625,0.046875,-0.95703125,-0.0003121068900485635,0.009054399008710325,15.493271260572659,0.04739185897765957,0,0,0.7342549266836854,0,0,0,0,0.08203125,,
1.588829999999143,1180,,,,-0.0625,0.048828125,-0.955078125,-0.0003121068900485635,0.009054399008710325,15.493563011663582,0.045470814428581696,0,0,0.7045049285408921,0,0,0,0,0.08203125,,
1.598070000000298,1180,,,,-0.0625,0.05078125,-0.95703125,-0.0003121068900485635,0.009054399008710325,15.493683586849771,0.04197664657910129,0,0,0.6503728801336152,0,0,0,0,0.08203125,,
1.6174999999990687,1180,,,,-0.0625,0.048828125,-0.95703125,-0.00032127965596269117,0.009054399008710325,15.49385830072794,0.035723008040575946,0,0,0.5534872246564485,0,0,0,0,0.080078125,,
1.6346999999992549,1180,,,,-0.0625,0.052734375,-0.95703125,-0.00032127965596269117,0.009025096505479504,15.494032882834723,0.029804523032568545,0,0,0.4617922599238219,0,0,0,0,0.080078125,,
1.642464999999851,1180,,,,-0.0625,0.052734375,-0.95703125,-0.00032127965596269117,0.009025096505479504,15.494031455662558,0.027195554690666868,0,0,0.4213687798313839,0,0,0,0,0.080078125,,
1.6496899999994785,1180,,,,-0.1875,-0.05859375,-1.00390625,-0.00032127965596269117,0.009025096505479504,15.4929023845067,0.11255137910910339,0,0,1.7437475297789453,0,0,0,0,0.080078125,,
1.6579849999994039,1180,,,,-0.03125,0.06640625,-1.0390625,-0.00032127965596269117,0.009025096505479504,15.488941978030715,0.23890036225984745,0,0,3.700313849573296,0,0,0,0,0.0859375,,
1.664714999999851,1180,,,,0.1875,-0.0625,-0.96484375,-0.00032127965596269117,0.009025096505479504,15.486481943472631,0.3120181382554958,0,0,4.832063264129682,0,0,0,0,0.087890625,,
1.6718349999990314,1180,,,,0.125,-0.01171875,-0.89453125,-0.00032127965596269117,0.009025096505479504,15.483639762704804,0.4019325648390742,1,0,6.223379042868216,0.00003925109572647599,0.0006307039223563995,0,0.0014501923220990311,0.087890625,,
1.6786749999988824,1180,,,,-0.03125,-0.943359375,-0.861328125,-0.00032127965596269117,0.009025096505479504,15.481244399631098,0.4451632638522518,1,0,6.891681285434174,0.00003925109572647599,0.0005695431071288024,0,0.0013095638250936504,0.099609375,,
1.686714999999851,1180,,,,0.1875,0.03515625,-1.015625,-0.00032127965596269117,0.009025096505479504,15.480302892193324,0.4781598361805941,1,0,7.402059094957137,0.00003925109572647599,0.0005302726609304824,0,0.001219268367045071,0.103515625,,
1.6936949999993667,1180,,,,-0.125,0.05859375,-0.951171875,-0.00032127965596269117,0.009025096505479504,15.479856595269197,0.4931162713525673,976,0,7.633369165331594,0.03283284457286532,0.4301225823320843,0,0.0011823215031271782,0.103515625,,
1.700714999999851,1180,,,,-0.03125,0.037109375,-0.99609375,-0.00032127965596269117,0.009025096505479504,15.479517216404169,0.4989430009343683,1399,0,7.723396772967915,0.04706167437362364,0.6093390739465917,0,0.0011685397980675512,0.103515625,,
1.707804999999702,1180,,,,0.0625,0.0703125,-1.04296875,-0.00032127965596269117,0.009025096505479504,15.479451969808995,0.49973774286225503,1764,0,7.735666388137035,0.059348065880477786,0.7672004311288618,0,0.0011666863658081046,0.103515625,,
1.7155799999991432,1180,,,,-0.125,0.0546875,-0.8828125,-0.00032127965596269117,0.009025096505479504,15.479476368683287,0.4984985394909416,2111,0,7.716496361873163,0.07101007990538245,0.9202373276068636,0,0.001169584754821122,0.103515625,,
1.7256349999997764,1180,,,,-0.0625,0.017578125,-0.97265625,-0.00032127965596269117,0.009025096505479504,15.47950867863101,0.4964541915381916,2344,0,7.684866966458179,0.07887596387884468,1.0263803423417912,0,0.001174398534791945,0.103515625,,
1.733269999999553,1180,,,,0,0.107421875,-0.9921875,-0.00032127965596269117,0.009025096505479504,15.47690919343841,0.5857004559706697,2514,0,9.064832771613526,0.08457693932644368,0.9330226100948701,0,0.0009956164369343409,0.10546875,,
1.7399199999999255,1180,,,,-0.0625,0.015625,-0.83203125,-0.00032127965596269117,0.009025096505479504,15.475095628914955,0.636619837229669,2697,0,9.8517528603934,0.09074076438882765,0.9210621264529385,0.09946022128275908,0.000916090429121779,0.10546875,,
1.7487649999996646,1180,,,,0.03125,0.01171875,-0.96484375,-0.00032127965596269117,0.009025096505479504,15.47375954649861,0.6668762189337646,2910,0,10.319082259059236,0.09791410983896157,0.9488645150880708,0.09217360521709278,0.0008746026321823602,0.10546875,,
1.7715949999988079,1180,,,,-0.0625,0.091796875,-1.03125,-0.0002672428372412603,0.009025096505479504,15.472402288044705,0.7096534354907164,3625,0,10.980043439005346,0.10144900155146022,0.923939892542449,0.08896190566155059,0.0008219545355730454,0.10546875,,
1.7902749999994412,1180,,,,-0.0625,0.09375,-0.974609375,-0.0002672428372412603,0.009255318543587132,15.471077432690963,0.7414150782357577,4080,0,11.470490085150036,0.11419043304930866,0.995514857705533,0.08105161086122324,0.000806880828533149,0.107421875,,
1.7990649999994786,1180,,,,-0.03125,0.1015625,-0.98046875,-0.0002672428372412603,0.009255318543587132,15.470912830750573,0.7483564871105332,4221,0,11.577757978413773,0.11813612419577414,1.0203713397363618,0.07834452506880368,0.000799405080054642,0.107421875,,
1.8068849999997765,1180,,,,0,-0.046875,-0.93359375,-0.0002672428372412603,0.009255318543587132,15.470972323549919,0.751986016771761,4314,0,11.63395485317246,0.12073700801775232,1.03779849192752,0.07665684859630027,0.0007955436186915666,0.109375,,
1.8138799999998882,1180,,,,-0.1875,0.28515625,-1.0078125,-0.0002672428372412603,0.009255318543587132,15.471361550298987,0.7523977768851345,4383,0,11.640618035831107,0.12265910595904807,1.053716439981879,0.07545561718570805,0.0007950882431755977,0.109375,,
1.8208549999995156,1180,,,,0,-0.060546875,-0.96484375,-0.0002672428372412603,0.009255318543587132,15.47130302576632,0.7534922481119604,4436,0,11.657506898106039,0.12413338663615961,1.0648364845173472,0.0745594621591601,0.0007939363557306423,0.111328125,,
1.827949999999255,1180,,,,-0.125,0.015625,-0.94140625,-0.0002672428372412603,0.009255318543587132,15.471332974568735,0.7500621748750557,4471,0,11.60446165912119,0.12511576396542565,1.0781694803315909,0.07397404012291159,0.0007975655239734784,0.111328125,,
1.8364899999992923,1180,,,,0,0.04296875,-0.958984375,-0.0002672428372412603,0.009255318543587132,15.471365879782725,0.7485434308345734,4510,0,11.58098929534952,0.12622631110984855,1.0899441135010477,0.07332321179482686,0.0007991820307876212,0.111328125,,
1.8451749999988825,1180,,,,0.03125,0.009765625,-0.943359375,-0.0002672428372412603,0.009255318543587132,15.471401094918468,0.7460758850828284,4547,0,11.542839265362737,0.12724755834052304,1.1023939207259181,0.07273474370973214,0.0008018233929116643,0.111328125,,
1.852894999999553,1180,,,,-0.0625,0.140625,-1.01953125,-0.0002672428372412603,0.009255318543587132,15.471560120696932,0.7412821786308995,4570,0,11.468791793089164,0.12788457692769853,1.1150658171749086,0.07237243744270871,0.0008070003109799394,0.111328125,,
1.861304999999702,1180,,,,-0.0625,-0.033203125,-0.9921875,-0.0002672428372412603,0.009255318543587132,15.471777240705624,0.7344740484327476,4578,0,11.363618866430704,0.12810479931868798,1.1273239698061566,0.07224802343714348,0.0008144692859180883,0.111328125,,
1.8688749999990686,1180,,,,-0.1875,0.10546875,-0.96484375,-0.0002672428372412603,0.009255318543587132,15.471853743433854,0.7304195172112192,4583,0,11.30094394164155,0.12824775504765337,1.1348410868147742,0.07216748971666684,0.0008189863246275624,0.11328125,,
1.8758899999987333,1180,,,,-0.03125,-0.029296875,-0.97265625,-0.0002672428372412603,0.009255318543587132,15.472031535672023,0.7251946672849736,4590,0,11.220234761734293,0.12846473206293202,1.144938005228292,0.07204559878000724,0.0008248774415265936,0.11328125,,
1.883804999999702,1180,,,,0.0625,-0.0625,-1,-0.0002672428372412603,0.009255318543587132,15.472415215208699,0.7202054588129484,4594,0,11.143317899013825,0.12856619867353697,1.1537515113421917,0.07198873917932966,0.0008305711662777045,0.11328125,,
1.8919149999991058,1180,,,,-0.09375,0.076171875,-0.98828125,-0.0002672428372412603,0.009255318543587132,15.472527692550942,0.7159325561802075,4586,0,11.077286301497043,0.12833867235652294,1.1585750233717311,0.072116365033573,0.0008355221930425612,0.11328125,,
1.8998549999995158,1180,,,,-0.0625,0.12109375,-0.974609375,-0.0002672428372412603,0.009255318543587132,15.472697608218139,0.7119505888212191,4591,0,11.015796172823572,0.12847308918528566,1.1662624032771605,0.07204091224302223,0.0008401860744682611,0.11328125,,
1.9068899999987334,1180,,,,0,0.16015625,-0.98828125,0.006123803647982046,0.009255318543587132,15.472840413317103,0.707667896837282,4596,0,10.949632433391017,2.947439349984143,26.918157919127005,0.003140121795427928,0.0008452629437462159,0.11328125,,
1.9139499999992549,1180,,,,0.03125,0.009765625,-0.927734375,0.006123803647982046,0.009255318543587132,15.47315039282076,0.7033767592023361,4598,0,10.883454377952619,2.9486114006168336,27.092605878791975,0.0031388736208681042,0.0008504026591351625,0.11328125,,
1.9238549999995158,1180,,,,0.125,-0.0546875,-1.04296875,0.006123803647982046,0.009255318543587132,15.473502254157465,0.7006080153927357,4598,0,10.840859705460282,2.948762926492204,27.200452792567575,0.0031387123259166492,0.0008537439645054579,0.11328125,,
1.933734999999404,1180,,,,-0.09375,0,-0.943359375,0.006123803647982046,0.03123116466229604,15.473761632749307,0.694376371822206,4598,0,10.744614460990118,2.9488456812370263,27.444871958349353,0.010590979670796039,0.0029066808097847827,0.11328125,,
1.9456499999994412,1180,,,,-0.09375,0.056640625,-0.98046875,0.006123803647982046,0.03123116466229604,15.473884708411065,0.6896562844686317,4606,0,10.671661834298751,2.9537550389583207,27.678491736544196,0.010573376685058524,0.0029265511920476142,0.11328125,,
1.9541249999990686,1180,,,,-0.041015625,0.05859375,-1.00390625,0.006123803647982046,0.03123116466229604,15.473816236052304,0.686901457771305,4594,0,10.628986929829615,2.9458657221377775,27.715395094431646,0.010601693223013565,0.0029383011634577937,0.11328125,,
1.9624749999996274,1180,,,,-0.0625,0.0078125,-0.96875,0.006123803647982046,0.03123116466229604,15.473735049227004,0.6834011635356239,4591,0,10.574768536883699,2.944333823641347,27.843009644814593,0.010607209145758993,0.0029533662654993315,0.115234375,,
1.9817999999998137,1180,,,,0.0625,-0.056640625,-0.9140625,0.006123803647982046,0.03123116466229604,15.474139252298917,0.668517546455636,4594,0,10.344733606459721,2.946232947487558,28.480510562860665,0.010600371803230584,0.0030190400111215895,0.115234375,,
1.9890349999992176,1180,,,,0.0625,-0.03515625,-0.98828125,0.006123803647982046,0.03123116466229604,15.474220346392887,0.6642034408666244,4596,0,10.278030398802484,2.947375532732514,28.6764624968994,0.010596262442791469,0.003038633225480132,0.115234375,,
1.9967649999996646,1180,,,,-0.1875,0.16796875,-0.984375,0.006123803647982046,0.03123116466229604,15.47430638798671,0.6623517198021558,4597,0,10.249433448828484,2.9482797752896848,28.76529507713107,0.010593012550590591,0.0030471113177349116,0.1171875,,
2.003929999999702,1180,,,,-0.09375,0.01171875,-1.01171875,0.006123803647982046,0.03123116466229604,15.4744656563283,0.6633995721846037,4598,0,10.265753896193537,2.948618465538652,28.722863370336366,0.010591795794302859,0.0030422670344626432,0.1171875,,
2.0109599999990313,1180,,,,-0.0625,0.08984375,-1.08203125,0.006123803647982046,0.03123116466229604,15.474618483053597,0.6629981839202942,4598,0,10.259643951123952,2.9487664941998726,28.74141157575778,0.010591264084059122,0.003044078801474845,0.1171875,,
2.0177949999999254,1180,,,,0,-0.07421875,-0.947265625,0.006123803647982046,0.03123116466229604,15.474677911384745,0.660657279833577,4599,0,10.223458615236185,2.9491869941755295,28.847253216052625,0.010589753964050347,0.003054853140966574,0.1171875,,
2.0248399999989197,1180,,,,-0.0625,0.1015625,-0.96875,0.006123803647982046,0.03123116466229604,15.47473482450991,0.6600960099498737,4598,0,10.214810712691351,2.9487780833868222,28.86767230765348,0.010591222458634612,0.00305743939273324,0.1171875,,
2.0409399999994786,1180,,,,0,0.05859375,-1.01953125,0.006123803647982046,0.03123116466229604,15.474472900906381,0.6568043967385915,4598,0,10.163701838527498,2.948719476553344,29.012258755718772,0.010591432962894479,0.003072813937133438,0.1171875,,
2.0478549999995157,1180,,,,-0.03125,0.115234375,-0.939453125,0.006123803647982046,0.03123116466229604,15.474538542229345,0.6555703335452467,4598,0,10.144648393588067,2.9488101480288624,29.06764269812111,0.010591107292265855,0.0030785852254904883,0.1171875,,
2.0613899999996645,1180,,,,0.125,-0.17578125,-0.90625,0.006123803647982046,0.03123116466229604,15.474340870678203,0.6556265354817711,4601,0,10.145388493906724,2.9502687300753756,29.079899028482686,0.010585871159437779,0.0030783606444497753,0.1171875,,
2.068819999999367,1180,,,,-0.01953125,0.05078125,-1,0.00895601829742034,0.03123116466229604,15.474423070423416,0.655068417187343,4602,0,10.136805827629571,4.315766246239394,42.57520879482614,0.007236528319741546,0.003080967041626687,0.1171875,,
2.082054999999702,1180,,,,-0.03125,-0.037109375,-0.984375,0.00895601829742034,0.05228325063181094,15.474502282051226,0.6553477492599911,4609,0,10.141180241460866,4.322633251670981,42.62455797796069,0.01209523167657123,0.005155539038548771,0.1171875,,
2.0979749999996273,1180,,,,-0.09375,0.0625,-0.96484375,0.00895601829742034,0.05228325063181094,15.475144962594225,0.6520115214134538,4609,0,10.089972811154805,4.322187583183593,42.83646412213588,0.012096478837528997,0.005181703817279869,0.1171875,,
2.105659999999218,1180,,,,-0.0625,-0.06640625,-0.96484375,0.00895601829742034,0.05228325063181094,15.475007722025287,0.6523875769367703,4614,0,10.095702790849886,4.327361964816848,42.863404900735574,0.012082014644694456,0.005178762857321554,0.1171875,,
2.1140699999993666,1180,,,,-0.03125,-0.037109375,-0.958984375,0.00895601829742034,0.05228325063181094,15.475056246813685,0.6483367106143068,4609,0,10.033047063630564,4.3230020316667295,43.087628357066684,0.01209419987518562,0.005211103894980803,0.1171875,,
2.122144999999553,1180,,,,-0.09375,0.115234375,-0.958984375,0.00895601829742034,0.05228325063181094,15.47532639512636,0.6468733896293899,4604,0,10.010576840836556,4.3176052894227315,43.130434520114235,0.012109316884499479,0.005222800989702185,0.1171875,,
2.1300499999998137,1180,,,,-0.0625,0.1328125,-1.12109375,0.00895601829742034,0.05228325063181094,15.475261113565244,0.6459477812045586,4605,0,9.996210579868658,4.318770534788097,43.20407718786615,0.01210604967563442,0.005230307046262515,0.119140625,,
2.138094999998808,1180,,,,0,0.0703125,-1.00390625,0.00895601829742034,0.05228325063181094,15.47539579499981,0.6428288938423967,4612,0,9.948031560673005,4.325239065295844,43.478340804572525,0.012087944699129547,0.005255637792555804,0.119140625,,
2.1470899999989195,1180,,,,-0.0625,0.078125,-0.90625,0.00895601829742034,0.05228325063181094,15.475293709455668,0.6419915609348681,4606,0,9.93500796445899,4.31949835582179,43.47755302536396,0.012104009846732303,0.005262527299308312,0.119140625,,
2.155039999999106,1180,,,,0,0.125,-0.91015625,0.00895601829742034,0.05228325063181094,15.475332028504372,0.6408842127554606,4602,0,9.91789598421739,4.316356170230748,43.52088565053999,0.012112821224624737,0.005271607074223268,0.119140625,,
2.1633249999992548,1180,,,,0.03125,0.009765625,-0.98046875,0.00895601829742034,0.05228325063181094,15.475273881922385,0.640609278559759,4609,0,9.91360403701298,4.322727881696967,43.603999772008514,0.012094966896525111,0.0052738893379853154,0.119140625,,
2.171259999998845,1180,,,,0,-0.0234375,-1.013671875,0.00895601829742034,0.05228325063181094,15.47524077056192,0.6478652059558726,4593,0,10.025870049036815,4.308063217125208,42.969469941804036,0.012136138212637421,0.005214834261375031,0.119140625,,
2.179289999999106,1180,,,,-0.125,0.125,-0.89453125,0.00895601829742034,0.05228325063181094,15.475145622475885,0.6551048332363901,4610,0,10.137842692320918,4.323482899295854,42.646971653749866,0.012092854730690869,0.0051572363291268845,0.119140625,,
2.1860299999993296,1180,,,,-0.0625,-0.001953125,-1,0.00895601829742034,0.05228325063181094,15.475013267526977,0.6561603092557168,4628,0,10.154089491356821,4.3403556935347485,42.74490290074031,0.012045844701089903,0.0051489846210548505,0.119140625,,
2.194274999999441,1180,,,,0,0.0390625,-1.046875,0.00895601829742034,0.05228325063181094,15.474773152201786,0.6499844730571133,4639,0,10.058362273012241,4.350668217134499,43.25424059151109,0.012017292062378065,0.005197988421245574,0.119140625,,
2.2020499999998138,1180,,,,0.0625,-0.009765625,-0.92578125,0.00895601829742034,0.05228325063181094,15.47503575490127,0.6465946545438416,4665,0,10.006075397993984,4.3747577497228045,43.7210152403994,0.011951119038562476,0.005225150576248174,0.119140625,,
2.210144999999553,1180,,,,0,-0.013671875,-0.888671875,0.009319788482654101,0.05228325063181094,15.474885610175466,0.6527668532815764,4662,0,10.101492384646585,4.549987257362851,45.04272323442471,0.011490856495741934,0.005175794688641954,0.119140625,,
2.217139999999665,1180,,,,-0.0625,0.16796875,-0.94921875,0.009319788482654101,0.05228325063181094,15.474675765976908,0.6609364156316029,4653,0,10.227776733826007,4.541329764662987,44.401925099162455,0.011512762415677799,0.005111888144653781,0.119140625,,
2.224125,1180,,,,-0.0625,0.099609375,-1.001953125,0.009319788482654101,0.05228325063181094,15.474560855355776,0.6641399136105509,4671,0,10.277273509637197,4.55873290819799,44.35741545579358,0.011468811988916862,0.005087268581767715,0.119140625,,
2.233870000000112,1180,,,,0.0625,0.06640625,-1.05859375,0.009319788482654101,0.06289080192289875,15.47462306409547,0.6552690904035681,4685,0,10.140042179547914,4.572037409344693,45.08893876759529,0.013755530913714209,0.0062022229108422405,0.119140625,,
2.2491149999992923,1180,,,,-0.0625,-0.029296875,-0.921875,0.009319788482654101,0.06289080192289875,15.474891557102152,0.6477633457781283,4670,0,10.024067530582201,4.558004415377942,45.47060762980726,0.013797880868810864,0.006273980271085228,0.12109375,,
2.256674999999814,1180,,,,-0.125,0.09765625,-1.0859375,0.009319788482654101,0.06289080192289875,15.47468057571674,0.6521103598305255,4672,0,10.091199518493086,4.559313533444786,45.18108600557752,0.013793919076098646,0.006232242441311893,0.12109375,,
2.2641899999994783,1180,,,,-0.0625,-0.037109375,-1.017578125,0.009319788482654101,0.06289080192289875,15.474484618319313,0.657401415749287,4682,0,10.17294809607368,4.569165380264876,44.914859852950364,0.013764177194053095,0.006182160896620705,0.12109375,,
2.271264999999665,1180,,,,0.125,-0.04296875,-0.9765625,0.009319788482654101,0.06289080192289875,15.474463794425887,0.6503882462281391,4692,0,10.064409368577486,4.578818842174814,45.49515698825344,0.013735158365214408,0.00624883186083952,0.123046875,,
2.281099999998696,1180,,,,-0.0625,0.111328125,-0.958984375,0.009319788482654101,0.06289080192289875,15.474845324365885,0.6436560078638826,4691,0,9.960477163792415,4.578483496991878,45.96650764518833,0.013736164379366839,0.006314035049597294,0.123046875,,
2.289449999999255,1180,,,,-0.0625,0.046875,-0.958984375,0.009319788482654101,0.06289080192289875,15.475312503460461,0.6392259190070758,4689,0,9.892220856946205,4.576562901820967,46.264261261487675,0.0137419288824535,0.006357601880546121,0.123046875,,
2.296339999999851,1180,,,,0,0.02734375,-1.0078125,0.009319788482654101,0.06289080192289875,15.475168007044786,0.6421457473111469,4674,0,9.937313324649326,4.5617112229662755,45.90487462693798,0.01378666882863394,0.006328753041015549,0.123046875,,
2.3066849999995904,1180,,,,-0.0625,0.033203125,-0.951171875,0.009319788482654101,0.06289080192289875,15.47500419419631,0.6420916696647443,4673,0,9.93637128112043,4.560848948881654,45.90054880042054,0.013789275336189314,0.006329353054911929,0.123046875,,
2.318049999999814,1180,,,,-0.0625,0.001953125,-0.9296875,0.009319788482654101,0.06289080192289875,15.475281339706054,0.6343499218597981,4674,0,9.816743508600927,4.561884638836828,46.47044750471415,0.013786144741032822,0.006406483154805569,0.123046875,,
2.326199999999255,1180,,,,-0.09375,0.005859375,-1.07421875,0.009319788482654101,0.06289080192289875,15.475615140903313,0.627422410354315,4666,0,9.70974775342129,4.554176252714354,46.90313660424044,0.013809479131470797,0.006477078861367824,0.125,,
2.335325000000186,1180,,,,-0.09375,0.021484375,-1.0078125,0.009319788482654101,0.06289080192289875,15.475782539228794,0.6259111577099726,4650,0,9.686464965596475,4.537846935605168,46.8472962192326,0.013859172161458468,0.00649264743601187,0.125,,
2.344319999999367,1180,,,,-0.0625,0.05859375,-0.998046875,0.009319788482654101,0.06289080192289875,15.475794541687101,0.623882193987722,4636,0,9.655072652370961,4.524460753001488,46.86097055821152,0.013900176254413863,0.006513757502120389,0.125,,
2.353054999999702,1180,,,,-0.0625,-0.08203125,-1.0546875,0.009319788482654101,0.06289080192289875,15.47608009277619,0.6216116817431969,4625,0,9.620112173263019,4.514249487255501,46.925123178936126,0.013931618555963787,0.00653742916820553,0.125,,
2.3621949999993666,1180,,,,-0.09375,0.083984375,-1.00390625,0.009437717926241481,0.06289080192289875,15.475831284487644,0.6196235313481081,4619,0,9.589189231041761,4.5648214907909415,47.60383157330834,0.013777275201182453,0.0065585108821620735,0.125,,
2.3692249999996275,1180,,,,0,-0.046875,-0.931640625,0.009437717926241481,0.06289080192289875,15.475666458999203,0.6212010846453171,4614,0,9.613500789939458,4.560087581278196,47.43420405239196,0.013791577640109803,0.006541925079853747,0.125,,
2.3762449999991806,1180,,,,0.0625,0.015625,-0.9921875,0.009437717926241481,0.06746636024657297,15.475680872652305,0.6184101693898881,4610,0,9.570318429880764,4.555805947708962,47.603493876281846,0.014808874877671352,0.007049541845538522,0.125,,
2.3885299999993292,1180,,,,-0.0625,0.14453125,-1.001953125,0.009437717926241481,0.06746636024657297,15.475598834616092,0.619200311924896,4612,0,9.58249562561884,4.558541373861977,47.57154661959561,0.014799988573848516,0.00704058346410317,0.125,,
2.408339999999851,1180,,,,0,0.111328125,-0.970703125,0.009437717926241481,0.06746636024657297,15.475737449831279,0.6223350237554186,4606,0,9.63109343347337,4.552506851958107,47.268847337059675,0.014819606524601847,0.0070050571840669824,0.123046875,,
2.416269999999553,1180,,,,0,-0.048828125,-0.916015625,0.009437717926241481,0.06746636024657297,15.475685362221851,0.6222977811824202,4607,0,9.630484663187916,4.552896476010388,47.27588107183873,0.014818338304430852,0.007005499993625454,0.123046875,,
2.423644999999553,1180,,,,0,0.10546875,-0.96484375,0.009437717926241481,0.06746636024657297,15.475612084415172,0.6228329182310847,4604,0,9.638720635948541,4.549897564240445,47.20437219926431,0.014828105313143623,0.006999514022115202,0.123046875,,
2.4312699999986216,1180,,,,-0.0625,-0.0078125,-0.984375,0.009437717926241481,0.06746636024657297,15.47543649987907,0.624037757132365,4602,0,9.657256684028871,4.547925812966906,47.09335126701401,0.014834534031803018,0.006986079220421731,0.123046875,,
2.4382649999996646,1180,,,,-0.0625,0.111328125,-1.083984375,0.009437717926241481,0.06746636024657297,15.47546075981173,0.6278475473658024,4612,0,9.716230082403511,4.558227954383773,46.913544818570216,0.014801006207179418,0.006943676680604477,0.123046875,,
2.453774999999441,1180,,,,0,-0.1171875,-1.0390625,0.009437717926241481,0.06746636024657297,15.4753902590462,0.6296047105886352,4615,0,9.743378605292968,4.561361908956358,46.81499194210164,0.014790836945891301,0.006924329124388405,0.125,,
2.4619899999992922,1180,,,,-0.109375,0.064453125,-1.01953125,0.009437717926241481,0.06746636024657297,15.475542683836522,0.6297252740812683,4619,0,9.745340358135321,4.564604247856489,46.83883866658387,0.014780330688745858,0.006922935245689256,0.125,,
2.469324999999255,1180,,,,-0.0625,-0.0859375,-0.96875,0.009437717926241481,0.06746636024657297,15.475500078317422,0.6295395228195776,4620,0,9.742438934698285,4.565586791625209,46.862873067282926,0.014777149866108891,0.00692499698471678,0.125,,
2.476274999999441,1180,,,,-0.09375,0.068359375,-0.962890625,0.009437717926241481,0.06746636024657297,15.47534876595785,0.6277888666559766,4620,0,9.715251662886644,4.565951319187345,46.997766785906265,0.014775970116689886,0.006944375975797114,0.125,,
2.483289999999106,1180,,,,0,-0.04296875,-0.92578125,0.009437717926241481,0.06746636024657297,15.47537660180231,0.6297482615450195,4619,0,9.745591511739477,4.565005013960279,46.84174386399537,0.014779033109548301,0.006922756834749685,0.125,,
2.4902999999988826,1180,,,,0.03125,0.021484375,-0.939453125,0.009437717926241481,0.06746636024657297,15.47557608819862,0.6296762891192605,4607,0,9.74460332319967,4.553542115801214,46.72886073217853,0.01481623723484591,0.006923458863220324,0.125,,
2.497264999999665,1180,,,,-0.125,0.1484375,-0.9765625,0.009437717926241481,0.06746636024657297,15.475680908019092,0.627918502762469,4608,0,9.717466384993074,4.5546217116291805,46.870465316587016,0.014812725297100551,0.006942793272818824,0.125,,
2.5059899999992923,1180,,,,-0.0625,0.1875,-1.046875,0.009437717926241481,0.06746636024657297,15.47578189300851,0.624241097174381,4615,0,9.66061906852305,4.561203360437877,47.21440032036383,0.014791351078917074,0.006983647711190363,0.125,,
2.5150149999996647,1180,,,,-0.125,0.09765625,-0.974609375,0.009204299375303256,0.06746636024657297,15.475867850710458,0.6260160801844212,4606,0,9.688142129353864,4.439242143687651,45.821397791402134,0.015197720255586031,0.006963807853536573,0.126953125,,
2.522199999999255,1180,,,,0,0.1015625,-0.99609375,0.009204299375303256,0.06746636024657297,15.4758750154743,0.6257765603839632,4614,0,9.68443983611562,4.44695679524369,45.91857526606662,0.015171355008155835,0.006966470068302204,0.125,,
2.5295299999993293,1180,,,,-0.0625,0.21875,-1.01953125,0.009204299375303256,0.06954612588789422,15.475703579889142,0.6255902628032383,4616,0,9.681449469607864,4.449487165797697,45.958894685817306,0.015630144170879094,0.007183441498735736,0.126953125,,
2.539214999999851,1180,,,,0,0.025390625,-0.888671875,0.009204299375303256,0.06954612588789422,15.47554614096396,0.624589746748263,4613,0,9.665867444975738,4.446270266928219,45.99970248132634,0.015641452658688992,0.007195021686754445,0.125,,
2.555375,1180,,,,-0.03125,0.052734375,-1.009765625,0.009204299375303256,0.06954612588789422,15.475350813601318,0.6210229323699393,4608,0,9.610547741716218,4.4416899764536835,46.216824428994535,0.01565758219429375,0.007236437272562252,0.125,,0.1125449999999255,44890,
2.5731999999992548,1180,,,,-0.09375,0.068359375,-1.015625,0.009204299375303256,0.06954612588789422,15.475310036517005,0.6235069670496334,4605,0,9.64896362502147,4.438255087050752,45.99722062939041,0.015669700033872556,0.007207626496544024,0.126953125,,
2.586699999999255,1450,,,,-0.041015625,-0.029296875,-0.966796875,0.009204299375303256,0.06954612588789422,15.475043282822085,0.6289490880484141,4608,0,9.733014360240686,4.441634203657402,45.634723624794546,0.015657778803717656,0.007145384082858214,0.125,,
2.5970649999994784,1450,,,,-0.0625,0.03125,-0.94140625,0.009204299375303256,0.06954612588789422,15.475108265792374,0.625798564919316,4620,0,9.684300544703913,4.4530358094514195,45.982007568803375,0.015617688440835102,0.007181326680936927,0.125,,
2.604199999999255,1450,,,,-0.03125,0.13671875,-0.9921875,0.009204299375303256,0.06954612588789422,15.475235829617372,0.6221639950849205,4616,0,9.628134548636048,4.448839496279696,46.20666104951693,0.01563241963349129,0.007223219153885458,0.125,,
2.611454999999143,1450,,,,-0.125,0.328125,-1.02734375,0.009204299375303256,0.06954612588789422,15.444566271877488,1.7114850858481587,4690,0,26.433144831711818,4.520391448643634,17.101224532392852,0.015384978641343522,0.0026310197417168386,0.126953125,,
2.621839999999851,1450,,,,0.15625,0.251953125,-1.091796875,0.009204299375303256,0.06954612588789422,15.39377773536287,3.189585764231881,5142,0,49.09977432246309,4.956223503788293,10.094187951330005,0.014032080239064397,0.001416424552812597,0.1328125,,
2.6308799999998884,1450,,,,-0.1875,-0.376953125,-0.984375,0.009204299375303256,0.06954612588789422,15.363838144920287,4.08158399956003,6444,0,62.70879594413669,6.211259536697755,9.904925526286574,0.011196783112506797,0.0011090330286336301,0.142578125,,
2.6393499999996273,1450,,,,0.09375,0.041015625,-1.03515625,0.009204299375303256,0.06954612588789422,15.346352586587743,4.644652277583393,7921,0,71.27847149389257,7.634919338372552,10.711395991462505,0.009108953586236389,0.0009756960893003045,0.142578125,,
2.6477599999997765,1450,,,,-0.125,0.11328125,-0.998046875,0.009204299375303256,0.06954612588789422,15.333939212229689,5.015215609635376,8920,0,76.90301129437432,8.597900423374055,11.18018693762518,0.008088733581843739,0.000904335535336595,0.146484375,,
2.655399999999441,1450,,,,0,-0.41015625,-0.875,0.009204299375303256,0.06954612588789422,15.32530964116635,5.254699600681247,9581,0,80.52989845175328,9.234886019425398,11.467648906769902,0.007530805008486876,0.0008636062782267183,0.150390625,,
2.6628499999996276,1450,,,,-0.5625,-0.14453125,-0.28125,0.009139164276747198,0.06954612588789422,15.3200505481274,5.420899835377604,10012,0,83.0484594943204,9.58169591883073,11.537475802890738,0.007258227194542513,0.0008374162062891776,0.154296875,,
2.669354999999516,1450,,,,-0.09375,0.0234375,-1.142578125,0.009139164276747198,0.06954612588789422,15.315503973068667,5.545806282824869,10383,0,84.93681815847346,9.936833480180374,11.699088446709204,0.006998821709814122,0.0008187983420586396,0.16015625,,
2.6762799999993296,1450,,,,-0.25,-0.12109375,-0.8203125,0.009139164276747198,0.07090335274246952,15.312242036461027,5.645904857168282,10662,0,86.45146168779166,10.204115294545451,11.803288336981856,0.006948505646576777,0.0008201521565769224,0.162109375,,
2.683419999998994,1450,,,,-0.15625,-0.064453125,-1.08203125,0.009139164276747198,0.07090335274246952,15.309497549770693,5.730253133226896,10830,0,87.727296302703,10.364558143498192,11.814519061131541,0.006840943121820202,0.0008082245290886149,0.1640625,,
2.6932649999996645,1450,,,,0,0.13671875,-1.16796875,0.009139164276747198,0.07090335274246952,15.307191160989515,5.791901598248768,10964,0,88.65774495003458,10.493474693377296,11.835936836980425,0.006756899388838138,0.0007997423438011984,0.166015625,,
2.703014999998733,1450,,,,-0.1875,0.046875,-0.74609375,0.009139164276747198,0.07090335274246952,15.30476068834805,5.8462123628390055,11067,0,89.47488114651279,10.591398703023962,11.837287255716857,0.006694427688972357,0.0007924386356699053,0.169921875,,
2.711769999999553,1450,,,,0.375,0.22265625,-1.16796875,0.009139164276747198,0.07090335274246952,15.302171379604246,5.946543916709597,11135,0,90.99503412983334,10.656881619985043,11.711498019528861,0.006653292705204042,0.0007792002434034295,0.173828125,,
2.718424999999814,1450,,,,0.40625,-0.107421875,-1.1015625,0.009139164276747198,0.07090335274246952,15.300425608419248,6.00559134864008,11175,0,91.88810366443377,10.695077046800243,11.639240141311005,0.006629531739902932,0.0007716271194517358,0.177734375,,
2.7262400000002236,1450,,,,0.25,-0.001953125,-1.328125,0.009139164276747198,0.07090335274246952,15.298653329904495,6.06486675760782,11228,0,92.78429401670395,10.745487927515136,11.581149634636036,0.006598430264009959,0.000764174082412103,0.1796875,,
2.7459649999989195,1450,,,,0.09375,0.01171875,-1.046875,0.009139164276747198,0.07090335274246952,15.296679025891038,6.117470912798295,11254,0,93.57698900330017,10.770898297063887,11.51019968881883,0.006582863451769621,0.0007577007285409555,0.18359375,,
2.7555049999989567,1450,,,,0.0625,0.2578125,-0.962890625,0.009139164276747198,0.07090335274246952,15.295522086544478,6.158084351168885,11254,0,94.1911152041076,10.771059998580908,11.43532484485457,0.006582764625933851,0.0007527605187477118,0.18359375,,
2.764179999998771,1450,,,,0.125,-0.001953125,-0.9375,0.009139164276747198,0.07090335274246952,15.295013939853833,6.17592491694841,11257,0,94.46085769621655,10.77325771509561,11.404996712757049,0.00658142175909511,0.0007506109352774744,0.185546875,,
2.7715849999990314,1450,,,,0.09375,0.115234375,-0.8125,0.009139164276747198,0.07090335274246952,15.29405628422701,6.200556502315795,11213,0,94.83166013994753,10.731470760822846,11.31633754485149,0.006607048961202493,0.000747675962203278,0.1875,,
2.7795049999989567,1450,,,,0.25,-0.02734375,-1.0703125,0.009139164276747198,0.07090335274246952,15.293271908923206,6.198031906981241,11240,0,94.78818725364593,10.75712099063084,11.348588154603705,0.006591294529849056,0.000748018870249492,0.1875,,
2.787449999999255,1450,,,,0.15625,0.076171875,-0.927734375,0.009139164276747198,0.07090335274246952,15.292687861613274,6.216756829961058,11252,0,95.0709217121469,10.769018974419557,11.327353075450025,0.006584012240194902,0.0007457943129777233,0.1875,,
2.795554999999702,1450,,,,0.1875,0.04296875,-1.033203125,0.009139164276747198,0.07090335274246952,15.292214992987855,6.230790174332267,11231,0,95.2825829220853,10.748772875323462,11.280941957789887,0.006596413708326294,0.0007441376017319847,0.1875,,
2.8036149999992923,1450,,,,-0.0625,-0.10546875,-0.79296875,0.009139164276747198,0.07090335274246952,15.291510608753914,6.241555922369892,11241,0,95.44281860205002,10.758229053062045,11.271910459726268,0.0065906156480548955,0.000742888294593456,0.1875,,
2.812449999999255,1450,,,,0.03125,0.05078125,-0.9296875,0.022038855580733756,0.07090335274246952,15.291098253496152,6.266853448106144,11210,0,95.8270718152522,25.870608344400544,26.997181333347264,0.0027406913590346978,0.0007399094159859769,0.1875,,
2.8195749999992548,1450,,,,-0.0625,0.21484375,-0.80078125,0.022038855580733756,0.07090335274246952,15.290554281541093,6.273092099445902,11230,0,95.91905525968414,25.916894574212034,27.019547371527537,0.002735796626383631,0.0007391998654543775,0.1875,,
2.82755999999959,1450,,,,0.125,-0.025390625,-0.9140625,0.022038855580733756,0.22327381901768129,15.290136569455855,6.279112942020782,11220,0,96.0084944185355,25.89430807636072,26.970851103526456,0.008622505701224399,0.002325563174070312,0.1875,,
2.834484999999404,1450,,,,0.125,0.1796875,-1,0.022038855580733756,0.22327381901768129,15.289702632589504,6.304477176154623,11220,0,96.39358127735179,25.893707788319343,26.862481344910066,0.008622705594847261,0.0023162726818423615,0.189453125,,
2.8461249999990685,1450,,,,0.28125,-0.095703125,-1.04296875,0.022038855580733756,0.22327381901768129,15.288795299504715,6.3178508168608385,11213,0,96.59232787179401,25.87754058531348,26.79047203382495,0.008628092699983938,0.0023115067618416888,0.189453125,,
2.874214999999851,1450,,,,0.109375,-0.013671875,-1.083984375,0.022038855580733756,0.22327381901768129,15.287204073711488,6.3657092910945705,11235,0,97.31389700688399,25.92851906845338,26.644209990500322,0.008611128866566595,0.002294367257760594,0.197265625,,
2.882859999999404,1450,,,,0.375,0.09375,-1.05859375,0.022038855580733756,0.22327381901768129,15.286780317363098,6.378216231687817,11190,0,97.50239035045114,25.824549408016672,26.486067998123886,0.008645797279559532,0.002289931746444083,0.197265625,,
2.890879999999888,1450,,,,0.125,0.078125,-1.017578125,0.022038855580733756,0.22327381901768129,15.286301658178848,6.388081773294433,11229,0,97.65014500369276,25.914469870147276,26.53807617916726,0.008615797279916048,0.0022864668455867417,0.197265625,,
2.8975299999993296,1450,,,,0.4375,0.064453125,-1.234375,0.022038855580733756,0.22327381901768129,15.2861168726804,6.395148085552805,11223,0,97.7569810538585,25.902373845091763,26.496699842664984,0.008619820729673756,0.0022839680257174698,0.201171875,,
2.905059999998659,1450,,,,0.1875,0.0078125,-1.15625,0.022038855580733756,0.22327381901768129,15.285410920728483,6.392489769791654,11211,0,97.71183293781844,25.873976614271836,26.47988051839887,0.008629281163318575,0.002285023341643459,0.203125,,
2.913450000000186,1450,,,,0.1875,-0.1484375,-1.328125,0.022038855580733756,0.22327381901768129,15.285145957094628,6.407027412365256,11237,0,97.93234914910924,25.934703787008825,26.482264555424194,0.00860907534750882,0.0022798781093030904,0.205078125,,
2.920609999999404,1450,,,,0.28125,-0.04296875,-1.21875,0.022038855580733756,0.22327381901768129,15.284894232769501,6.4205093384228515,11212,0,98.13680615830216,25.876894875956406,26.368185280265795,0.008628307997847796,0.0022751282394244984,0.208984375,,
2.9275899999989194,1450,,,,0.125,-0.0234375,-1.189453125,0.022038855580733756,0.22327381901768129,15.284514831776628,6.4255873242918575,11233,0,98.21198476101479,25.923811693526247,26.395772121506596,0.008612692518262572,0.0022733866906466363,0.208984375,,
2.935609999999404,1450,,,,0.125,0.0546875,-1.1015625,0.022038855580733756,0.22327381901768129,15.283575873120343,6.4433826991080325,11221,0,98.47792836136855,25.897311144675594,26.29757913838765,0.008621505830097952,0.002267247318590714,0.2109375,,
2.944499999999069,1450,,,,0.09375,0.056640625,-0.962890625,0.022038855580733756,0.22327381901768129,15.282711839714462,6.445549400829361,11241,0,98.50547414151933,25.944012501520362,26.337635271160174,0.008605986410336375,0.002266613312240005,0.2109375,,
2.951629999998957,1450,,,,0.375,0.01953125,-1.20703125,0.022038855580733756,0.22327381901768129,15.282319449258525,6.444312104387813,11256,0,98.48403620997802,25.978790994604783,26.378682266042947,0.008594465349216993,0.002267106706935109,0.212890625,,
2.9595799999991432,1450,,,,0.1875,0.103515625,-1.091796875,0.0433352023389731,0.22327381901768129,15.282009573210965,6.440518813809216,11255,0,98.42407016907778,51.07699146900357,51.894817376746325,0.004371318916721564,0.0022684879687878217,0.21484375,,
2.9692149999989197,1450,,,,0.40625,0.021484375,-1.04296875,0.0433352023389731,0.22327381901768129,15.281909972353912,6.425738211196103,11252,0,98.19755284941331,51.064015399956574,52.00131155840882,0.004372429729015614,0.0022737208060579,0.216796875,,
2.9789949999991805,1450,,,,0.28125,-0.0234375,-1.2265625,0.0433352023389731,0.33035131975438137,15.28165583324255,6.444579854261686,11239,0,98.48385132267552,51.00157451567876,51.7867384659599,0.006477276885889585,0.0033543704406117114,0.220703125,,
2.986634999998845,1450,,,,0.1875,-0.0625,-1.08984375,0.0433352023389731,0.33035131975438137,15.281876647040802,6.450543110900085,11228,0,98.57640412719394,50.95481989998682,51.69068637788755,0.006483220241044691,0.0033512210419861365,0.22265625,,
3.0007349999994037,1450,,,,0.25,0.0234375,-1.19921875,0.0433352023389731,0.33035131975438137,15.281453079154128,6.460227725813846,11251,0,98.72166687267486,51.05977746910274,51.72094342263943,0.006469893448992866,0.0033462899302586554,0.224609375,,
3.035714999999851,1450,,,,0.34375,-0.087890625,-1.1171875,0.0433352023389731,0.33035131975438137,15.280210121986,6.4925344731999735,11234,0,99.20729097473328,50.98247080407664,51.389842725431514,0.006479703995200757,0.003329909692207171,0.2265625,,
3.05275,1450,,,,0.4375,-0.28515625,-1.3828125,0.0433352023389731,0.33035131975438137,15.279933823550664,6.4952106274447114,11244,0,99.24638855737818,51.02556292083492,51.4130173022216,0.006474231754521051,0.003328597892137833,0.234375,,
3.060984999999404,1450,,,,0.0625,0.013671875,-1.001953125,0.0433352023389731,0.33035131975438137,15.279489288248751,6.498304107053506,11228,0,99.29076799550691,50.953280982820836,51.31723926752845,0.006483416050592719,0.0033271101273920087,0.232421875,,
3.0684999999990685,1450,,,,0.15625,-0.0546875,-1.15625,0.0433352023389731,0.33035131975438137,15.279420741198953,6.499603408531828,11244,0,99.31017512988863,51.02363759556445,51.37805620504666,0.006474476053096991,0.0033264599455424585,0.234375,,
3.075879999998957,1450,,,,0.09375,0.0234375,-1.0390625,0.0433352023389731,0.33035131975438137,15.279446823386639,6.5104688656595755,11230,0,99.47636282815982,50.96039144696853,51.2286436678429,0.006482511424547405,0.0033209026784085972,0.234375,,
3.0995799999991434,1450,,,,0.1875,-0.06640625,-1.14453125,0.0433352023389731,0.33035131975438137,15.27853864854583,6.520351998305172,11223,0,99.62145000822859,50.9299340063858,51.123461867076884,0.006486388136944387,0.003316066165741362,0.236328125,,
3.1115449999999254,1450,,,,0.1875,0.033203125,-1.2421875,0.0433352023389731,0.33035131975438137,15.278362716023155,6.5343142545522,11223,0,99.83362328152897,50.93117246489454,51.01605129693587,0.006486230411877588,0.0033090186341609255,0.240234375,,
3.1259749999996274,1450,,,,0.15625,-0.166015625,-1.26171875,0.05208544218597304,0.33035131975438137,15.278245259538842,6.530693897359628,11229,0,99.77754307883397,61.248421023283825,61.384976151288484,0.005393629978294412,0.0033108784758647714,0.2421875,,
3.1590299999993294,1450,,,,-0.03125,0.103515625,-1.134765625,0.05208544218597304,0.37896194760573626,15.277517183739693,6.548839580547858,11234,0,100.05000922537454,61.275319386390734,61.24469139064325,0.0061845772719040905,0.0037877252639935237,0.244140625,,
3.167674999999814,1450,,,,0.03125,0.02734375,-1.150390625,0.05208544218597304,0.37896194760573626,15.277449968522912,6.560212055187538,11223,0,100.22331145602848,61.21526012532693,61.0788640247476,0.006190645058599469,0.0037811756775967265,0.244140625,,
3.175039999999106,1450,,,,-0.21875,0.13671875,-1.1640625,0.05208544218597304,0.37896194760573626,15.277747706383975,6.562083621516888,11223,0,100.25385799772948,61.215782166306994,61.06077450674605,0.006190592265507569,0.0037800235838736387,0.24609375,,
3.204774999999441,1450,,,,-0.125,0.072265625,-1.099609375,0.05208544218597304,0.37896194760573626,15.276597435310858,6.5543860927984925,11224,0,100.12871777528261,61.22091818230894,61.14221728046707,0.0061900729171887065,0.0037847478328468655,0.24609375,,
3.2132999999988825,1450,,,,-0.3125,0.19140625,-0.9609375,0.05208544218597304,0.37896194760573626,15.276658234322898,6.559524862544538,11224,0,100.2076195046368,61.21802594220906,61.09118871881433,0.006190365366623931,0.0037817677885083477,0.248046875,,
3.220864999999292,1450,,,,0,-0.099609375,-1.177734375,0.05208544218597304,0.37896194760573626,15.276401519551614,6.546223709196966,11251,0,100.00274181850133,61.36761508154675,61.36593253905488,0.006175275788413198,0.0037895155744182324,0.248046875,,
3.2285149999996645,1450,,,,-0.1875,0.033203125,-1.09765625,0.05208544218597304,0.37896194760573626,15.276042112461587,6.556792866640057,11235,0,100.16184395348124,61.28222589319024,61.183204576037866,0.006183880270051467,0.003783496116362832,0.248046875,,
3.235734999999404,1450,,,,-0.25,-0.1484375,-1.3046875,0.05208544218597304,0.37896194760573626,15.276040093810808,6.55381445551039,11247,0,100.11633238977358,61.345247902400494,61.27396643294,0.00617752736460793,0.003785216043775546,0.25,,
3.2427049999991433,1450,,,,-0.1875,-0.0546875,-0.97265625,0.05208544218597304,0.37896194760573626,15.275694941057688,6.55837241569653,11234,0,100.18369633202778,61.27246261703833,61.16011373144964,0.006184865621842274,0.0037826708484560647,0.25,,
3.251234999999404,1450,,,,-0.375,0.025390625,-1.13671875,0.05208544218597304,0.37896194760573626,15.275261575755762,6.55287752831166,11239,0,100.09691831885249,61.30087831767564,61.24152406211499,0.006181998659821249,0.003785950196774057,0.251953125,,
3.258899999999441,1450,,,,-0.25,0.0703125,-0.908203125,0.054830445349681046,0.37896194760573626,15.27530109753589,6.550075059043862,11231,0,100.05436873835517,64.4891674734737,64.45412457912217,0.005876365945670092,0.0037875602273473117,0.25390625,,
3.2668499999996277,1450,,,,-0.375,-0.1640625,-0.9921875,0.054830445349681046,0.37896194760573626,15.27481407442429,6.546805139350243,11214,0,100.00123128506037,64.3862715029596,64.3854787341789,0.0058857569907323605,0.003789572815613432,0.255859375,,
3.2736749999988826,1450,,,,-0.125,0.06640625,-1.05078125,0.054830445349681046,0.3955320238246471,15.274865387340926,6.544237519274057,11243,0,99.96234716969714,64.55747055665029,64.58178742747691,0.006126820341846587,0.0039568100892347765,0.255859375,,
3.281774999999441,1450,,,,-0.3125,0.03515625,-0.9296875,0.054830445349681046,0.3955320238246471,15.274394707357372,6.553905681516924,11223,0,100.10694225428152,64.44143963876404,64.37259813118297,0.0061378520722358155,0.003951094848346848,0.255859375,,
3.289754999999888,1450,,,,-0.25,-0.013671875,-1.068359375,0.054830445349681046,0.3955320238246471,15.274080740305761,6.550325295695598,11242,0,100.05019744172176,64.5504717160022,64.5180852877399,0.00612748463814237,0.0039533357648298545,0.2578125,,
3.2967499999990686,1450,,,,-0.4375,0.10546875,-1.015625,0.054830445349681046,0.3955320238246471,15.273913371180583,6.559055667176874,11225,0,100.18244805721064,64.45095060242204,64.33357524425476,0.006136946315416846,0.003948116975528216,0.2578125,,
3.3037299999995158,1450,,,,-0.3125,-0.05078125,-1.119140625,0.054830445349681046,0.3955320238246471,15.273490488480153,6.551412914381203,11245,0,100.06294283390734,64.56549591710262,64.52488212771607,0.006126058790479691,0.003952832213631609,0.259765625,,
3.3150949999997392,1450,,,,-0.3125,0.171875,-0.875,0.054830445349681046,0.3955320238246471,15.27351735262701,6.5509586036402565,11231,0,100.05617990904067,64.48784727521864,64.4516384033884,0.006133435066247621,0.0039530993906045425,0.26171875,,
3.333734999999404,1450,,,,-0.353515625,0.123046875,-0.962890625,0.054830445349681046,0.3955320238246471,15.273829170161944,6.536765249488015,11238,0,99.84143574613097,64.52766336418824,64.63014366927192,0.006129650497218541,0.003961601922776583,0.265625,,
3.342424999999814,1450,,,,-0.125,0.16796875,-1.05859375,0.054830445349681046,0.3955320238246471,15.27354314645838,6.535196473375878,11248,0,99.81560530668912,64.5844692660486,64.70377960200626,0.006124259103149033,0.003962627112357356,0.265625,,
3.351214999999851,1450,,,,-0.4375,0.103515625,-0.9609375,0.054830445349681046,0.3955320238246471,15.273664859311221,6.527034044653967,11233,0,99.69173052335928,64.49775165106038,64.6971933504029,0.0061324932063448806,0.00396755098690927,0.26953125,,
3.3590149999996646,1450,,,,-0.25,-0.01171875,-0.943359375,0.054830445349681046,0.3955320238246471,15.273646848233625,6.530675693093371,11217,0,99.7472342166515,64.40438793604724,64.56759271756907,0.006141383165032256,0.00396534326922338,0.26953125,,
3.367699999999255,1450,,,,-0.46875,0.0859375,-1.078125,0.054830445349681046,0.3955320238246471,15.273664302603592,6.527256139348402,11240,0,99.69511908951581,64.53628508604078,64.7336456141789,0.006128831606859887,0.003967416132674465,0.2734375,,
3.3748849999988453,1450,,,,-0.1875,-0.015625,-0.90234375,0.054830445349681046,0.3955320238246471,15.273971697087367,6.5373318215861405,11217,0,99.8510212173753,64.40501654176639,64.50110950949305,0.006141323223916047,0.0039612216179900185,0.271484375,,
3.3818749999990687,1450,,,,-0.5,0.0859375,-0.892578125,0.054830445349681046,0.3955320238246471,15.273626612947792,6.536863645836927,11225,0,99.84161454626583,64.45147370529988,64.5537174035117,0.006136896506559202,0.00396159482819021,0.275390625,,
3.3888999999994414,1450,,,,-0.0625,-0.16796875,-0.71875,0.054830445349681046,0.3955320238246471,15.273383554680445,6.53416652889076,11209,0,99.79883160590354,64.35749802769516,64.48722594452512,0.006145857684747728,0.0039632931313922275,0.275390625,,
3.397644999999553,1450,,,,-0.53125,0.177734375,-0.837890625,0.054830445349681046,0.3955320238246471,15.273410619902357,6.525972295890184,11208,0,99.6738545692377,64.3544759493895,64.5650519160831,0.006146146293471594,0.003968262545218352,0.279296875,,
3.411625,1450,,,,-0.21875,0.115234375,-0.7890625,0.05614333591626023,0.3955320238246471,15.272890761467915,6.538550438381077,11221,0,99.86256658374234,65.97169968658923,66.06249162569536,0.005995480269626145,0.003960763651041989,0.28125,,
3.4199749999996274,1450,,,,-0.28125,0.142578125,-0.80078125,0.05614333591626023,0.3955320238246471,15.27243612440996,6.5431824953214495,11225,0,99.93033671015421,65.99588058324433,66.04188753477732,0.005993283525109423,0.003958077565293102,0.28125,,
3.4291749999988825,1450,,,,-0.125,-0.07421875,-0.8671875,0.05614333591626023,0.40341751137411147,15.272241967156944,6.540743126857772,11242,0,99.89181167839061,66.09415548926833,66.16573909187228,0.006103679037696671,0.00403854434708768,0.28125,,
3.4386799999987705,1450,,,,-0.25,0.220703125,-0.962890625,0.05614333591626023,0.40341751137411147,15.271894873167057,6.543639425364464,11245,0,99.93377339207738,66.11343837079524,66.15725207473915,0.006101898816872244,0.004036848581623696,0.28125,,
3.448804999999702,1450,,,,-0.25,0.02734375,-0.658203125,0.05614333591626023,0.40341751137411147,15.271646562302653,6.536317446105055,11241,0,99.82032985592912,66.09225422027008,66.21121600746177,0.006103854621596276,0.004041436368286549,0.283203125,,
3.4559949999991804,1450,,,,-0.1875,0.115234375,-0.791015625,0.05614333591626023,0.40341751137411147,15.271798557502304,6.547728608528521,11230,0,99.99559231864244,66.02667634418331,66.02958671796756,0.006109916986752143,0.004034352935163336,0.283203125,,
3.466979999999516,1450,,,,-0.1875,-0.046875,-0.671875,0.05614333591626023,0.40341751137411147,15.271611954729833,6.54082213255971,11245,0,99.88889747336034,66.11280470475033,66.18633940011416,0.006101957301247653,0.0040386621694538175,0.28515625,,
3.4767549999998884,1450,,,,-0.125,0.05078125,-0.76953125,0.05614333591626023,0.40341751137411147,15.271358213065728,6.542104293203637,11235,0,99.90681812874791,66.05443233097651,66.11604049470726,0.0061073496075588415,0.004037937739686949,0.28515625,,
3.4839649999989195,1450,,,,-0.1875,0.22265625,-0.85546875,0.05614333591626023,0.40341751137411147,15.27139117779907,6.539632891940351,11218,0,99.86929205202249,65.95428116429393,66.04060147931956,0.006116623580040048,0.004039455002484337,0.28515625,,
3.4910249999994414,1450,,,,0.03125,-0.001953125,-0.9765625,0.05614333591626023,0.40341751137411147,15.271330886180808,6.542451246712195,11221,0,99.91193779524808,65.97163754857696,66.02978483289375,0.006115014366242806,0.004037730828530667,0.283203125,,
3.499714999999851,1450,,,,-0.15625,0.091796875,-0.83203125,0.05614333591626023,0.40341751137411147,15.271657601167579,6.530987607926251,11209,0,99.7390065457182,65.90282845491295,66.07528061220916,0.006121399048147187,0.004044731598456353,0.283203125,,
3.5079749999996275,1450,,,,0.0625,-0.12109375,-0.8203125,0.05614333591626023,0.40341751137411147,15.271603597558638,6.533701819126845,11238,0,99.78010420635295,66.07278496377812,66.21839643215296,0.0061056532064642,0.004043065645028923,0.283203125,,
3.514915000000037,1450,,,,-0.125,0.21875,-0.80078125,0.05614333591626023,0.40341751137411147,15.27153448225316,6.547145429702216,11210,0,99.98495719002356,65.90710860158515,65.9170243743039,0.006121001511579113,0.004034782058339114,0.283203125,,
3.5219899999992923,1450,,,,0.125,0.13671875,-0.8125,0.05614333591626023,0.40341751137411147,15.271208332611854,6.547379824630028,11205,0,99.98640133466482,65.87956664736068,65.88852660758833,0.006123560489301937,0.004034723782325472,0.283203125,,
3.529054999999702,1450,,,,0.125,0.0859375,-0.7890625,0.05614333591626023,0.40341751137411147,15.271415819239781,6.541407444801084,11230,0,99.89655313262816,66.02336103290959,66.0917308580741,0.006110223791439919,0.004038352663064482,0.283203125,,
3.536919999998994,1450,,,,0.25,0.1796875,-1.08203125,0.05614333591626023,0.40341751137411147,15.272161497691455,6.544819631837754,11195,0,99.95354239068772,65.81928981086617,65.84988209182099,0.006129168402353544,0.004036050166158957,0.283203125,,
3.5469199999999255,1450,,,,0.40625,-0.078125,-1.0078125,0.05614333591626023,0.40341751137411147,15.272037593506026,6.541530612741756,11211,0,99.90250143686261,65.91284523409436,65.97717202882116,0.0061204687787538865,0.004038112215128741,0.28515625,,
3.555089999999851,1450,,,,0.21875,0.025390625,-1.17578125,0.05614333591626023,0.40341751137411147,15.272035631843423,6.543995070115007,11199,0,99.94012588540409,65.84272214975482,65.88216851482966,0.006126987132405699,0.004036591987453452,0.28515625,,
3.562035000000149,1450,,,,0.375,0.04296875,-1.171875,0.05666626341651899,0.40341751137411147,15.271774365248666,6.532246130105564,11197,0,99.75898899724096,66.44544050952658,66.60596822143442,0.006071409991123044,0.004043921409280409,0.287109375,,
3.571879999998957,1450,,,,-0.0625,0.109375,-0.998046875,0.05666626341651899,0.40341751137411147,15.271787803967598,6.54019711891783,11235,0,99.88050259623334,66.67109949909027,66.75086504981658,0.006050860333863492,0.004039001615810101,0.28515625,,
3.579109999999404,1450,,,,0.25,0.115234375,-1.00390625,0.05666626341651899,0.40662538145154575,15.271619525004075,6.538142877033355,11219,0,99.8480304181689,66.57662323363868,66.67795344065598,0.006107630001368004,0.004072442688639695,0.287109375,,
3.5870699999993665,1450,,,,0.0625,0.00390625,-0.95703125,0.05666626341651899,0.40662538145154575,15.271768789478672,6.527156031626525,11223,0,99.68121776785144,66.59701569779205,66.80999408824488,0.006105759803063172,0.004079257763468938,0.28515625,,
3.593944999999367,1450,,,,0.28125,0.00390625,-1.19140625,0.05666626341651899,0.40662538145154575,15.27230016622566,6.532502110321335,11221,0,99.76633306533,66.58548356110465,66.74143622929638,0.006106817277648675,0.004075777559001544,0.287109375,,
3.600964999999851,1450,,,,0.3125,-0.10546875,-0.94140625,0.05666626341651899,0.40662538145154575,15.272030286524023,6.531827364804849,11210,0,99.75426534164606,66.52162798847728,66.68549736760518,0.006112679345760757,0.004076270624207436,0.287109375,,
3.6079249999988825,1450,,,,0,-0.060546875,-1.302734375,0.05666626341651899,0.40662538145154575,15.271857646802673,6.531181526737018,11222,0,99.74327454175507,66.59095351394377,66.76234946153397,0.0061063156479115544,0.0040767197920830445,0.2890625,,
3.618174999999814,1450,,,,0,0.03515625,-1.20703125,0.05666626341651899,0.40662538145154575,15.272256078972996,6.534455016578067,11217,0,99.79587034970997,66.56095215597048,66.6971007144124,0.0061090679787559445,0.0040745712225027705,0.2890625,,
3.627539999999106,1450,,,,-0.3125,0.11328125,-1.111328125,0.05666626341651899,0.40662538145154575,15.271854701634092,6.539156526078515,11218,0,99.86504833751343,66.57124624274194,66.66120664934884,0.006108123317518318,0.004071748707087948,0.291015625,,
3.636109999999404,1450,,,,-0.21875,0.1171875,-1.001953125,0.05666626341651899,0.40662538145154575,15.272119324726733,6.539596206768594,11209,0,99.87349360530028,66.51521696600652,66.5994695538282,0.0061132685120663,0.0040714044014373615,0.291015625,,
3.6434299999987707,1450,,,,-0.375,0.08984375,-0.96875,0.05666626341651899,0.40662538145154575,15.272114143777712,6.532928763407169,11202,0,99.77163376792285,66.47106217876667,66.62320708647901,0.00611732937797761,0.004075561019652042,0.29296875,,
3.655914999999106,1450,,,,-0.1875,0.3359375,-0.98828125,0.05666626341651899,0.40662538145154575,15.27210714675582,6.5267349671772905,11202,0,99.67699573720941,66.47193502962182,66.68733797401947,0.006117249050600704,0.004079430549086589,0.29296875,,
3.6633749999990686,1450,,,,-0.375,0.056640625,-0.8515625,0.05666626341651899,0.40662538145154575,15.272221221926772,6.524173105341314,11219,0,99.6386149549175,66.57691626439068,66.81838792571943,0.006107603119326711,0.004081001945235063,0.294921875,,
3.6726199999991804,1450,,,,-0.375,0.14453125,-0.8203125,0.05666626341651899,0.40662538145154575,15.272012970720834,6.532533778057321,11205,0,99.76494059016338,66.49214302838193,66.64880732153507,0.006115389923257236,0.004075834446912287,0.296875,,
3.682384999998845,1450,,,,-0.25,0.0859375,-0.912109375,0.05666626341651899,0.40662538145154575,15.271614838609626,6.539293543198625,11212,0,99.86557230833624,66.53260640795385,66.62216504656236,0.006111670704109593,0.0040717273435942935,0.296875,,
3.690984999999404,1450,,,,-0.125,-0.06640625,-0.744140625,0.05666626341651899,0.40662538145154575,15.271576804342226,6.542228128094265,11223,0,99.91013932971964,66.59750645930013,66.65740525044968,0.006105714809308176,0.004069911063877272,0.294921875,,
3.6990099999988453,1450,,,,-0.0625,0.107421875,-0.822265625,0.05666626341651899,0.40662538145154575,15.271695725399894,6.5510416883622185,11210,0,100.0455153490778,66.52135158719669,66.4910879364168,0.00611270474440884,0.004064403886898404,0.294921875,,
3.7059299999987707,1450,,,,-0.125,0.05078125,-0.693359375,0.05666626341651899,0.40662538145154575,15.271194356291714,6.561154883010966,11218,0,100.19667142019289,66.56581158611404,66.43515262793336,0.006108622005239246,0.004058272352644217,0.296875,,
3.7132599999997766,1450,,,,0.1875,0.12890625,-0.88671875,0.05678547774676621,0.40662538145154575,15.270969978898176,6.562189866057981,11212,0,100.21100444040127,66.67199363787299,66.53160898863656,0.006098893392330816,0.00405769190441933,0.294921875,,
3.7199799999995156,1450,,,,0.125,0.10546875,-0.87109375,0.05678547774676621,0.40662538145154575,15.270842716519281,6.5623351118502855,11236,0,100.21238734615767,66.81446626980484,66.67286154855448,0.0060858883435444,0.004057635909290974,0.294921875,,
3.7270699999993666,1450,,,,0.25,0.03125,-0.93359375,0.05678547774676621,0.4086290485515972,15.270546926388745,6.560222249019198,11217,0,100.17818170118717,66.69994880231879,66.58131308598941,0.006126377244496347,0.0040790224139869245,0.294921875,,
3.735254999999888,1450,,,,0.5,-0.234375,-1.0859375,0.05678547774676621,0.4086290485515972,15.27072627635088,6.566029393103525,11231,0,100.26803758455823,66.78808144169824,66.60954283200606,0.006118292960822725,0.0040753669703268245,0.296875,,
3.7420099999997767,1450,,,,0.1875,0.0625,-1.12109375,0.05678547774676621,0.4086290485515972,15.270399055101883,6.54795209472661,11226,0,99.98984148016562,66.75851950155837,66.76530186799111,0.006121002257128522,0.004086705634318407,0.296875,,
3.7500299999993296,1450,,,,0.4375,-0.1015625,-1.29296875,0.05678547774676621,0.4086290485515972,15.270412174107037,6.543202036239369,11236,0,99.91739203183161,66.81698659789502,66.87222838703448,0.0061156461755859925,0.004089668877880804,0.298828125,,
3.7569599999999626,1450,,,,0.0625,0.05859375,-0.931640625,0.05678547774676621,0.4086290485515972,15.27048063604545,6.546269772265478,11223,0,99.96468579570964,66.74088602438478,66.76446336337028,0.006122619474999156,0.004087734036264385,0.296875,,
3.764674999998882,1450,,,,0,-0.12109375,-1.25390625,0.05678547774676621,0.4086290485515972,15.270364865056653,6.546259467462839,11203,0,99.96377056948901,66.61681770255677,66.64096134333852,0.006134022348172208,0.004087771461837186,0.296875,,
3.774415000000037,1450,,,,0.25,0.134765625,-1.0234375,0.05678547774676621,0.4086290485515972,15.270348203299436,6.545951969679552,11229,0,99.95896589908055,66.77637382478517,66.80378615781518,0.006119365655041419,0.004087967946408656,0.296875,,
3.7946149999992924,1450,,,,0.21875,-0.017578125,-1.080078125,0.05678547774676621,0.4086290485515972,15.270043010791943,6.52573234306333,11229,0,99.64821355549313,66.77458796770401,67.01032119408531,0.0061195293147931285,0.004100716249409084,0.296875,,
3.8031699999989943,1450,,,,0.21875,-0.1328125,-1.310546875,0.05678547774676621,0.4086290485515972,15.270330757682578,6.523883723652012,11216,0,99.62186228482805,66.69777526977488,66.95094203226178,0.006126576889540928,0.004101800941878493,0.298828125,,
3.8106349999997766,1450,,,,-0.125,-0.080078125,-1.13671875,0.05678547774676621,0.4086290485515972,15.270803601740946,6.526028536855935,11197,0,99.65770008568381,66.5828883527307,66.81158434870963,0.006137148127110927,0.00410032589754997,0.298828125,,
3.8181799999987707,1450,,,,0.1875,-0.05078125,-1.30078125,0.05678547774676621,0.4086290485515972,15.270666971625792,6.515791536139627,11232,0,99.50048260492629,66.7897234037211,67.12502457793539,0.006118142548391374,0.0041068046893208325,0.30078125,,
3.825299999999814,1450,,,,-0.09375,0.033203125,-0.994140625,0.05678547774676621,0.4086290485515972,15.270638076378496,6.5114583939939665,11218,0,99.43412448407864,66.7088666461235,67.08850406462311,0.006125558251788152,0.004109545396731751,0.298828125,,
3.832179999999702,1450,,,,0,-0.09765625,-0.98046875,0.05678547774676621,0.4086290485515972,15.27078171088321,6.511684566904659,11223,0,99.43851359132812,66.73953891175326,67.11638831010595,0.006122743057783323,0.004109364005891909,0.298828125,,
3.8392399999992923,1450,,,,0,0.01171875,-1.060546875,0.05678547774676621,0.4086290485515972,15.27100829425958,6.515296190682397,11208,0,99.49514216746874,66.64760567951987,66.98578868035548,0.006131188725916447,0.004107025123536171,0.298828125,,
3.846179999999702,1450,,,,-0.25,0.03515625,-1.0390625,0.05678547774676621,0.4086290485515972,15.270965267994216,6.51466394219322,11234,0,99.48520679388695,66.8034344770491,67.14911355157776,0.00611688683000251,0.00410743528329989,0.296875,,
3.8543149999994784,1450,,,,-0.0625,-0.06640625,-0.94140625,0.05678547774676621,0.4086290485515972,15.270819252766758,6.523264000873574,11218,0,99.61558549542049,66.70833500463789,66.9657611034215,0.006125607070288703,0.00410205939682383,0.296875,,
3.8622099999990316,1450,,,,-0.3125,0.13671875,-1.1640625,0.05674793965311624,0.4086290485515972,15.270194835300886,6.521201186344487,11208,0,99.5800126756756,66.60627221546333,66.88718993478622,0.006134993521777214,0.004103524769397955,0.296875,,
3.8692450000001117,1450,,,,-0.25,-0.08984375,-0.890625,0.05674793965311624,0.4086290485515972,15.270186385134611,6.528502950012278,11234,0,99.69145686258864,66.76223105546508,66.96885887372265,0.0061206619684730755,0.004098937475804349,0.296875,,
3.8775349999992175,1450,,,,-0.28125,-0.037109375,-0.958984375,0.05674793965311624,0.40967157664552617,15.270177316689551,6.52713512908337,11215,0,99.6705107910964,66.6450650041594,66.86537921315924,0.006147065452182514,0.004110258625082939,0.298828125,,
3.8866299999998883,1450,,,,-0.3125,0.044921875,-0.953125,0.05674793965311624,0.40967157664552617,15.270270364396673,6.530590730126347,11198,0,99.72388608825199,66.54722534443779,66.73148024490936,0.006156103045996758,0.0041080586879955906,0.30078125,,
3.8953599999994037,1450,,,,-0.34375,0.294921875,-0.8046875,0.05674793965311624,0.40967157664552617,15.27022038960286,6.534773934499981,11211,0,99.78743817604692,66.62573788784044,66.76766044469248,0.006148848622662586,0.0041054423696375054,0.302734375,,
3.9043149999994786,1450,,,,-0.15625,0.1953125,-0.7734375,0.05674793965311624,0.40967157664552617,15.269951670019255,6.530498496369206,11204,0,99.72039642069119,66.58039915296291,66.76708230488744,0.006153035756129066,0.004108202447543847,0.3046875,,
3.9113700000001117,1450,,,,-0.1875,0.109375,-0.64453125,0.05674793965311624,0.40967157664552617,15.269593788659499,6.526147192506678,11192,0,99.65161663457759,66.50973154283392,66.7422504410792,0.006159573451017277,0.004111037938780176,0.3046875,,
3.918209999999963,1450,,,,0.03125,0.041015625,-0.853515625,0.05674793965311624,0.40967157664552617,15.269185088369866,6.50645699047623,11194,0,99.34829605709953,66.52317019504537,66.95954821088404,0.006158329127195421,0.004123589360909332,0.3046875,,
3.9301749999998137,1450,,,,0.1875,0.0859375,-1.01171875,0.05674793965311624,0.40967157664552617,15.268699904990363,6.520027693502396,11202,0,99.55234622431456,66.56849585627897,66.86783223198447,0.006154135997454485,0.004115137334106028,0.302734375,,
3.9411399999996646,1450,,,,0.103515625,0.03125,-1.06640625,0.05674793965311624,0.40967157664552617,15.268810366997307,6.527899875499907,11224,0,99.67326529375342,66.70037070579211,66.91901836386639,0.006141968512477116,0.004110145036767453,0.30078125,,
3.9510049999998884,1450,,,,0,0.0859375,-0.943359375,0.05674793965311624,0.40967157664552617,15.268353856868403,6.530069032978017,11221,0,99.70340470528683,66.68163459734875,66.87999752310657,0.006143694273832553,0.0041089025781664516,0.298828125,,
3.9598149999994785,1450,,,,0.21875,0.0234375,-1.05859375,0.05674793965311624,0.40967157664552617,15.268261308536449,6.53261320706326,11242,0,99.74164547303818,66.80969896880087,66.98275194072335,0.006131917715073625,0.004107327232297037,0.298828125,,
3.9683399999989195,1450,,,,0.125,0.0625,-0.998046875,0.05674793965311624,0.40967157664552617,15.268029788638152,6.538532247309149,11228,0,99.83050512588726,66.722221387686,66.83550414129292,0.006139957095630116,0.0041036712789234734,0.298828125,,
3.9753349999990313,1450,,,,0.4375,0.1171875,-1.1796875,0.05674793965311624,0.40967157664552617,15.268028368607373,6.555897535271908,11244,0,100.09562955021465,66.8181981456825,66.7543612502702,0.006131137744126633,0.00409280183846596,0.30078125,,
3.983144999999553,1450,,,,0.21875,-0.078125,-1.15234375,0.05674793965311624,0.40967157664552617,15.267438488308915,6.555095735732884,11231,0,100.07952093027788,66.74394135878521,66.69090812823087,0.006137959016284598,0.004093460608498825,0.30078125,,
3.9915299999993294,1450,,,,0.375,-0.21875,-1.19140625,0.05674793965311624,0.40967157664552617,15.267727645811146,6.554651805355654,11253,0,100.07463857729445,66.86972373207136,66.81985034642251,0.006126413476552823,0.004093660316635658,0.302734375,,
4.001069999999367,1450,,,,0.125,-0.033203125,-1.181640625,0.05674793965311624,0.40967157664552617,15.26833944023328,6.554547512598893,11254,0,100.07705629949662,66.87682242007244,66.8253292941919,0.006125763184026027,0.004093561419507768,0.3046875,,0.06470500000007451,119212,
4.021569999999366,1450,,,,0,0.109375,-1.056640625,0.057029839966968185,0.40967157664552617,15.2683223033741,6.553729627859917,11223,0,100.0644562473372,67.02726511943243,66.98408968890597,0.006112013908303636,0.004094076878136514,0.30078125,,
4.042259999998845,1540,,,,0.0625,-0.08203125,-1.162109375,0.057029839966968185,0.41127011939888647,15.26822643204415,6.557386126097018,11199,0,100.11965617559409,66.87935351221888,66.79942387628964,0.006149433237624632,0.0041077859743903185,0.30078125,,
4.051479999998584,1540,,,,-0.1875,0.078125,-1.185546875,0.057029839966968185,0.41127011939888647,15.267948008210698,6.5482312617575955,11223,0,99.9780544502549,67.02655019891117,67.04126277258267,0.006135928496668585,0.0041136039469893675,0.302734375,,
4.058364999999292,1540,,,,-0.25,-0.19140625,-1.07421875,0.057029839966968185,0.41127011939888647,15.268208638081244,6.556946009172899,11207,0,100.11281969668599,66.92831220109987,66.85288897453299,0.006144934869463626,0.004108066485839881,0.302734375,,
4.066294999999926,1540,,,,-0.4375,0.08203125,-1.009765625,0.057029839966968185,0.41127011939888647,15.268392780945955,6.567173144280101,11236,0,100.27017902734845,67.1001496739525,66.91934763141401,0.006129198241692399,0.0041016194783766525,0.302734375,,
4.084969999999739,1540,,,,-0.0625,0.087890625,-1.00390625,0.057029839966968185,0.41127011939888647,15.237777992458023,7.463325331133021,11767,0,113.72449448129323,70.27528806533145,61.794328817079226,0.005852272266981659,0.0036163723679293832,0.306640625,,
4.092194999999367,1540,,,,-0.125,-0.23828125,-0.9375,0.057029839966968185,0.41127011939888647,15.2289934155517,7.712379270193511,12157,0,117.45177312401441,72.60344928358262,61.815541266390625,0.005664608547625636,0.003501608434337016,0.30859375,,
4.099549999999814,1540,,,,-0.125,0.044921875,-1.001953125,0.057029839966968185,0.41127011939888647,15.22312797186186,7.910744958471881,12417,0,120.42628285557848,74.15754224666425,61.57920056006202,0.0055458973819670545,0.003415119271696721,0.306640625,,
4.106399999999441,1540,,,,0.0625,0.01953125,-0.85546875,0.057029839966968185,0.41127011939888647,15.218440593247253,8.075068611552874,12572,0,122.889951951313,75.07954604640449,61.094942958517706,0.005477791769607828,0.00334665375702828,0.3046875,,
4.121389999998733,1540,,,,-0.03125,0.240234375,-0.91796875,0.057029839966968185,0.41127011939888647,15.208236331148365,8.401992119492744,12771,0,127.77948180569182,76.2678285328711,59.687069829292284,0.005392445639403917,0.003218592794297643,0.3046875,,
4.129379999998957,1540,,,,0.03125,-0.109375,-0.755859375,0.057029839966968185,0.41127011939888647,15.20313137978562,8.54350132882365,12828,0,129.88797314547898,76.60900686081757,58.980831716430636,0.005368430374591301,0.0031663448850514425,0.3046875,,
4.1364249999998135,1540,,,,0.03125,0.0546875,-1.037109375,0.057029839966968185,0.41127011939888647,15.19997196020857,8.649452126682146,12874,0,131.471429796735,76.88273917814135,58.47866665556768,0.0053493166840212596,0.003128209071999459,0.3046875,,
4.145069999999366,1540,,,,-0.3125,0.13671875,-0.84765625,0.057029839966968185,0.41127011939888647,15.196422924812481,8.76460869341895,12914,0,133.1907004756825,77.12462441099896,57.90541241659744,0.005332539672507424,0.0030878290896440984,0.3046875,,
4.152499999999069,1540,,,,-0.0625,0.0390625,-1.06640625,0.057029839966968185,0.41127011939888647,15.193526792068257,8.870898896538119,12939,0,134.78024005428065,77.27546052013469,57.33441377535252,0.005322130940801408,0.0030514125752651414,0.302734375,,
4.1603749999990685,1540,,,,0,-0.08203125,-1.3046875,0.057029839966968185,0.41127011939888647,15.190879765531614,8.952881754034598,12940,0,136.00215028056135,77.27823946281364,56.82133650342656,0.005321939555789052,0.003023997183503862,0.302734375,,
4.168479999999516,1540,,,,-0.125,-0.10546875,-1.248046875,0.057363667323268294,0.41127011939888647,15.187419845694157,9.054965300040582,12935,0,137.52155969990827,77.70209815357661,56.50175748670515,0.005292908803904104,0.002990586496374363,0.3046875,,
4.177354999999515,1540,,,,-0.21875,0.248046875,-1.056640625,0.057363667323268294,0.412459038624474,15.184896564677118,9.132002586266562,12933,0,138.66851470082167,77.69247749252041,56.02748227320563,0.005308867112188334,0.0029744245801893625,0.3046875,,
4.184449999999255,1540,,,,0,0.09375,-1.1640625,0.057363667323268294,0.412459038624474,15.182510294636485,9.216403873923062,12950,0,139.92814669536446,77.79262268780754,55.594692365338574,0.005302032819740872,0.0029476488352442242,0.3046875,,
4.191514999999665,1540,,,,-0.0625,0.03125,-0.96484375,0.057363667323268294,0.412459038624474,15.179809723660293,9.288974381352919,12975,0,141.0048636368924,77.94455321173416,55.27791822305682,0.0052916980292906516,0.0029251405092423958,0.302734375,,
4.199394999999553,1540,,,,-0.125,0.283203125,-0.77734375,0.057363667323268294,0.412459038624474,15.177390239257305,9.355308637060386,12964,0,141.98916999335987,77.87796947605476,54.84782359083916,0.005296222300085691,0.002904862664129684,0.3046875,,
4.207450000000186,1540,,,,0.0625,0.171875,-0.875,0.057363667323268294,0.412459038624474,15.174840303098556,9.426093873235477,12943,0,143.03946920836407,77.75235187697606,54.357270973730365,0.005304778938096802,0.002883533061938655,0.302734375,,
4.220304999999702,1540,,,,-0.125,0.1640625,-1.052734375,0.057363667323268294,0.412459038624474,15.17033296903978,9.522367980517782,13011,0,144.45749291817765,78.1608007049158,54.10643582827992,0.005277057487955507,0.0028552277233420864,0.302734375,,
4.236054999999702,1540,,,,-0.25,0.2734375,-1.181640625,0.057363667323268294,0.412459038624474,15.167615749087199,9.598931314242531,12994,0,145.5929017763113,78.05611564152892,53.61258322981585,0.005284134820629347,0.0028329611786855886,0.3046875,,
4.247599999999627,1540,,,,-0.041015625,0.11328125,-1.18359375,0.057363667323268294,0.412459038624474,15.16360713603812,9.704122969980645,12966,0,147.14950831658996,77.88915428345221,52.931984057924865,0.005295461767673887,0.002802992978658648,0.3046875,,
4.256089999999851,1540,,,,0,-0.009765625,-0.916015625,0.057363667323268294,0.412459038624474,15.161568158884252,9.759760132345411,12963,0,147.97326846091613,77.8680567497786,52.62305655588444,0.0052968965175267035,0.00278738885012475,0.302734375,,
4.263825000000186,1540,,,,-0.03125,0.0078125,-0.74609375,0.057363667323268294,0.412459038624474,15.159946958113258,9.815217106082017,12980,0,148.79817071056928,77.97493354135716,52.4031533243967,0.005289636295819472,0.002771936218401216,0.30078125,,
4.272580000000074,1540,,,,-0.125,0.25390625,-0.703125,0.057363667323268294,0.412459038624474,15.1582318181261,9.846373354434107,12994,0,149.2536098743321,78.0566036610926,52.2979670152128,0.005284101783563313,0.0027634778078182124,0.30078125,,
4.28058999999892,1540,,,,-0.21875,0.068359375,-0.720703125,0.057363667323268294,0.412459038624474,15.15643815934744,9.886862483557659,12946,0,149.8496198220139,77.77016801848733,51.89880902658278,0.005303563681724659,0.0027524863867814833,0.302734375,,
4.288534999999218,1540,,,,0.125,0.04296875,-0.98046875,0.057363667323268294,0.412459038624474,15.155139240638551,9.928692722886,12955,0,150.47072069285204,77.82323278312796,51.71985116093411,0.005299947379131427,0.0027411248960946023,0.30078125,,
4.2955649999994785,1540,,,,0,0.08203125,-0.9453125,0.057363667323268294,0.412459038624474,15.154317578799295,9.964473839027812,12947,0,151.00480106226487,77.77234403553707,51.503226048732486,0.005303415291636396,0.002731429965954538,0.298828125,,
4.302434999999591,1540,,,,-0.125,-0.005859375,-0.99609375,0.057363667323268294,0.412459038624474,15.153021470283285,9.993957545154082,12943,0,151.43865325481943,77.75058804465839,51.34130974727486,0.00530489928111625,0.0027236047716988512,0.296875,,
4.31034499999974,1540,,,,0.0625,-0.0703125,-1.23046875,0.057363667323268294,0.412459038624474,15.151759845040186,10.035676089012238,12972,0,152.05815398332555,77.92681362649388,51.248033456357234,0.0052929026535257235,0.002712508522691283,0.296875,,
4.31855999999959,1540,,,,0.0625,-0.16015625,-1.037109375,0.07115334498262156,0.412459038624474,15.150238989179563,10.06706224804555,12952,0,152.51839897683735,96.50549130264433,63.274655353089834,0.004273943721305859,0.002704323159641305,0.294921875,,
4.327294999998994,1540,,,,-0.125,0.01171875,-1.1484375,0.07115334498262156,0.5022436267515507,15.149603003070872,10.097597734111261,12945,0,152.9745969564936,96.45297161328088,63.0516265656267,0.0052071348176316356,0.0032831831999818252,0.294921875,,
4.335499999999069,1540,,,,0,-0.07421875,-0.955078125,0.07115334498262156,0.5022436267515507,15.148715539887249,10.125470023697714,12955,0,153.38786509665206,96.53069864203786,62.93242205386481,0.005202942005154307,0.003274337421901525,0.29296875,,
4.3452199999988075,1540,,,,0.0625,-0.033203125,-0.958984375,0.07115334498262156,0.5022436267515507,15.147565913471029,10.167554047412045,12945,0,154.0136951119531,96.45872638452627,62.629966974307116,0.005206824157613174,0.0032610322503233754,0.291015625,,
4.352999999999069,1540,,,,-0.125,0.033203125,-0.8828125,0.07115334498262156,0.5022436267515507,15.146805815002864,10.192283917926732,12937,0,154.3805453162128,96.39932180331652,62.442661804222055,0.0052100327819346905,0.0032532831499125807,0.2890625,,
4.361580000000075,1540,,,,-0.125,0.08984375,-0.8515625,0.07115334498262156,0.5022436267515507,15.145414067298184,10.20791372778189,12952,0,154.60308017051406,96.51083336855129,62.424909815579376,0.005204012950894382,0.0032486003913868894,0.287109375,,
4.37033999999892,1540,,,,-0.125,0.35546875,-1.1015625,0.07115334498262156,0.5022436267515507,15.144344716273293,10.243092906866073,12974,0,155.12492994239366,96.66823849201971,62.316378500810856,0.005195539244185282,0.003237671900564668,0.287109375,,
4.3777699999986215,1540,,,,-0.03125,0.22265625,-1.279296875,0.07115334498262156,0.5022436267515507,15.143548994121081,10.2608849813885,12966,0,155.38621443869792,96.6114025525827,62.17501526861463,0.0051985957504156344,0.0032322277015744724,0.2890625,,
4.388279999999329,1540,,,,-0.125,-0.126953125,-1.15625,0.07115334498262156,0.5022436267515507,15.142588531395953,10.292981063456399,12955,0,155.86237700537058,96.53036563497362,61.93307678840767,0.005202959954080857,0.0032223531836309974,0.291015625,,
4.405519999999553,1540,,,,0.0625,0.234375,-0.90234375,0.07115334498262156,0.5022436267515507,15.140255148031496,10.3657714812774,12960,0,156.94042503272823,96.5695411074275,61.532610917352216,0.005200849263566826,0.003200218341748553,0.2890625,,
4.413829999999143,1540,,,,0,0.005859375,-0.875,0.07115334498262156,0.5022436267515507,15.139216830111419,10.37683150959347,12927,0,157.09710223326795,96.32326326241999,61.31447486497426,0.005214146715350106,0.003197026677206221,0.287109375,,
4.422674999999813,1540,,,,-0.03125,0.013671875,-0.74609375,0.07115334498262156,0.5022436267515507,15.138531122488533,10.390211006415292,12949,0,157.2925326898408,96.48371339575979,61.340301250036056,0.005205475712687722,0.00319305448366011,0.287109375,,
4.4296899999994785,1540,,,,-0.125,0.14453125,-0.75390625,0.07115334498262156,0.5022436267515507,15.138075212703923,10.419956935143048,12956,0,157.73809179733132,96.53472995951769,61.19937730928663,0.005202724728832504,0.0031840351371617633,0.287109375,,
4.437674999998882,1540,,,,0.0625,0.03515625,-0.9609375,0.07115334498262156,0.5022436267515507,15.137466304964557,10.443309260238513,12947,0,158.0852420391848,96.46898554316496,61.02339743975156,0.005206270429026355,0.0031770430956930113,0.28515625,,
4.445669999998994,1540,,,,-0.09375,0.1640625,-0.826171875,0.07115334498262156,0.5022436267515507,15.136585336525572,10.455769665454138,12953,0,158.264649800202,96.51148751583386,60.981076720337,0.005203977678503314,0.0031734416206373184,0.283203125,,
4.453764999998733,1540,,,,-0.375,0.0546875,-0.953125,0.07115334498262156,0.5022436267515507,15.135772975483764,10.458311899641178,12945,0,158.2946346197692,96.45510193874352,60.93390478485452,0.005207019811875937,0.0031728404942969945,0.283203125,,
4.46461999999918,1540,,,,0.21875,-0.30859375,-1.072265625,0.07702305780332731,0.5022436267515507,15.134955873928034,10.455366113044349,12952,0,158.24150476668868,104.47113634714582,66.0200599717363,0.0048074869702063126,0.0031739057808636163,0.28515625,,
4.471705000000075,1540,,,,0,-0.1484375,-1.072265625,0.07702305780332731,0.5408442632467632,15.134626019722441,10.461083963289424,12940,0,158.32459354530127,104.3755384853683,65.92503170109413,0.005181714711082238,0.0034160470659412236,0.287109375,,
4.481104999999515,1540,,,,-0.1875,0.15625,-0.98828125,0.07702305780332731,0.5408442632467632,15.134164099106703,10.47259715600484,12936,0,158.49400390281542,104.33867308096382,65.8313062397879,0.005183545537588766,0.0034123957369289215,0.28515625,,
4.48968499999959,1540,,,,-0.03125,0.142578125,-1.162109375,0.07702305780332731,0.5408442632467632,15.133221141084226,10.500017382960674,12925,0,158.89908504157233,104.24939510804228,65.60729728605284,0.005187984665870162,0.003403696522892272,0.28515625,,
4.500469999999739,1540,,,,0.03125,-0.099609375,-0.8984375,0.07702305780332731,0.5408442632467632,15.132342213017338,10.521976999810224,12945,0,159.2221567186258,104.41045157365747,65.57532803563862,0.005179982033362041,0.0033967902105643015,0.28515625,,
4.509379999998957,1540,,,,-0.125,0.224609375,-0.73828125,0.07702305780332731,0.5408442632467632,15.132240071721277,10.545139041000194,12960,0,159.57157555809562,104.53424546812958,65.50931461478962,0.005173847678573964,0.003389352153447007,0.28515625,,
4.517519999999553,1540,,,,-0.09375,0.189453125,-0.955078125,0.07702305780332731,0.5408442632467632,15.132154298319382,10.550492163501996,12934,0,159.6516753413217,104.3243316426146,65.34496516843814,0.005184258118226354,0.003387651661596937,0.28515625,,
4.525544999998994,1540,,,,-0.21875,0.345703125,-0.953125,0.07702305780332731,0.5408442632467632,15.131950944411278,10.561773104007044,12933,0,159.82023249583702,104.31593554691409,65.27079451572646,0.005184675384553579,0.0033840788165594177,0.28515625,,
4.533084999999032,1540,,,,-0.25,0.0546875,-1.14453125,0.07702305780332731,0.5408442632467632,15.13181524248275,10.58086081136482,12950,0,160.10763090399857,104.45616478539253,65.24121567199069,0.005177715114832519,0.003378004284949144,0.28515625,,
4.544454999999143,1540,,,,0.0625,-0.068359375,-1.064453125,0.07702305780332731,0.5408442632467632,15.130992533770506,10.602284367628801,12915,0,160.42308560750314,104.16811231819733,64.93336786518292,0.005192032870814363,0.0033713618036871084,0.28515625,,
4.5626399999987335,1540,,,,-0.03125,-0.013671875,-0.927734375,0.07702305780332731,0.5408442632467632,15.129410903027331,10.624775838456207,12953,0,160.7465994125607,104.47438706209518,64.99321755103429,0.005176812024992385,0.003364576701611404,0.28125,,
4.576114999999292,1540,,,,-0.03125,0.0859375,-0.99609375,0.07702305780332731,0.5408442632467632,15.1282068359121,10.655808937595863,12959,0,161.20328161191097,104.5239917814372,64.8398659979352,0.005174355227244715,0.0033550449956026287,0.28125,,
4.585099999999628,1540,,,,0.041015625,0.07421875,-0.77734375,0.07702305780332731,0.5408442632467632,15.127790549508209,10.667857414991092,12971,0,161.3811125860033,104.62241186807421,64.82940301475415,0.005169487623060649,0.003351347964951823,0.28125,,
4.592594999998808,1540,,,,-0.125,-0.00390625,-0.8671875,0.07702305780332731,0.5408442632467632,15.1275449999009,10.687068936405854,10391,0,161.6691162525226,83.81324931413627,51.84246147744281,0.006452968566099277,0.003345377743031512,0.279296875,,
4.600724999999628,1540,,,,0.03125,-0.291015625,-0.9609375,0.07702305780332731,0.5408442632467632,15.127172535384453,10.689461605902487,11979,0,161.70133002285468,96.61752635890628,59.75060708854434,0.005597786277798942,0.0033447112845040967,0.28125,,
4.608589999999851,1540,,,,-0.125,0.103515625,-1.232421875,0.07702305780332731,0.5408442632467632,15.127217368193383,10.697244811146046,12596,0,161.819547498985,101.59827521508461,62.78492109596455,0.00532336067813937,0.0033422678014234067,0.28125,,
4.615769999999553,1540,,,,0.125,-0.125,-1.29296875,0.07951082865985805,0.5408442632467632,15.126556301487751,10.718077886477106,12791,0,162.1276085935268,106.50137044873942,65.68984232398755,0.005078284541954124,0.003335917108373097,0.283203125,,
4.623709999999963,1540,,,,-0.21875,0.033203125,-1.248046875,0.07951082865985805,0.5587115712088871,15.126041166955032,10.731637664474446,12919,0,162.32719310168562,107.56692028142602,66.26549638793023,0.005194083550473853,0.0034418852475253292,0.283203125,,
4.630699999999255,1540,,,,-0.1875,0.01171875,-1.25390625,0.07951082865985805,0.5587115712088871,15.125351065025377,10.726902292997758,12935,0,162.2481630218168,107.70360343154383,66.38201716777613,0.005187491907492241,0.0034435617686084967,0.28515625,,
4.639639999999665,1540,,,,0.0625,0.119140625,-1.10546875,0.07951082865985805,0.5587115712088871,15.125086758100604,10.726362286899242,12951,0,162.23716018816944,107.83390022122906,66.46683170252659,0.005181223808678439,0.003443795309045536,0.28515625,,
4.647769999999553,1540,,,,-0.0625,0.05078125,-1.01171875,0.07951082865985805,0.5587115712088871,15.125027376617949,10.750411701052634,12961,0,162.60027128833502,107.91622256514981,66.36902983623236,0.005177271386344059,0.0034361047911054083,0.28125,,
4.655854999999516,1540,,,,0,0.23828125,-0.6171875,0.07951082865985805,0.5587115712088871,15.124648758240482,10.734125884465987,12948,0,162.34988372928552,107.81242933499728,66.40745706647493,0.005182255651366928,0.003441404196756464,0.28125,,
4.662824999999255,1540,,,,-0.28125,0.0546875,-0.810546875,0.07951082865985805,0.5587115712088871,15.124620773404969,10.743601191370358,12938,0,162.49289376017848,107.72515596222283,66.29530280949592,0.005186454047973871,0.003438375416179637,0.283203125,,
4.670749999999068,1540,,,,-0.125,0.18359375,-0.984375,0.07951082865985805,0.5587115712088871,15.124004098248411,10.760373852160287,12977,0,162.73993823875722,108.05171919554328,66.39533009839272,0.005170779098829293,0.0034331558513264054,0.283203125,,
4.67874499999918,1540,,,,-0.125,0.333984375,-1.1328125,0.07951082865985805,0.5587115712088871,15.123352409231732,10.789875431718208,12997,0,163.17908860558583,108.22103590492868,66.32040712428892,0.0051626891808697045,0.003423916483314405,0.283203125,,
4.687239999999292,1540,,,,-0.125,0.20703125,-1.140625,0.07951082865985805,0.5587115712088871,15.1232065052494,10.80238786489037,13003,0,163.36674243053722,108.27126591583527,66.27497390533554,0.005160294067709542,0.0034199835468130776,0.283203125,,
4.700714999999851,1540,,,,-0.34375,0.080078125,-1.13671875,0.07951082865985805,0.5587115712088871,15.123583663722936,10.792326001115061,12977,0,163.21864520403602,108.04837346586774,66.19854816880685,0.0051709392125683686,0.0034230866854117934,0.28515625,,
4.718294999999926,1540,,,,-0.0625,0.138671875,-0.943359375,0.07951082865985805,0.5587115712088871,15.12363500176553,10.773299229272137,12979,0,162.9314453083137,108.06763359457243,66.3270576100746,0.005170017632707262,0.0034291205736967614,0.28515625,,
4.726659999999217,1540,,,,-0.09375,0.1484375,-0.859375,0.07951082865985805,0.5587115712088871,15.123509008606689,10.770100711114763,12991,0,162.88171512814543,108.16653056234149,66.40802528217648,0.0051652906708223876,0.0034301675345776344,0.283203125,,
4.733724999998696,1540,,,,-0.3125,0.05859375,-0.875,0.07951082865985805,0.5587115712088871,15.123270704953166,10.774542502774409,12970,0,162.946322991481,107.98913353421436,66.2728262606209,0.005173775850621764,0.0034288074805965225,0.283203125,,
4.740844999998808,1540,,,,-0.09375,0.28125,-0.845703125,0.07951082865985805,0.5587115712088871,15.123130027749848,10.756057317642242,12949,0,162.66525340063387,107.81486497913951,66.28020595990378,0.005182138579100285,0.0034347321233553,0.28515625,,
4.748759999999776,1540,,,,0.0625,0.09375,-0.7890625,0.07951082865985805,0.5587115712088871,15.122996061100407,10.755316673415278,12940,0,162.65261168794677,107.7389194036241,66.23866551268416,0.005185791488364355,0.0034349990781629113,0.283203125,,
4.755664999999106,1540,,,,-0.3125,0.041015625,-0.90625,0.07951082865985805,0.5587115712088871,15.122850329602793,10.756253193402882,12940,0,162.66520715114387,107.7427025154227,66.2358622365453,0.005185609402445711,0.0034347330999292816,0.28515625,,
4.763864999999292,1540,,,,0.3125,-0.43359375,-1.16015625,0.08058566673346133,0.5587115712088871,15.12264532153769,10.749971021840306,12935,0,162.56799898009905,109.16045424578094,67.14756589895896,0.005118259859480947,0.0034367869120249337,0.287109375,,
4.783679999999702,1540,,,,-0.15625,0.1328125,-1.177734375,0.08058566673346133,0.5659784824432474,15.121820399862447,10.734301354327899,12948,0,162.3221771981467,109.26849163240114,67.31581199715987,0.005179704359306989,0.003486760048519787,0.2890625,,
4.790830000000074,1540,,,,0.03125,0.095703125,-1.07421875,0.08058566673346133,0.5659784824432474,15.12150261402984,10.738455493268033,12903,0,162.38158281209564,108.8883838952968,67.057102172295,0.005197785679209568,0.003485484453604478,0.287109375,,
4.799849999999627,1540,,,,0,-0.0390625,-0.9921875,0.08058566673346133,0.5659784824432474,15.121338734446116,10.755390986632907,12913,0,162.63591033028482,108.96955171969154,67.00214700332394,0.005193914020121378,0.0034800339069879773,0.28515625,,
4.808879999999888,1540,,,,0.09375,0.02734375,-0.755859375,0.08058566673346133,0.5659784824432474,15.120648306164725,10.753311038338582,12937,0,162.59703433751673,109.1781669917092,67.14646883723515,0.00518398960193412,0.003480865962588204,0.28515625,,
4.82480499999877,1540,,,,-0.03125,0.197265625,-0.919921875,0.08058566673346133,0.5659784824432474,15.12019366018962,10.765059626525135,12969,0,162.7697863165486,109.44326423851842,67.2380708454561,0.005171432763644234,0.003477171625344237,0.287109375,,
4.831884999999777,1540,,,,-0.375,0.34375,-0.9921875,0.08058566673346133,0.5659784824432474,15.120098996764199,10.7611133641523,12917,0,162.709099381385,109.00941557308555,66.99650848510379,0.005192014648163912,0.0034784685343049668,0.287109375,,
4.838854999999516,1540,,,,-0.0625,-0.13671875,-1.12109375,0.08058566673346133,0.5659784824432474,15.12009478264895,10.739749642088531,12939,0,162.38603253029873,109.19106363129454,67.24165984591141,0.00518337731697886,0.0034853889440130546,0.2890625,,
4.845879999999888,1540,,,,0.4375,-0.1171875,-0.98828125,0.08058566673346133,0.5659784824432474,15.120090715582272,10.750268893070594,12966,0,162.5450408801296,109.41999655129615,67.31672400389563,0.005172532446369768,0.003481979390934687,0.291015625,,
4.857669999998994,1540,,,,0.125,-0.328125,-0.890625,0.08058566673346133,0.5659784824432474,15.11949706730836,10.750183113068537,12922,0,162.53736205106762,109.04742529900787,67.09068236553898,0.005190204912141074,0.0034821438917251694,0.291015625,,
4.867444999999367,1540,,,,-0.08203125,0.07421875,-1.02734375,0.08058566673346133,0.5659784824432474,15.119617079692858,10.782796110715768,12933,0,163.03174824242384,109.13690912058672,66.94212035210654,0.005185949345678196,0.0034715844523831797,0.2890625,,
4.875679999998771,1540,,,,0,-0.0078125,-1.021484375,0.08058566673346133,0.5659784824432474,15.119508721083536,10.79007844606803,12928,0,163.14068516650107,109.09632399936389,66.87254248565917,0.005187878580093565,0.0034692663075774808,0.287109375,,
4.883374999999068,1540,,,,0.3125,-0.0625,-1,0.08058566673346133,0.5659784824432474,15.119402427404852,10.794678257218438,12945,0,163.20908464524283,109.2395337261436,66.93226297028173,0.005181077428086782,0.0034678123688609537,0.287109375,,
4.890859999999404,1540,,,,-0.0625,0.0703125,-0.794921875,0.08058566673346133,0.5659784824432474,15.119627246039029,10.789079273677313,12937,0,163.12685694596647,109.17646199486644,66.92733743471172,0.00518407055973164,0.0034695603963651434,0.287109375,,
4.898879999999888,1540,,,,-0.03125,-0.015625,-0.984375,0.08058566673346133,0.5659784824432474,15.119841855960418,10.773360812088523,12952,0,162.89151173597978,109.29822440058818,67.09878448285417,0.0051782953066912005,0.003474573207722481,0.28515625,,
