Time (s),ESC signal (µs),Servo 1 (µs),Servo 2 (µs),Servo 3 (µs),AccX (g),AccY (g),AccZ (g),Torque (N·m),Thrust (kgf),Voltage (V),Current (A),Motor Electrical Speed (RPM),Motor Optical Speed (RPM),Electrical Power (W),Mechanical Power (W),Motor Efficiency (%),Propeller Mech. Efficiency (kgf/W),Overall Efficiency (kgf/W),Vibration (g),App message,90% settling time (s),Max acceleration (RPM/s),
0,1000,,,,-0.0625,0.048828125,-0.955078125,-0.0006868896914494979,0.005585715028956466,15.554222412945016,-0.024773355502823863,0,0,0.38533028140587766,0,0,0,0,0.05859375,,
0,1000,,,,-0.0625,0.048828125,-0.955078125,-0.0006978465432057622,0.005585715028956466,15.554526400954847,-0.0257687561556122,0,0,0.4008207979422377,0,0,0,0,0.05859375,,
0.007979999999515713,1000,,,,-0.0625,0.046875,-0.95703125,-0.0006978465432057622,0.005585715028956466,15.55466467773286,-0.026164919752804924,0,0,0.4069865530746696,0,0,0,0,0.05859375,,
0.015819999999366702,1000,,,,-0.0625,0.04296875,-0.953125,-0.0006978465432057622,0.005585715028956466,15.554729641997799,-0.02695935410638628,0,0,0.41934546444772175,0,0,0,0,0.05859375,,
0.023169999998994172,1000,,,,-0.0625,0.04296875,-0.95703125,-0.0006978465432057622,0.005585715028956466,15.55461003655906,-0.02725974519321791,0,0,0.42401470617646986,0,0,0,0,0.05859375,,
0.030799999999813737,1000,,,,-0.0625,0.05078125,-0.953125,-0.0006978465432057622,0.005585715028956466,15.554499279808844,-0.02762977532691739,0,0,0.42976732042381677,0,0,0,0,0.05859375,,
0.038804999998770656,1000,,,,-0.0625,0.052734375,-0.955078125,-0.0006978465432057622,0.005585715028956466,15.554472179540328,-0.028084177040918798,0,0,0.43683455046825664,0,0,0,0,0.05859375,,
0.05363499999884516,1000,,,,-0.0625,0.052734375,-0.95703125,-0.0006978465432057622,0.005585715028956466,15.554440618560175,-0.027794685106127717,0,0,0.4323307789948425,0,0,0,0,0.05859375,,
0.06066999999992549,1000,,,,-0.0625,0.05078125,-0.95703125,-0.0006978465432057622,0.005585715028956466,15.554421579974274,-0.027303257145995297,0,0,0.42468637215525606,0,0,0,0,0.05859375,,
0.06776999999955297,1000,,,,-0.0625,0.05078125,-0.953125,-0.0006978465432057622,0.005585715028956466,15.55440351731871,-0.027955383197055234,0,0,0.43482931072826825,0,0,0,0,0.05859375,,
0.07472499999962746,1000,,,,-0.0625,0.05078125,-0.9609375,-0.0006978465432057622,0.005585715028956466,15.554414857432963,-0.02764760921640009,0,0,0.43004238356807406,0,0,0,0,0.05859375,,
0.08278999999910593,1000,,,,-0.0625,0.052734375,-0.958984375,-0.0006978465432057622,0.005585715028956466,15.554394590623335,-0.02646209881745485,0,0,0.41160192670275986,0,0,0,0,0.05859375,,
0.0906949999993667,1000,,,,-0.0625,0.046875,-0.95703125,-0.0006978465432057622,0.005585715028956466,15.554604130820517,-0.02597113940885514,0,0,0.4039707923310937,0,0,0,0,0.05859375,,
0.09772999999951572,1000,,,,-0.0625,0.048828125,-0.955078125,-0.0006978465432057622,0.005585715028956466,15.554491236422374,-0.024430515519822255,0,0,0.380004239554356,0,0,0,0,0.05859375,,
0.10584499999973923,1000,,,,-0.0625,0.046875,-0.953125,-0.0006978465432057622,0.005501899010023448,15.554564859654445,-0.024041096699478105,0,0,0.37394879790925656,0,0,0,0,0.05859375,,
0.11277499999944121,1000,,,,-0.0625,0.048828125,-0.955078125,-0.0006978465432057622,0.005501899010023448,15.554626719536039,-0.02315313974601483,0,0,0.3601384461345141,0,0,0,0,0.05859375,,
0.1225249999994412,1000,,,,-0.0625,0.046875,-0.95703125,-0.0006978465432057622,0.005501899010023448,15.554628477735822,-0.022864004285251704,0,0,0.35564109217045003,0,0,0,0,0.05859375,,
0.13770999999996275,1000,,,,-0.0625,0.0546875,-0.958984375,-0.0008135566129683327,0.005501899010023448,15.554672205245152,-0.022718009910287336,0,0,0.35337119731003036,0,0,0,0,0.05859375,,
0.14511999999918043,1000,,,,-0.0625,0.05078125,-0.9609375,-0.0008135566129683327,0.005501899010023448,15.554378795561448,-0.021869097926661918,0,0,0.34016023306852694,0,0,0,0,0.05859375,,
0.15273499999940396,1000,,,,-0.0625,0.05078125,-0.955078125,-0.0008135566129683327,0.005501899010023448,15.554447891572277,-0.022470351427033033,0,0,0.34951391037710206,0,0,0,0,0.05859375,,
0.16065499999932945,1000,,,,-0.0625,0.05078125,-0.95703125,-0.0008135566129683327,0.005501899010023448,15.554197117442154,-0.022813737776125588,0,0,0.3548493743554938,0,0,0,0,0.05859375,,
0.167875,1000,,,,-0.0625,0.046875,-0.955078125,-0.0008135566129683327,0.005501899010023448,15.55428470897853,-0.0231371019420748,0,0,0.3598810709476915,0,0,0,0,0.05859375,,
0.17568999999947846,1000,,,,-0.0625,0.05078125,-0.95703125,-0.0008135566129683327,0.005501899010023448,15.554272386036596,-0.023412122912859885,0,0,0.3641585369219912,0,0,0,0,0.05859375,,
0.18365499999932944,1000,,,,-0.0625,0.048828125,-0.953125,-0.0008135566129683327,0.005501899010023448,15.554226376471558,-0.02285788311046867,0,0,0.3555366883871555,0,0,0,0,0.05859375,,
0.19078999999910592,1000,,,,-0.0625,0.048828125,-0.95703125,-0.0008135566129683327,0.005501899010023448,15.554118234455165,-0.02317930093110574,0,0,0.3605335872744354,0,0,0,0,0.05859375,,
0.1988649999992922,1000,,,,-0.0625,0.05078125,-0.953125,-0.0008135566129683327,0.005501899010023448,15.554145137885406,-0.023062412843565624,0,0,0.3587161165986522,0,0,0,0,0.05859375,,
0.20576499999966472,1000,,,,-0.0625,0.0546875,-0.95703125,-0.0008135566129683327,0.005501899010023448,15.554311470668653,-0.02446342111046649,0,0,0.38051167159032656,0,0,0,0,0.05859375,,
0.21283499999903144,1000,,,,-0.0625,0.05078125,-0.95703125,-0.0008135566129683327,0.005501899010023448,15.554469629713163,-0.023840808881747916,0,0,0.37083113769894377,0,0,0,0,0.05859375,,
0.21993999999947847,1000,,,,-0.0625,0.0546875,-0.95703125,-0.0008135566129683327,0.005501899010023448,15.55453651214943,-0.024086632759710666,0,0,0.37465640871565414,0,0,0,0,0.05859375,,
0.22785999999940396,1000,,,,-0.0625,0.05078125,-0.95703125,-0.0008135566129683327,0.005501899010023448,15.55473724176167,-0.023715364875545424,0,0,0.368886269231613,0,0,0,0,0.05859375,,
0.23492499999981373,1000,,,,-0.0625,0.048828125,-0.953125,-0.0008135566129683327,0.005501899010023448,15.55461915225739,-0.0228402222371172,0,0,0.35527095825127836,0,0,0,0,0.05859375,,
0.2419449999993667,1000,,,,-0.0625,0.05078125,-0.95703125,-0.0008135566129683327,0.005501899010023448,15.554765542818965,-0.023127135513122274,0,0,0.35973717058361915,0,0,0,0,0.05859375,,
0.2494349999995902,1000,,,,-0.0625,0.046875,-0.95703125,-0.0008135566129683327,0.005501899010023448,15.55470413887157,-0.02339934815419554,0,0,0.3639699375809622,0,0,0,0,0.05859375,,
0.25604999999981376,1000,,,,-0.0625,0.046875,-0.955078125,-0.0008135566129683327,0.005748768900181029,15.55458703138953,-0.022534239707732225,0,0,0.35051079272011465,0,0,0,0,0.05859375,,
0.26407500000018624,1000,,,,-0.125,0.12109375,-0.9921875,-0.0008135566129683327,0.005748768900181029,15.55426360761946,-0.017440375933194863,0,0,0.27127220468089513,0,0,0,0,0.05859375,,
0.27392999999970197,1000,,,,-0.15625,0.279296875,-0.90234375,-0.0008135566129683327,0.005748768900181029,15.554081507638578,-0.013504208148861684,0,0,0.2100455542435117,0,0,0,0,0.060546875,,
0.2835449999989942,1000,,,,-0.25,0.20703125,-0.9140625,-0.000826554449094278,0.005748768900181029,15.55394122251458,-0.008435087587047654,0,0,0.13119885653570154,0,0,0,0,0.064453125,,
0.292964999999851,1000,,,,-0.3125,0.1484375,-0.9296875,-0.000826554449094278,0.005748768900181029,15.553601478118093,-0.003122640164958515,0,0,0.048568300685329684,0,0,0,0,0.068359375,,
0.3000349999992177,1000,,,,-0.25,0.1484375,-1.046875,-0.000826554449094278,0.005748768900181029,15.553308252672549,0.002311385826334361,0,0,0.03594969624783658,0,0,0,0,0.072265625,,
0.30800999999977646,1000,,,,0,0.021484375,-1.03125,-0.000826554449094278,0.005748768900181029,15.553048095657,0.00777367442762196,0,0,0.12090433225278324,0,0,0,0,0.072265625,,
0.31594999999925494,1000,,,,0.125,-0.015625,-1.04296875,-0.000826554449094278,0.005748768900181029,15.55280219708742,0.011879421336367421,0,0,0.1847582902603824,0,0,0,0,0.07421875,,
0.3229549999991432,1000,,,,0.15625,-0.0078125,-1.0234375,-0.000826554449094278,0.005748768900181029,15.552595609878766,0.015144339327991335,0,0,0.2355337853470324,0,0,0,0,0.07421875,,
0.3309249999988824,1000,,,,0.125,0.05078125,-1.015625,-0.000826554449094278,0.005748768900181029,15.552566430723072,0.01902508289405337,0,0,0.2958888655597782,0,0,0,0,0.076171875,,
0.33966499999910593,1000,,,,0.125,0.0703125,-0.9921875,-0.000826554449094278,0.005748768900181029,15.552427289575913,0.022727214743543722,0,0,0.3534633547935414,0,0,0,0,0.076171875,,
0.34697999999951573,1000,,,,0.03125,0.13671875,-0.966796875,-0.000826554449094278,0.005748768900181029,15.552182779068746,0.025599028033149215,0,0,0.3981207629380413,0,0,0,0,0.076171875,,
0.35397999999951574,1000,,,,-0.0625,0.11328125,-0.974609375,-0.000826554449094278,0.005748768900181029,15.552174991265991,0.02937589468146455,0,0,0.45685905461113663,0,0,0,0,0.078125,,
0.361894999999553,1000,,,,-0.1875,0.12109375,-0.99609375,-0.000826554449094278,0.005748768900181029,15.551993381259507,0.03361317286995058,0,0,0.5227518419966031,0,0,0,0,0.078125,,
0.37000999999977646,1000,,,,-0.15625,-0.0703125,-0.94921875,-0.000826554449094278,0.005748768900181029,15.551921056299497,0.03774374995399045,0,0,0.5869878196531673,0,0,0,0,0.080078125,,
0.3768899999996647,1000,,,,-0.15625,-0.162109375,-0.9609375,-0.000826554449094278,0.005748768900181029,15.55175108205303,0.03991166193935128,0,0,0.620696231751841,0,0,0,0,0.08203125,,
0.384035000000149,1000,,,,-0.125,-0.24609375,-0.94140625,-0.000826554449094278,0.005748768900181029,15.551590392570125,0.0408439926421366,0,0,0.6351890435676565,0,0,0,0,0.083984375,,
0.39196999999973925,1000,,,,-0.125,-0.22265625,-0.9453125,-0.000826554449094278,0.005748768900181029,15.551610493131404,0.04356178579124423,0,0,0.6774559250106562,0,0,0,0,0.0859375,,
0.39999999999906866,1000,,,,-0.09375,-0.228515625,-0.955078125,-0.000826554449094278,0.005748768900181029,15.551531614098046,0.045087697006553046,0,0,0.7011827454042835,0,0,0,0,0.087890625,,
0.40801499999966473,1000,,,,-0.0625,-0.1640625,-0.96484375,-0.000826554449094278,0.005851841591203979,15.551423272303683,0.04847388912050289,0,0,0.753837967367657,0,0,0,0,0.08984375,,
0.41505499999970197,1000,,,,-0.0625,-0.072265625,-0.98046875,-0.000826554449094278,0.005851841591203979,15.551362131800294,0.050162149456849534,0,0,0.7800897515129566,0,0,0,0,0.08984375,,
0.4249699999997392,1000,,,,-0.0625,0.056640625,-0.95703125,-0.000826554449094278,0.005851841591203979,15.551389790123306,0.05263177783279405,0,0,0.8184972924249515,0,0,0,0,0.08984375,,
0.4434199999999255,1000,,,,-0.0625,0.21875,-0.916015625,-0.0007006846160720522,0.005851841591203979,15.550905800320473,0.060129242968462795,0,0,0.9350641932471471,0,0,0,0,0.091796875,,
0.45181999999936673,1000,,,,-0.0625,0.15234375,-0.9140625,-0.0007006846160720522,0.005851841591203979,15.550747566325374,0.06376096217041184,0,0,0.9915306272980962,0,0,0,0,0.09375,,
0.4591499999994412,1000,,,,-0.0625,0.046875,-0.923828125,-0.0007006846160720522,0.005851841591203979,15.550809113129061,0.06461698787009022,0,0,1.004846443833149,0,0,0,0,0.09375,,
0.4660349999992177,1000,,,,-0.0625,-0.017578125,-0.9765625,-0.0007006846160720522,0.005851841591203979,15.550604258045862,0.0656017094606149,0,0,1.0201462224733255,0,0,0,0,0.09375,,
0.47307000000029803,1000,,,,-0.0625,-0.046875,-0.97265625,-0.0007006846160720522,0.005851841591203979,15.550491840064526,0.06767925220791772,0,0,1.0524456592008935,0,0,0,0,0.09375,,
0.48001999999955297,1000,,,,-0.0625,-0.046875,-0.9765625,-0.0007006846160720522,0.005851841591203979,15.550556586188359,0.0696574722973999,0,0,1.083212464611565,0,0,0,0,0.09375,,
0.4879899999992922,1000,,,,-0.0625,-0.03515625,-0.96484375,-0.0007006846160720522,0.005851841591203979,15.55044538164444,0.07214238199977792,0,0,1.1218461709892755,0,0,0,0,0.09375,,
0.49593499999959023,1000,,,,-0.03125,0.01953125,-0.978515625,-0.0007006846160720522,0.005851841591203979,15.550586840145263,0.07354214461312762,0,0,1.1436235062169622,0,0,0,0,0.09375,,
0.5041249999990687,1000,,,,0,0.078125,-0.9765625,-0.0007006846160720522,0.005851841591203979,15.550524376632112,0.07489854346416334,0,0,1.1647116259137118,0,0,0,0,0.091796875,,
0.5111399999996648,1000,,,,0,0.16015625,-0.96875,-0.0007006846160720522,0.005851841591203979,15.550595824209196,0.07646469847289776,0,0,1.1890716207720593,0,0,0,0,0.091796875,,
0.519054999999702,1000,,,,0,0.22265625,-0.9765625,-0.0007006846160720522,0.005851841591203979,15.550534606881937,0.07701075276384543,0,0,1.1975583759562072,0,0,0,0,0.09375,,
0.5376399999996647,1000,,,,0,0.212890625,-0.974609375,-0.0007006846160720522,0.005851841591203979,15.55047391805892,0.08104987088876191,0,0,1.260363903317735,0,0,0,0,0.095703125,,
0.5450649999994784,1000,,,,0,0.107421875,-0.97265625,-0.0007006846160720522,0.005851841591203979,15.55055717481831,0.08330633827731575,0,0,1.2954599764061536,0,0,0,0,0.095703125,,
0.5521099999994039,1000,,,,0,0.0078125,-0.94140625,-0.0007006846160720522,0.005851841591203979,15.550187772984074,0.08462097381061688,0,0,1.31587203228786,0,0,0,0,0.095703125,,
0.559089999999851,1000,,,,0,0.00390625,-0.98046875,-0.0007006846160720522,0.005608182377886191,15.550265891160738,0.08531477388316537,0,0,1.3266674183274774,0,0,0,0,0.09375,,
0.566129999998957,1000,,,,0,-0.05859375,-0.919921875,-0.0007006846160720522,0.005608182377886191,15.55016848979322,0.08625833360518258,0,0,1.3413316212093818,0,0,0,0,0.095703125,,
0.5785349999992176,1000,,,,0,-0.0546875,-0.921875,-0.0007006846160720522,0.005608182377886191,15.54999588833269,0.08761351744389291,0,0,1.3623898360148992,0,0,0,0,0.095703125,,
0.6016499999994412,1000,,,,-0.0625,-0.091796875,-0.87890625,-0.000564949992754429,0.005608182377886191,15.549766681818083,0.08974427495484781,0,0,1.3955025365768134,0,0,0,0,0.09765625,,
0.6184949999991805,1000,,,,-0.0625,-0.109375,-0.830078125,-0.000564949992754429,0.005608182377886191,15.549789014265283,0.09105939167480377,0,0,1.4159543283105434,0,0,0,0,0.099609375,,
0.6272849999992177,1000,,,,-0.0625,-0.07421875,-0.841796875,-0.000564949992754429,0.005608182377886191,15.549606155829938,0.09121222299672628,0,0,1.418314144196828,0,0,0,0,0.1015625,,
0.645964999999851,1000,,,,-0.0625,0,-0.908203125,-0.000564949992754429,0.005608182377886191,15.549940407687117,0.09328140640098632,0,0,1.450520310680581,0,0,0,0,0.1015625,,
0.654375,1000,,,,-0.0625,0.072265625,-0.91796875,-0.000564949992754429,0.005608182377886191,15.549905615415211,0.09445720466746892,0,0,1.4688006172750987,0,0,0,0,0.1015625,,
0.6638499999996275,1000,,,,-0.0625,0.10546875,-0.91796875,-0.000564949992754429,0.005608182377886191,15.549949629115714,0.09532111440721987,0,0,1.482238527623445,0,0,0,0,0.1015625,,
0.6714649999989196,1000,,,,-0.0625,0.103515625,-0.923828125,-0.000564949992754429,0.005608182377886191,15.549858342004049,0.0969975222688969,0,0,1.5082977308067298,0,0,0,0,0.1015625,,
0.6867349999994039,1000,,,,-0.0625,0.15625,-0.96875,-0.000564949992754429,0.005608182377886191,15.549978207325893,0.09740650919732076,0,0,1.514669095270027,0,0,0,0,0.1015625,,
0.6945899999998509,1000,,,,-0.0625,0.146484375,-0.94921875,-0.000564949992754429,0.005608182377886191,15.550011299522637,0.09756652533163009,0,0,1.5171605713620095,0,0,0,0,0.1015625,,
0.7044550000000745,1000,,,,-0.0625,0.19921875,-1.05859375,-0.000564949992754429,0.005510077383830624,15.550341219750726,0.09559047402299496,0,0,1.4864644884152896,0,0,0,0,0.1015625,,
0.7312099999999627,1000,,,,-0.0625,0.044921875,-0.9609375,-0.0007645010774017779,0.005510077383830624,15.550467932270472,0.07847908232901486,0,0,1.22038645311136,0,0,0,0,0.1015625,,
0.7580599999995902,1000,,,,-0.0625,0.05078125,-0.955078125,-0.0007645010774017779,0.005510077383830624,15.551003066481615,0.061412960194767816,0,0,0.9550331323105476,0,0,0,0,0.099609375,,
0.777089999999851,1000,,,,-0.0625,0.048828125,-0.955078125,-0.0007645010774017779,0.005510077383830624,15.551455140373973,0.050433276592599885,0,0,0.7843108385118899,0,0,0,0,0.09765625,,
0.785324999999255,1000,,,,-0.0625,0.046875,-0.953125,-0.0007645010774017779,0.005510077383830624,15.551703235458053,0.04631121030311974,0,0,0.7202181991090056,0,0,0,0,0.09765625,,
0.7933649999992922,1000,,,,-0.0625,0.048828125,-0.95703125,-0.0007645010774017779,0.005510077383830624,15.551889026621334,0.04359593665996364,0,0,0.6779991689473672,0,0,0,0,0.09765625,,
0.8025799999991432,1000,,,,-0.0625,0.046875,-0.95703125,-0.0007645010774017779,0.005510077383830624,15.551821774586925,0.039100177378627796,0,0,0.6080789899471548,0,0,0,0,0.095703125,,
0.811949999999255,1000,,,,-0.0625,0.05078125,-0.95703125,-0.0007645010774017779,0.005510077383830624,15.551904817711867,0.03509684447503801,0,0,0.5458227846778277,0,0,0,0,0.095703125,,
0.8202199999997393,1000,,,,-0.0625,0.05078125,-0.95703125,-0.0007645010774017779,0.005510077383830624,15.552206129437584,0.03127040145752742,0,0,0.4863237292177319,0,0,0,0,0.095703125,,
0.8292849999992177,1000,,,,-0.0625,0.052734375,-0.95703125,-0.0007645010774017779,0.005510077383830624,15.552414924699436,0.02936100153634845,0,0,0.4566344784980287,0,0,0,0,0.095703125,,
0.8372599999988452,1000,,,,-0.0625,0.052734375,-0.95703125,-0.0007645010774017779,0.005510077383830624,15.55249251383897,0.02711970745822076,0,0,0.42177904722148124,0,0,0,0,0.09375,,
0.8444049999993295,1000,,,,-0.0625,0.05078125,-0.955078125,-0.0007645010774017779,0.005510077383830624,15.55286027476963,0.024135061126261292,0,0,0.375369233419766,0,0,0,0,0.09375,,
0.8514299999997019,1000,,,,-0.0625,0.05078125,-0.95703125,-0.0007645010774017779,0.005510077383830624,15.552995761006825,0.022384064762691377,0,0,0.3481392643682412,0,0,0,0,0.09375,,
0.858375,1000,,,,-0.0625,0.046875,-0.95703125,-0.0007645010774017779,0.0057666872006316705,15.553123505371536,0.0207331227725292,0,0,0.32246481913317776,0,0,0,0,0.09375,,
0.8653299999991432,1000,,,,-0.0625,0.05078125,-0.953125,-0.0007645010774017779,0.0057666872006316705,15.55333391394539,0.018567143032365396,0,0,0.28878097541036357,0,0,0,0,0.09375,,
0.8723449999997392,1000,,,,-0.0625,0.05078125,-0.95703125,-0.0007645010774017779,0.0057666872006316705,15.553506966085056,0.01742848767511314,0,0,0.27107410446319974,0,0,0,0,0.091796875,,
0.882109999999404,1000,,,,-0.0625,0.046875,-0.953125,-0.0004634234663082249,0.0057666872006316705,15.553613952943829,0.01541494350569983,0,0,0.23975808039409374,0,0,0,0,0.091796875,,
0.8994749999986962,1000,,,,-0.0625,0.05078125,-0.95703125,-0.0004634234663082249,0.0057666872006316705,15.553497603924182,0.0099015245383281,0,0,0.1540033381820826,0,0,0,0,0.091796875,,
0.9076150000002235,1000,,,,-0.0625,0.10546875,-0.99609375,-0.0004634234663082249,0.0057666872006316705,15.553358858133588,0.014353606766809607,0,0,0.22324679695272442,0,0,0,0,0.091796875,,
0.914359999999404,1000,,,,-0.03125,0.009765625,-0.966796875,-0.0004634234663082249,0.0057666872006316705,15.553044274024236,0.02082539119759333,0,0,0.32389823132004364,0,0,0,0,0.091796875,,
0.9223349999990315,1000,,,,-0.0625,0.03125,-0.95703125,-0.0004634234663082249,0.0057666872006316705,15.552928077884253,0.027707683875213135,0,0,0.43093561451594314,0,0,0,0,0.08984375,,
0.9313249999992549,1000,,,,-0.0625,0.083984375,-1.005859375,-0.0004634234663082249,0.0057666872006316705,15.552882279209706,0.03485321113213492,0,0,0.5420678897905357,0,0,0,0,0.08984375,,
0.9393149999994784,1000,,,,0,0.0078125,-0.9609375,-0.0004634234663082249,0.0057666872006316705,15.55276121475848,0.04177305809228275,0,0,0.6496863977195081,0,0,0,0,0.08984375,,
0.9463749999990687,1000,,,,-0.0625,0.076171875,-0.990234375,-0.0004634234663082249,0.0057666872006316705,15.552211086826956,0.0471256348019846,0,0,0.7329078200411832,0,0,0,0,0.08984375,,
0.9533099999995902,1000,,,,-0.0625,0.03125,-0.9765625,-0.0004634234663082249,0.0057666872006316705,15.552030563264058,0.05221518056187091,0,0,0.8120520839645677,0,0,0,0,0.08984375,,
0.9603650000002235,1000,,,,-0.0625,0.109375,-1.03125,-0.0004634234663082249,0.0057666872006316705,15.551943009041475,0.05655550604593111,0,0,0.8795480068738212,0,0,0,0,0.08984375,,
0.9674399999994785,1000,,,,0,0.015625,-0.95703125,-0.0004634234663082249,0.0057666872006316705,15.551715034810934,0.06071436349997526,0,0,0.9442124796715415,0,0,0,0,0.08984375,,
0.9743899999996647,1000,,,,-0.0625,0.052734375,-0.962890625,-0.0004634234663082249,0.0057666872006316705,15.551641505294299,0.06634173531324218,0,0,1.0317228844306656,0,0,0,0,0.08984375,,
0.9814199999999255,1000,,,,-0.0625,0,-0.96875,-0.0004634234663082249,0.0057666872006316705,15.551570538876804,0.07092797331391305,0,0,1.1030413801708905,0,0,0,0,0.08984375,,
0.988339999999851,1000,,,,-0.0625,0.083984375,-1.005859375,-0.0004634234663082249,0.0057666872006316705,15.551503067049456,0.07500847399724518,0,0,1.1664945134228577,0,0,0,0,0.087890625,,
0.9962749999994412,1000,,,,0,0.01953125,-0.953125,-0.0004634234663082249,0.0057666872006316705,15.551351213810566,0.07838180311637223,0,0,1.218942949034456,0,0,0,0,0.087890625,,
1.003449999999255,1000,,,,-0.0625,0.0546875,-0.966796875,-0.0004634234663082249,0.0058848181659922685,15.551187177273134,0.08266057868945377,0,0,1.2854701313814103,0,0,0,0,0.087890625,,
1.0104499999992549,1000,,,,-0.125,0.0546875,-0.9609375,-0.0004634234663082249,0.0058848181659922685,15.551050455041256,0.08720994042490919,0,0,1.356206183728905,0,0,0,0,0.087890625,,
1.0183749999990688,1000,,,,-0.0625,0.078125,-0.978515625,-0.0004634234663082249,0.0058848181659922685,15.551005090569104,0.08976495503315719,0,0,1.3959352726753342,0,0,0,0,0.087890625,,
1.0255549999987708,1000,,,,0,0.01953125,-0.94921875,-0.0004634234663082249,0.0058848181659922685,15.550727465237822,0.09285168602541562,0,0,1.4439112640690694,0,0,0,0,0.087890625,,
1.0350400000000373,1000,,,,-0.03125,0.025390625,-0.96875,-0.0003286619710936837,0.0058848181659922685,15.550523957360337,0.09655460066062195,0,0,1.5014746307663618,0,0,0,0,0.087890625,,
1.0522649999996647,1000,,,,-0.03125,0.05859375,-0.998046875,-0.0003286619710936837,0.0058848181659922685,15.550023165329117,0.10542014522929326,0,0,1.63928570040787,0,0,0,0,0.0859375,,
1.0610549999997019,1000,,,,-0.0625,0.046875,-0.96875,-0.0003286619710936837,0.0058848181659922685,15.5499103604319,0.10878953402071563,0,0,1.6916675021752847,0,0,0,0,0.0859375,,
1.0725499999998138,1000,,,,-0.0625,0.029296875,-0.953125,-0.0003286619710936837,0.0058848181659922685,15.54978571162119,0.11222789677105595,0,0,1.7451197456558638,0,0,0,0,0.0859375,,
1.081804999999702,1000,,,,-0.03125,0.05078125,-0.9921875,-0.0003286619710936837,0.0058848181659922685,15.54946378705885,0.1155753592131135,0,0,1.7971348627606267,0,0,0,0,0.0859375,,
1.0894749999996274,1000,,,,-0.03125,0.033203125,-0.982421875,-0.0003286619710936837,0.0058848181659922685,15.549529268920136,0.1190182022084824,0,0,1.8506770187750523,0,0,0,0,0.0859375,,
1.096539999999106,1000,,,,-0.0625,0.02734375,-0.95703125,-0.0003286619710936837,0.0058848181659922685,15.549463260966093,0.12047850880762274,0,0,1.8733761464401097,0,0,0,0,0.0859375,,
1.103554999999702,1000,,,,0,0.0078125,-0.99609375,-0.0003286619710936837,0.0058848181659922685,15.549399092185078,0.1227522442690031,0,0,1.9087236356001176,0,0,0,0,0.0859375,,
1.1113499999996275,1000,,,,-0.03125,0.0859375,-1.02734375,-0.0003286619710936837,0.0058848181659922685,15.54933971329665,0.12513582512195265,0,0,1.945779455124923,0,0,0,0,0.0859375,,
1.118464999999851,1000,,,,-0.0625,0.04296875,-0.94140625,-0.0003286619710936837,0.0058848181659922685,15.549209631759513,0.12648276787321755,0,0,1.966707072465837,0,0,0,0,0.0859375,,
1.1255649999994786,1000,,,,-0.0625,0.029296875,-0.96875,-0.0003286619710936837,0.0058848181659922685,15.549157169054007,0.12818903194287584,0,0,1.993231405028661,0,0,0,0,0.0859375,,
1.1334449999993668,1000,,,,0,0.0078125,-0.9921875,-0.0003286619710936837,0.0058848181659922685,15.549165798298697,0.129809771265178,0,0,2.018433655641483,0,0,0,0,0.0859375,,
1.1414699999997393,1000,,,,-0.03125,0.0859375,-1.0234375,-0.0003286619710936837,0.0058848181659922685,15.549206716188737,0.1322139313175661,0,0,2.055821748816815,0,0,0,0,0.0859375,,
1.1493899999996646,1000,,,,-0.0625,0.046875,-0.9453125,-0.0003286619710936837,0.0058848181659922685,15.549278323337585,0.1334373509445712,0,0,2.0748545085660113,0,0,0,0,0.083984375,,
1.1564799999995157,1000,,,,0,-0.046875,-0.94140625,-0.0003286619710936837,0.00593658223696384,15.5493096596605,0.13427762419752365,0,0,2.0879243590108167,0,0,0,0,0.0859375,,
1.1634550000000745,1000,,,,-0.09375,0.0859375,-0.98828125,-0.0003286619710936837,0.00593658223696384,15.549425609080517,0.13717806552469075,0,0,2.1330401250737516,0,0,0,0,0.0859375,,
1.1704999999990686,1000,,,,-0.03125,0.0546875,-0.9921875,-0.0003286619710936837,0.00593658223696384,15.54927876677904,0.13784911936991762,0,0,2.1434543848378493,0,0,0,0,0.0859375,,
1.1774749999996275,1000,,,,-0.0625,0.05078125,-0.953125,-0.0001995012662038361,0.00593658223696384,15.549137628799976,0.13905421048117922,0,0,2.1621730566359756,0,0,0,0,0.083984375,,
1.1872399999992922,1000,,,,-0.03125,0.00390625,-0.96875,-0.0001995012662038361,0.00593658223696384,15.548915851246532,0.14049071006149222,0,0,2.184478228628017,0,0,0,0,0.0859375,,
1.1967199999997393,1000,,,,-0.0625,0.05078125,-0.96875,-0.0001995012662038361,0.00593658223696384,15.548791154937662,0.1408693985093823,0,0,2.190348857544072,0,0,0,0,0.083984375,,
1.2045649999994785,1000,,,,-0.041015625,0.0546875,-0.986328125,-0.0001995012662038361,0.00593658223696384,15.548670385762879,0.14228929738792934,0,0,2.2124093845067043,0,0,0,0,0.083984375,,
1.2118549999995156,1000,,,,-0.0625,0.05859375,-0.99609375,-0.0001995012662038361,0.00593658223696384,15.548727997934154,0.14330888841996714,0,0,2.228270925728365,0,0,0,0,0.083984375,,
1.2195699999993668,1000,,,,-0.0625,0.0625,-0.978515625,-0.0001995012662038361,0.00593658223696384,15.548822492402698,0.14461793152266433,0,0,2.248638546464356,0,0,0,0,0.083984375,,
1.2275400000000372,1000,,,,-0.0625,0.05078125,-0.9765625,-0.0001995012662038361,0.00593658223696384,15.5486836716012,0.1456619104373531,0,0,2.264850968391509,0,0,0,0,0.083984375,,
1.2345799999991431,1000,,,,-0.03125,0.0625,-0.994140625,-0.0001995012662038361,0.00593658223696384,15.548825851384098,0.14541054397135011,0,0,2.2609632251655527,0,0,0,0,0.083984375,,undefined,0,
1.2440399999991059,1000,,,,-0.0625,0.05078125,-0.98046875,-0.0001995012662038361,0.00593658223696384,15.549059454945066,0.1455695519067292,0,0,2.2634696174274445,0,0,0,0,0.083984375,,
1.2540300000002609,1180,,,,-0.0625,0.056640625,-0.984375,-0.0001995012662038361,0.00593658223696384,15.548729165778786,0.14689302868250054,0,0,2.2839999193251757,0,0,0,0,0.083984375,,
1.2608799999998883,1180,,,,-0.0625,0.08203125,-1.01171875,-0.0001995012662038361,0.00593658223696384,15.548611279487703,0.1482741382266191,0,0,2.3054569380867287,0,0,0,0,0.083984375,,
1.269539999999106,1180,,,,-0.03125,0.033203125,-0.96484375,-0.0001995012662038361,0.00593658223696384,15.548390669610482,0.1494254362299533,0,0,2.323325058480282,0,0,0,0,0.083984375,,
1.2768749999990687,1180,,,,-0.0625,0.05859375,-0.94921875,-0.0001995012662038361,0.00593658223696384,15.548572147076289,0.14959604592633163,0,0,2.3260049130029055,0,0,0,0,0.08203125,,
1.2845949999997393,1180,,,,-0.0625,0.029296875,-0.978515625,-0.0001995012662038361,0.00593658223696384,15.54844917524641,0.1503728179563344,0,0,2.338064117332646,0,0,0,0,0.08203125,,
1.2925749999992548,1180,,,,-0.0625,0.1015625,-1.02734375,-0.0001995012662038361,0.00593658223696384,15.54825622587387,0.15029061425186407,0,0,2.3367569787319535,0,0,0,0,0.08203125,,
1.2996049999995156,1180,,,,-0.03125,0.037109375,-0.96484375,-0.0001995012662038361,0.00593658223696384,15.548341072170157,0.15041350824565836,0,0,2.3386805280651743,0,0,0,0,0.08203125,,
1.3153699999991804,1180,,,,-0.09375,0.056640625,-0.96875,-0.0001995012662038361,0.006479270044227091,15.54839425701356,0.15127875129640567,0,0,2.3521416678652165,0,0,0,0,0.08203125,,
1.3300599999995901,1180,,,,-0.0625,0.1015625,-0.97265625,-0.0001995012662038361,0.006479270044227091,15.548127410545245,0.15216969497258487,0,0,2.365953805457556,0,0,0,0,0.08203125,,
1.3404899999992923,1180,,,,-0.01953125,0.0234375,-0.9609375,-0.00023991144008119096,0.006479270044227091,15.548084654836703,0.15304081695888322,0,0,2.379491577722085,0,0,0,0,0.08203125,,
1.3567099999999628,1180,,,,-0.03125,0.033203125,-0.984375,-0.00023991144008119096,0.006479270044227091,15.548094937640009,0.15405934344064587,0,0,2.3953292978456497,0,0,0,0,0.08203125,,
1.3662199999997393,1180,,,,0,0.015625,-0.96484375,-0.00023991144008119096,0.006479270044227091,15.548089398905569,0.15398672032760685,0,0,2.3941992938979006,0,0,0,0,0.080078125,,
1.3740250000003724,1180,,,,-0.0625,0.02734375,-0.97265625,-0.00023991144008119096,0.006479270044227091,15.548085188025727,0.1539315730605228,0,0,2.3933412110718146,0,0,0,0,0.080078125,,
1.3815349999992177,1180,,,,-0.03125,0.091796875,-1.03125,-0.00023991144008119096,0.006479270044227091,15.548081221935586,0.15418390061500348,0,0,2.397263809876918,0,0,0,0,0.080078125,,
1.3895949999997392,1180,,,,-0.0625,0.04296875,-0.9453125,-0.00023991144008119096,0.006479270044227091,15.54807726228721,0.15379840510655546,0,0,2.391269485413272,0,0,0,0,0.080078125,,
1.3985249999994411,1180,,,,-0.0625,0.029296875,-0.96484375,-0.00023991144008119096,0.006479270044227091,15.548073462030503,0.15417887782698986,0,0,2.3971845187474643,0,0,0,0,0.080078125,,
1.4054799999995158,1180,,,,0,0.00390625,-0.98828125,-0.00023991144008119096,0.006479270044227091,15.548199531864508,0.154745916400662,0,0,2.406020384938717,0,0,0,0,0.080078125,,
1.412519999999553,1180,,,,-0.03125,0.041015625,-0.98828125,-0.00023991144008119096,0.006479270044227091,15.54836479290063,0.1504197571723101,0,0,2.3387812565746082,0,0,0,0,0.080078125,,
1.4206799999987707,1180,,,,-0.0625,0.0390625,-0.953125,-0.00023991144008119096,0.006479270044227091,15.548696290064926,0.14261013238047504,0,0,2.2174016362699605,0,0,0,0,0.080078125,,
1.428609999999404,1180,,,,-0.0625,0.052734375,-0.958984375,-0.00023991144008119096,0.006479270044227091,15.548923886730568,0.13373960896072767,0,0,2.079507000371464,0,0,0,0,0.080078125,,
1.4357400000002236,1180,,,,-0.0625,0.0546875,-0.95703125,-0.00023991144008119096,0.006479270044227091,15.549073326857314,0.1258083486739368,0,0,1.9562032386618757,0,0,0,0,0.080078125,,
1.4437099999990315,1180,,,,-0.0625,0.052734375,-0.95703125,-0.00023991144008119096,0.006479270044227091,15.549480670718964,0.11879330742267145,0,0,1.8471742375796054,0,0,0,0,0.080078125,,
1.4506549999993295,1180,,,,-0.0625,0.05078125,-0.95703125,-0.00023991144008119096,0.006693907450886679,15.549588570896246,0.11356434471584857,0,0,1.7658788366548803,0,0,0,0,0.080078125,,
1.4576849999995902,1180,,,,-0.0625,0.046875,-0.95703125,-0.00023991144008119096,0.006693907450886679,15.549692141675552,0.10826199912274741,0,0,1.6834407570010708,0,0,0,0,0.078125,,
1.464679999999702,1180,,,,-0.0625,0.05078125,-0.953125,-0.00023991144008119096,0.006693907450886679,15.549964877738729,0.10286656797076023,0,0,1.5995715190388453,0,0,0,0,0.078125,,
1.4726549999993295,1180,,,,-0.0625,0.046875,-0.95703125,-0.00023991144008119096,0.006693907450886679,15.550064431015285,0.09639605662643567,0,0,1.4989648914368727,0,0,0,0,0.078125,,
1.4806499999994411,1180,,,,-0.0625,0.048828125,-0.953125,-0.00023991144008119096,0.006693907450886679,15.550355563162718,0.09086506868775175,0,0,1.412984126365743,0,0,0,0,0.078125,,
1.4905599999995902,1180,,,,-0.0625,0.05078125,-0.95703125,-0.0003294608702349993,0.006693907450886679,15.55059995694551,0.0867799263111085,0,0,1.3494799183572583,0,0,0,0,0.078125,,
1.4988399999989197,1180,,,,-0.0625,0.05078125,-0.95703125,-0.0003294608702349993,0.006693907450886679,15.550817308376258,0.0793536716493453,0,0,1.2340144505678452,0,0,0,0,0.078125,,
1.5067050000000746,1180,,,,-0.0625,0.05078125,-0.95703125,-0.0003294608702349993,0.006693907450886679,15.551016118304219,0.07283779236860789,0,0,1.1327016831459173,0,0,0,0,0.078125,,
1.515160000000149,1180,,,,-0.0625,0.05078125,-0.958984375,-0.0003294608702349993,0.006693907450886679,15.551266377371345,0.06737430105117088,0,0,1.0477557026359687,0,0,0,0,0.078125,,
1.5226849999995902,1180,,,,-0.0625,0.0546875,-0.95703125,-0.0003294608702349993,0.006693907450886679,15.551492338825172,0.06274909448085146,0,0,0.9758420620871784,0,0,0,0,0.076171875,,
1.5306949999993666,1180,,,,-0.0625,0.05078125,-0.955078125,-0.0003294608702349993,0.006693907450886679,15.55151733056111,0.05821804199814633,0,0,0.9053788890855071,0,0,0,0,0.076171875,,
1.5389150000000373,1180,,,,-0.0625,0.05078125,-0.953125,-0.0003294608702349993,0.006693907450886679,15.551480228159331,0.054395357433460065,0,0,0.8459283256301139,0,0,0,0,0.076171875,,
1.546695000000298,1180,,,,-0.0625,0.05078125,-0.95703125,-0.0003294608702349993,0.006693907450886679,15.551726148936009,0.049475986222522986,0,0,0.7694369886812085,0,0,0,0,0.076171875,,
1.5546849999995902,1180,,,,-0.0625,0.05078125,-0.95703125,-0.0003294608702349993,0.006693907450886679,15.551914543657968,0.04695464377515471,0,0,0.7302346074191076,0,0,0,0,0.076171875,,
1.5651149999992922,1180,,,,-0.0625,0.048828125,-0.955078125,-0.0003294608702349993,0.006693907450886679,15.551919857967956,0.0426569897916972,0,0,0.6633980866226321,0,0,0,0,0.076171875,,
1.5727649999996647,1180,,,,-0.0625,0.044921875,-0.95703125,-0.0003294608702349993,0.006693907450886679,15.551924216765165,0.03948178362767438,0,0,0.6140177069203115,0,0,0,0,0.076171875,,
1.5798699999991805,1180,,,,-0.0625,0.048828125,-0.955078125,-0.0003294608702349993,0.006693907450886679,15.551927517826948,0.03651522727790164,0,0,0.5678821679229038,0,0,0,0,0.076171875,,
1.5885949999988078,1180,,,,-0.0625,0.05078125,-0.95703125,-0.0003294608702349993,0.006693907450886679,15.552144629160697,0.033691979907531644,0,0,0.5239825443647084,0,0,0,0,0.076171875,,
1.5957549999989569,1180,,,,-0.0625,0.05078125,-0.958984375,-0.0003294608702349993,0.006693907450886679,15.55219788023464,0.03144738789975121,0,0,0.4890759994334273,0,0,0,0,0.07421875,,
1.6037249999996275,1180,,,,-0.0625,0.05078125,-0.953125,-0.0003294608702349993,0.006771994082026016,15.552189374472954,0.029379480269934477,0,0,0.4569152408816128,0,0,0,0,0.07421875,,
1.612644999999553,1180,,,,-0.0625,0.05078125,-0.955078125,-0.0003294608702349993,0.006771994082026016,15.552443368325356,0.02647214841904154,0,0,0.41170658912504715,0,0,0,0,0.07421875,,
1.6213899999996648,1180,,,,-0.0625,0.05078125,-0.95703125,-0.0003294608702349993,0.006771994082026016,15.552566474385724,0.024337683055537754,0,0,0.378513433553782,0,0,0,0,0.07421875,,
1.6302099999990314,1180,,,,-0.1875,0.03125,-0.9765625,-0.0003294608702349993,0.006771994082026016,15.547920838741607,0.12843928833515245,0,0,1.9969638876192586,0,0,0,0,0.07421875,,
1.640445000000298,1180,,,,0,0.068359375,-0.98828125,-0.0003665946558036403,0.006771994082026016,15.54425208815666,0.2546660529197317,0,0,3.9585933248801544,0,0,0,0,0.080078125,,
1.6494799999995158,1180,,,,-0.21875,0.060546875,-0.875,-0.0003665946558036403,0.006771994082026016,15.53998356190641,0.4011364876744151,0,0,6.233654424541284,0.000002660207607316551,0.00004267492912092745,0,0.0010863602023502203,0.083984375,,
1.6567649999996648,1180,,,,-0.0625,-0.3984375,-0.87890625,-0.0003665946558036403,0.006771994082026016,15.538090760059228,0.46386292663386697,0,0,7.20754425426372,0.0000042412038805237965,0.000058843951988430116,0,0.0009395702396166283,0.087890625,,
1.6649349999995902,1180,,,,0,0.095703125,-0.99609375,-0.0003665946558036403,0.006771994082026016,15.53710855862283,0.48563843852796496,0,0,7.5454171396490715,0.000004860141988074131,0.00006441183963886416,0,0.0008974976408449399,0.08984375,,
1.6728649999992922,1180,,,,0,0.08984375,-1.05859375,-0.0003665946558036403,0.006771994082026016,15.53668935979733,0.49800090855047796,816,0,7.737285417045614,0.03131496326531665,0.4047280354467508,0,0.0008752416018035196,0.08984375,,
1.6798149999994785,1180,,,,-0.0625,0.017578125,-0.94140625,-0.0003665946558036403,0.006771994082026016,15.536659898570411,0.5016162445859896,1438,0,7.793440991730632,0.055204399635020315,0.7083443589756555,0,0.0008689350556720145,0.08984375,,
1.6888249999992548,1180,,,,0,0.009765625,-0.990234375,-0.0003665946558036403,0.006771994082026016,15.537023195619252,0.5030419462085314,1944,0,7.8157743866114044,0.0746136971720146,0.9546552072924409,0.09076073614759826,0.0008664520938099996,0.08984375,,
1.6977999999998137,1180,,,,-0.0625,0.044921875,-0.943359375,-0.0003665946558036403,0.006771994082026016,15.537040257199347,0.5016878858851253,2263,0,7.794744879546423,0.08686680835034302,1.1144278573925284,0.07795836189484305,0.0008687897021230129,0.08984375,,
1.7059899999992922,1180,,,,-0.0625,0.05078125,-0.98828125,-0.0003665946558036403,0.006771994082026016,15.536134849894907,0.5614269202052603,2535,0,8.722404340670112,0.09733485521868686,1.1159177150827768,0.06957419381588491,0.0007763907539174855,0.08984375,,
1.7137149999998509,1180,,,,-0.03125,0.1015625,-1.0234375,-0.0003665946558036403,0.006771994082026016,15.5336896158892,0.6300910846759066,2731,0,9.787639339094493,0.10483896078000761,1.071136329689349,0.06459425037831365,0.0006918924826926173,0.08984375,,
1.7208799999998883,1180,,,,0.0625,0.140625,-0.9609375,-0.0003665946558036403,0.006771994082026016,15.53216542016329,0.6719767542244506,2987,0,10.437254105118578,0.11468111072515277,1.0987670662239748,0.059050649572586746,0.0006488290898949115,0.08984375,,
1.7279399999994784,1180,,,,-0.0625,-0.04296875,-0.9453125,-0.0003665946558036403,0.006771994082026016,15.531383899051646,0.6939114462009132,3224,0,10.777405062892505,0.12377492516532512,1.1484668567528598,0.05471216462446429,0.0006283510773240351,0.08984375,,
1.7348099999995903,1180,,,,0,0.22265625,-1.078125,-0.0003665946558036403,0.006771994082026016,15.530728090862201,0.7105216830762661,3469,0,11.034919062519256,0.13317779779861613,1.2068760726207974,0.05084927213067631,0.000613687698446968,0.091796875,,
1.741839999999851,1180,,,,-0.09375,-0.0703125,-0.890625,-0.0003665946558036403,0.006771994082026016,15.530008448018236,0.7243406324967034,3722,0,11.249016141916677,0.14287181316573955,1.270082746466716,0.04739909105913083,0.0006020076775240685,0.091796875,,
1.758839999999851,1180,,,,-0.03125,0.001953125,-1.03515625,-0.0003665946558036403,0.006804495661014548,15.529221441332819,0.7515312167888969,4050,0,11.67069468558908,0.15549403913545856,1.3323460455825469,0.043760492034597,0.0005830411851504185,0.09375,,
1.7659199999999255,1180,,,,-0.09375,0.146484375,-0.986328125,-0.0003665946558036403,0.006804495661014548,15.529168817840748,0.7568747742211782,4154,0,11.753636142845778,0.1594859501864535,1.3569073284911042,0.04266517303285635,0.0005789268595962382,0.095703125,,
1.7738549999995157,1180,,,,0,0.03515625,-0.9921875,-0.0003665946558036403,0.006804495661014548,15.528850917334202,0.7607636986648127,4279,0,11.813786059885638,0.16427427659897922,1.3905303157366424,0.04142155303855302,0.0005759792522500122,0.09375,,
1.7818549999995157,1180,,,,-0.09375,0.0546875,-0.962890625,-0.00020606470710056964,0.006804495661014548,15.52920158799863,0.7625580364934291,4358,0,11.841917471254877,0.09405017990115952,0.7942141137991996,0.07234962940172597,0.0005746109679899232,0.095703125,,
1.7916299999998881,1180,,,,0,0.01171875,-0.96484375,-0.00020606470710056964,0.006804495661014548,15.529408909010936,0.763076742093945,4429,0,11.850130756932751,0.09556704720712393,0.8064640734129772,0.07120127554288729,0.0005742127070651667,0.095703125,,
1.8079249999998137,1180,,,,-0.09375,0.044921875,-1.001953125,-0.00020606470710056964,0.006804495661014548,15.529841575023058,0.7581291160952744,4519,0,11.773625066371876,0.09752373723601683,0.8283237888606338,0.06977271230435943,0.0005779439741502996,0.095703125,,
1.8156599999992178,1180,,,,0.0625,-0.0546875,-1.046875,-0.00020606470710056964,0.006804495661014548,15.52993789430671,0.7532018318203589,4548,0,11.697177670048223,0.09813926054411277,0.8389994861359422,0.06933510221381772,0.000581721151285761,0.095703125,,
1.8228549999995156,1180,,,,-0.09375,0.123046875,-1.044921875,-0.00020606470710056964,0.006804495661014548,15.53013021114197,0.7482000687619366,4566,0,11.61964449185825,0.09853501151143894,0.8480036681025936,0.0690566282648134,0.0005856027407535901,0.09765625,,
1.8319649999989196,1180,,,,-0.03125,0.10546875,-0.939453125,-0.00020606470710056964,0.006804495661014548,15.530618423744015,0.745802397516734,4575,0,11.582772455345847,0.09872495710043899,0.8523430593240572,0.0689237641713221,0.000587466920139145,0.09765625,,
1.8399899999992921,1180,,,,0.0625,0.017578125,-0.998046875,-0.00020606470710056964,0.006804495661014548,15.530694515232389,0.7420672028210948,4591,0,11.524819036787418,0.09907618005072127,0.8596766659369525,0.06867943089379344,0.0005904210416922367,0.099609375,,
1.8487999999998137,1180,,,,-0.0625,0.078125,-1.04296875,-0.00020606470710056964,0.006804495661014548,15.530693184013884,0.7378707744215964,4600,0,11.459644606992534,0.09927191331050966,0.8662739265922363,0.06854401647050933,0.0005937789429231102,0.099609375,,
1.8568849999988453,1180,,,,-0.125,0.05078125,-0.939453125,-0.00020606470710056964,0.006804495661014548,15.530545837167516,0.7325747597510804,4608,0,11.377285885466135,0.09944521976210532,0.8740680401565825,0.06842456256110034,0.0005980772329635244,0.1015625,,
1.8639550000000744,1180,,,,0.0625,-0.09765625,-1.03125,-0.00020606470710056964,0.006804495661014548,15.530608946390263,0.7260643964987515,4613,0,11.276222211918958,0.09955282984534453,0.882856225909749,0.06835060009429508,0.0006034375283791589,0.1015625,,
1.8710750000001863,1180,,,,-0.125,0.0625,-1.052734375,-0.00020606470710056964,0.006804495661014548,15.530668565118697,0.7252135807551248,4616,0,11.263051761630786,0.09961128535037354,0.8844075962583585,0.06831048949002475,0.0006041431580910465,0.103515625,,
1.8797999999998138,1180,,,,-0.09375,0.005859375,-0.955078125,-0.00020606470710056964,0.006804495661014548,15.530930093115519,0.7207718678518823,4617,0,11.19425749269188,0.0996389088819342,0.8900894851398854,0.0682915513364106,0.0006078559176842976,0.103515625,,
1.8869950000001117,1180,,,,-0.0625,-0.05078125,-1.0625,-0.00020606470710056964,0.006804495661014548,15.530982527066419,0.7173987767686053,4624,0,11.141907866932032,0.0997800999472789,0.8955387276483894,0.0681949172691735,0.000610711894433228,0.10546875,,
1.8940800000000746,1180,,,,-0.15625,0.083984375,-0.94140625,-0.00020606470710056964,0.006804495661014548,15.531284480644203,0.7132759824273881,4623,0,11.07809219629074,0.09975916395055635,0.9005085188220274,0.06820922902267966,0.0006142299179720572,0.10546875,,
1.9019849999994038,1180,,,,0.125,-0.25,-0.984375,-0.00020606470710056964,0.031260732228757825,15.531122950915826,0.7084444856125761,4623,0,11.002938409947237,0.09974930657078813,0.9065697076029209,0,0.0028411258033123653,0.107421875,,
1.9089900000002236,1180,,,,-0.03125,0.01953125,-1.01953125,-0.00020606470710056964,0.031260732228757825,15.531247264055258,0.7069413982367174,4622,0,10.979681657211415,0.09974569720212903,0.9084570966282653,0,0.002847143770168044,0.107421875,,
1.915929999999702,1180,,,,0,-0.07421875,-0.89453125,-0.00020606470710056964,0.031260732228757825,15.531194008059538,0.7021816183010893,4622,0,10.905718942727427,0.09974413490423134,0.9146039378792773,0,0.002866453132794543,0.107421875,,
1.923,1180,,,,-0.125,0.1875,-1.0390625,-0.00020606470710056964,0.031260732228757825,15.531171268942341,0.698139246122372,4622,0,10.842920201096849,0.09974344432307261,0.9198946637362762,0,0.0028830547167169552,0.109375,,
1.9299499999992549,1180,,,,0,0.052734375,-0.974609375,0.006091051331203703,0.031260732228757825,15.531464076155157,0.6959730075496356,4622,0,10.809479764730828,2.948300180767845,27.27513483477308,0.010602967917810999,0.002891973796070681,0.107421875,,
1.9369199999999256,1180,,,,-0.1875,0.32421875,-0.98828125,0.006091051331203703,0.031260732228757825,15.53140111774608,0.6938923731920913,4622,0,10.777120780591128,2.947938419751803,27.353673395410418,0.010604269078113841,0.0029006571295977592,0.109375,,
1.948469999998808,1180,,,,-0.125,0.025390625,-0.94921875,0.006091051331203703,0.031260732228757825,15.531601373481354,0.6918790064452263,4621,0,10.745988926787591,2.9474191133117524,27.42808626914205,0.01060613744668057,0.002909060528699327,0.109375,,
1.9669699999997392,1180,,,,-0.03125,0.08984375,-0.98046875,0.006091051331203703,0.031260732228757825,15.531796094340521,0.6827237099858692,4622,0,10.603925452272193,2.948208855265604,27.802994924241624,0.010603296361763877,0.002948033949263508,0.111328125,,
1.9749299999997019,1180,,,,-0.0625,0.19921875,-0.935546875,0.006091051331203703,0.031260732228757825,15.532014184536463,0.6818023327232364,4623,0,10.589763502907356,2.948526079382549,27.843172121578057,0.010602155581172317,0.002951976427063303,0.111328125,,
1.9839249999998136,1180,,,,-0.03125,0.13671875,-0.9140625,0.006091051331203703,0.031260732228757825,15.532123121530665,0.6788558459140897,4623,0,10.544072580508491,2.9489205269922585,27.967566653928,0.010600737436841711,0.0029647683084566044,0.111328125,,
1.9909899999992922,1180,,,,0.0625,0.0625,-1,0.006091051331203703,0.031260732228757825,15.53205198492364,0.6781774475597561,4623,0,10.533487370500957,2.948541454013526,27.99207280839316,0.010602100298168106,0.0029677476346820844,0.111328125,,
1.9990049999998882,1180,,,,-0.03125,0.060546875,-0.8515625,0.006091051331203703,0.031260732228757825,15.532049748534039,0.67741522539341,4622,0,10.521646981224844,2.9484009461592997,28.02223788177382,0.010602605547756066,0.0029710873482583526,0.111328125,,
2.0070449999989943,1180,,,,0.125,-0.09375,-0.90234375,0.006091051331203703,0.031260732228757825,15.532177762689438,0.6723504045720827,4622,0,10.44306600262975,2.9483358520446736,28.232473598292206,0.010602839634798892,0.002993443900563859,0.111328125,,
2.0150049999989568,1180,,,,0.03125,0.00390625,-0.951171875,0.006091051331203703,0.031260732228757825,15.532463353937786,0.6724143240101924,4628,0,10.444250846351162,2.952178894230565,28.266066543795702,0.010589037232753945,0.002993104310557533,0.111328125,,
2.0220849999990316,1180,,,,0.0625,-0.091796875,-0.880859375,0.006091051331203703,0.031260732228757825,15.532440697751426,0.6689712911042454,4629,0,10.390756907574897,2.9529172792151694,28.418692742801856,0.010586389415238326,0.0030085134804730775,0.11328125,,
2.0310400000000373,1180,,,,0.125,-0.01953125,-1.03515625,0.006091051331203703,0.031260732228757825,15.532550328467972,0.6668517220346003,4626,0,10.357907934127963,2.9504988265492504,28.48547066949436,0.01059506682309674,0.00301805465230655,0.11328125,,
2.04,1180,,,,0.03125,0.0546875,-0.96875,0.006091051331203703,0.031260732228757825,15.532666725145626,0.6674644491660863,4627,0,10.367502839779723,2.9515418585918494,28.469168556837936,0.010591322680299714,0.0030152615062531314,0.11328125,,
2.0470449999989944,1180,,,,0.03125,-0.00390625,-0.998046875,0.006091051331203703,0.031260732228757825,15.532634252525387,0.6680834494618764,4632,0,10.377095870656854,2.954717347644744,28.473451382479283,0.010579939991104832,0.003012474069662717,0.11328125,,
2.0540649999994787,1180,,,,-0.0625,0.1015625,-1.07421875,0.006091051331203703,0.05362570154159657,15.532434912016313,0.6658038141457345,4629,0,10.341554407390827,2.952534030908633,28.55019578873498,0.018162602354525083,0.005185458532546301,0.11328125,,
2.062109999999404,1180,,,,0.0625,-0.01953125,-0.9765625,0.006091051331203703,0.05362570154159657,15.532544494201606,0.6659760027139344,4636,0,10.344301894224715,2.9569246700297405,28.585057747402065,0.018135633310217947,0.005184081254582884,0.11328125,,
2.0689999999990687,1180,,,,-0.03125,0.126953125,-1.015625,0.006091051331203703,0.05362570154159657,15.532349288384871,0.6660261185847481,4634,0,10.34495030904555,2.9556588558917483,28.57102999622281,0.018143400221815258,0.0051837563197095924,0.115234375,,
2.076049999999814,1180,,,,-0.09375,0.142578125,-1.00390625,0.006091051331203703,0.05362570154159657,15.53233419018916,0.665792433752561,4628,0,10.341310582344155,2.9522161494483408,28.547795039525216,0.018164558022493445,0.005185580794097064,0.115234375,,
2.0830849999990315,1180,,,,0,-0.1171875,-0.9453125,0.00877860316118036,0.05362570154159657,15.532319825831234,0.6650096913112654,4631,0,10.329143212723876,4.25681715533812,41.21171589618771,0.012597605108396316,0.00519168922699592,0.1171875,,
2.0910449999999257,1180,,,,-0.0625,0.05078125,-1.056640625,0.00877860316118036,0.05362570154159657,15.532304243490826,0.6619364403187699,4636,0,10.281398180884441,4.262199888957808,41.45545006594773,0.012581695588826342,0.005215798532275452,0.1171875,,
2.1007449999991805,1180,,,,0,-0.25,-0.953125,0.00877860316118036,0.05362570154159657,15.532406078485382,0.660384328529902,4628,0,10.257357558594338,4.254857176976913,41.48102620651937,0.012603408131244907,0.005228023029836293,0.1171875,,
2.109364999999292,1180,,,,-0.09375,0.005859375,-0.984375,0.00877860316118036,0.05362570154159657,15.532640951616516,0.6581324920813393,4625,0,10.222535698092043,4.2517622223532525,41.5920506215186,0.0126125824392682,0.005245831672821196,0.119140625,,
2.1172899999991057,1180,,,,-0.09375,0.0234375,-0.97265625,0.00877860316118036,0.05362570154159657,15.532608188084886,0.656260838135789,4624,0,10.193442467947406,4.250533540405387,41.698705356614354,0.012616228299772955,0.005260803865840121,0.119140625,,
2.124149999999441,1180,,,,0,-0.18359375,-0.96484375,0.00877860316118036,0.05362570154159657,15.532496712624436,0.6613185314905116,4623,0,10.27192791637399,4.2497672685021,41.37263523557003,0.012618503121112753,0.0052206072684869995,0.12109375,,
2.131149999999441,1180,,,,-0.125,0.17578125,-1.01953125,0.00877860316118036,0.05362570154159657,15.532219008015137,0.6690770287648965,4629,0,10.392250944008415,4.255112619157874,40.94505263665839,0.012602651525639195,0.0051601623007876,0.12109375,,
2.1381199999991805,1180,,,,-0.09375,0.013671875,-1.01171875,0.00877860316118036,0.05362570154159657,15.532038292893073,0.6745763928988172,4649,0,10.477546365986113,4.273635411266492,40.788513474302064,0.01254802910894652,0.005118154543861996,0.12109375,,
2.145160000000149,1180,,,,0,0.025390625,-1.001953125,0.00877860316118036,0.05362570154159657,15.532036695406092,0.6717099430531128,4669,0,10.433023484170084,4.292383535791828,41.14227809708869,0.012493222260881702,0.005139996245859341,0.12109375,,
2.153125,1180,,,,0,0.0390625,-0.96484375,0.00877860316118036,0.05362570154159657,15.532230534488464,0.6686217669480132,4680,0,10.38518742461356,4.302215950576807,41.42646420015762,0.012464669871907955,0.005163672002153781,0.12109375,,
2.160199999999255,1180,,,,-0.0625,0.16015625,-0.9921875,0.00877860316118036,0.05362570154159657,15.532450576519382,0.6641606705449883,4678,0,10.316042790108003,4.300026259915997,41.68290445672898,0.012471017221798122,0.005198282193344328,0.12109375,,
2.1681349999997765,1180,,,,0,0.138671875,-0.986328125,0.00877860316118036,0.05362570154159657,15.532526399053904,0.6582584287386125,4668,0,10.22441642178224,4.291637304882529,41.97439861447314,0.012495394585322355,0.0052448667316944975,0.12109375,,
2.1751549999993296,1180,,,,-0.03125,0.1171875,-0.927734375,0.00877860316118036,0.05362570154159657,15.532503680648611,0.6569546427289298,4664,0,10.204150406206296,4.287487844878937,42.01709769263331,0.012507487713498291,0.005255283331474684,0.12109375,,
2.1821399999996647,1180,,,,-0.125,0.2890625,-0.96484375,0.00877860316118036,0.05362570154159657,15.532482125168233,0.6546002698423865,4644,0,10.16756699045717,4.269052388356236,41.98696101400641,0.012561499991862294,0.005274192104357639,0.123046875,,
2.1891150000002235,1180,,,,0.0625,0.0859375,-0.91796875,0.00877860316118036,0.05362570154159657,15.532403883800118,0.6541118359077998,4642,0,10.159929220493934,4.2671796636189265,42.00009243185922,0.012567012820856358,0.00527815700068327,0.12109375,,
2.1961049999995157,1180,,,,-0.03125,0.181640625,-1.060546875,0.00877860316118036,0.05362570154159657,15.53221471891791,0.6538327522462773,4642,0,10.155470698150236,4.267404319269193,42.02074375584066,0.012566351235914798,0.005280474252302673,0.123046875,,
2.2042249999996275,1180,,,,-0.0625,0.18359375,-0.859375,0.00877860316118036,0.06323688296835597,15.53220422784089,0.6548041969592945,4643,0,10.170552516419113,4.2686287457728005,41.97047052145517,0.014814331893111836,0.006217644800149034,0.123046875,,
2.21118499999959,1180,,,,-0.03125,0.24609375,-0.998046875,0.00877860316118036,0.06323688296835597,15.532281773041236,0.6547747523107943,4635,0,10.17014595076454,4.261112339225038,41.89824177404955,0.014840463694476726,0.006217893359101906,0.125,,
2.2181899999994785,1180,,,,-0.0625,0.17578125,-0.96484375,0.00877860316118036,0.06323688296835597,15.532355970417136,0.6524979860614676,4639,0,10.134830989486993,4.264759661849391,42.08022478394843,0.014827771781384188,0.00623955969605734,0.125,,
2.2260699999993667,1180,,,,0,0.0859375,-0.90625,0.00877860316118036,0.06323688296835597,15.532253791502999,0.653981655110451,4630,0,10.15780904216271,4.255939282767048,41.89820132571533,0.01485850214649721,0.006225445143325134,0.126953125,,
2.233359999999404,1180,,,,-0.125,0.3046875,-0.92578125,0.009025434486339894,0.06323688296835597,15.532439429697545,0.6543111883776098,4626,0,10.163048901648645,4.371940465576466,43.0180008763635,0.014464259855839053,0.006222235431544338,0.126953125,,
2.241169999998994,1180,,,,0,-0.02734375,-0.900390625,0.009025434486339894,0.06323688296835597,15.532322303692993,0.6530513784294765,4625,0,10.14340449063761,4.371094845894412,43.092975833990884,0.01446705807076041,0.00623428583832221,0.126953125,,
2.263894999999553,1180,,,,0,0.021484375,-0.91796875,0.009025434486339894,0.06323688296835597,15.532279949134933,0.643582484487239,4627,0,9.996303319415587,4.3731173714486244,43.74734571083713,0.014460367192799202,0.006326026826890342,0.126953125,,
2.2719199999989943,1180,,,,0.0625,-0.037109375,-0.91015625,0.009025434486339894,0.06323688296835597,15.532193847385647,0.6419437112583368,4627,0,9.970794162374649,4.373477332044514,43.86287853126159,0.014459177027172103,0.00634221125604858,0.126953125,,
2.283144999999553,1180,,,,0.0625,-0.0390625,-1.009765625,0.009025434486339894,0.06323688296835597,15.532181876542753,0.6410813253807954,4632,0,9.957391743469598,4.377469950008726,43.96201397699978,0.01444598905087399,0.00635074772566108,0.126953125,,
2.2974699999997394,1180,,,,-0.0625,0.060546875,-0.990234375,0.009025434486339894,0.06323688296835597,15.530760602412089,0.6887943906786897,4689,0,10.697500785915036,4.432060911630017,41.43080706725005,0.014268053672822563,0.005911369789438801,0.126953125,,
2.305829999999143,1180,,,,-0.0625,-0.04296875,-1.01171875,0.009025434486339894,0.06323688296835597,15.530267005517826,0.6885477847432631,4749,0,10.693330943120689,4.488113163759207,41.97114245909066,0.014089859292983885,0.005913674916143691,0.126953125,,
2.3136799999987705,1180,,,,0,0.046875,-0.87890625,0.009025434486339894,0.06323688296835597,15.530856532478603,0.6738729885540045,4796,0,10.46582470634484,4.533190225093268,43.314218920034556,0.013949752785204356,0.006042226460187033,0.12890625,,
2.3214249999998136,1180,,,,-0.125,0.0859375,-0.8984375,0.009025434486339894,0.06323688296835597,15.531289696518378,0.665541172634754,4796,0,10.336712757150913,4.533021872228033,43.85361167255131,0.013950270868045539,0.006117697613741743,0.12890625,,
2.3307199999997392,1180,,,,-0.03125,-0.0703125,-1.025390625,0.009025434486339894,0.06323688296835597,15.53159210067815,0.6576959030464011,4757,0,10.215064492403867,4.496210030771429,44.01548354506134,0.014064485986101995,0.006190551514910183,0.12890625,,
2.339264999999665,1180,,,,0,0.076171875,-0.95703125,0.009025434486339894,0.06323688296835597,15.531930168247989,0.6525027533570537,4709,0,10.134627199731298,4.450920382198059,43.9179487758175,0.014207596977308059,0.006239685162768749,0.130859375,,
2.346909999999218,1180,,,,-0.0625,-0.015625,-0.90625,0.009025434486339894,0.06323688296835597,15.532120696633918,0.6510550514653036,4684,0,10.112265639512303,4.427057697853941,43.779088244634465,0.014284178631557176,0.006253483168130636,0.130859375,,
2.357540000000037,1180,,,,0.0625,0.013671875,-0.927734375,0.009025434486339894,0.06797649028082595,15.53227254195657,0.6464491040693067,4658,0,10.040823668908116,4.402013043186563,43.84115475324603,0.01544213740712104,0.006770011357864828,0.130859375,,
2.376264999999665,1180,,,,-0.03125,0.095703125,-0.861328125,0.009025434486339894,0.06797649028082595,15.532328766969359,0.6419877531373497,4643,0,9.97156484609728,4.388328632270181,44.008424956366866,0.015490291629699617,0.0068170333673787335,0.130859375,,
2.4067399999992922,1180,,,,0.0625,-0.029296875,-0.935546875,0.008903339373532547,0.06797649028082595,15.53295570935892,0.636794074716146,4624,0,9.89129415854809,4.3116390551587305,43.59024194455482,0.015765811889910955,0.006872355547335575,0.1328125,,
2.424629999998957,1180,,,,0,0.099609375,-0.97265625,0.008903339373532547,0.06797649028082595,15.532721450788582,0.638869749050802,4623,0,9.92338585534131,4.309926245523912,43.43201310875233,0.015772077387965315,0.0068501307186636575,0.130859375,,
2.4415999999996276,1180,,,,-0.0625,-0.01171875,-1.013671875,0.008903339373532547,0.06797649028082595,15.532782237293777,0.6382295048028929,4621,0,9.913479915519178,4.308153856032668,43.45753350736522,0.015778566075498695,0.006856975639241607,0.1328125,,
2.448324999999255,1180,,,,-0.08203125,0.080078125,-1,0.008903339373532547,0.06797649028082595,15.532777258866755,0.6379760893350205,4616,0,9.909540492123751,4.304207964305151,43.43499042893259,0.015793031109220514,0.0068597015507282765,0.1328125,,
2.456339999999851,1180,,,,-0.0625,-0.00390625,-0.970703125,0.008903339373532547,0.06797649028082595,15.532934792879283,0.6381288718328053,4620,0,9.912014155632587,4.307058525022074,43.45290934208918,0.01578257873347044,0.006857989628898757,0.134765625,,
2.463294999998994,1180,,,,-0.125,0.1171875,-1.0078125,0.008903339373532547,0.06797649028082595,15.532808913527312,0.6379770660490562,4622,0,9.909575858152783,4.3095009588061925,43.48824834173594,0.01577363386865486,0.006859677069316795,0.134765625,,
2.470289999999106,1180,,,,-0.125,-0.017578125,-0.962890625,0.008903339373532547,0.06797649028082595,15.532774038337374,0.6400779637714121,4628,0,9.942186378180441,4.314785523206433,43.39875917711471,0.015754314997865938,0.006837177225927905,0.134765625,,
2.47731500000041,1180,,,,-0.125,0.16796875,-0.9140625,0.008903339373532547,0.06797649028082595,15.53291365425381,0.6409671898931644,4635,0,9.956088015820228,4.321312469094267,43.40371903329601,0.01573051955094411,0.00682763050836948,0.134765625,,
2.4842599999988453,1180,,,,0,-0.125,-0.943359375,0.008903339373532547,0.06797649028082595,15.532960310460396,0.6406934200720231,4629,0,9.951865465151865,4.3157413128150885,43.366154093696146,0.015750825954043566,0.006830527454260419,0.134765625,,
2.4922949999999253,1180,,,,0,-0.03515625,-1.06640625,0.008903339373532547,0.06797649028082595,15.532978675109515,0.6384837670151527,4626,0,9.91755473744996,4.3131185268183,43.4897375512475,0.015760403953232145,0.006854158316277096,0.134765625,,
2.499394999999553,1180,,,,-0.03125,-0.005859375,-0.958984375,0.008903339373532547,0.07015076779867617,15.533023307159489,0.6388822109833975,4631,0,9.923772273734699,4.317798780029923,43.50965198443604,0.016246882120382184,0.007068961868899853,0.134765625,,0.10885000000009314,35823,
2.5077599999997764,1180,,,,0.0625,-0.1015625,-1.0234375,0.008903339373532547,0.07015076779867617,15.532977616544443,0.6381087932869113,4636,0,9.911729603045778,4.322713483744893,43.612100580473516,0.016228410247977505,0.007077550599959822,0.134765625,,
2.5254749999996275,1450,,,,-0.0625,0.13671875,-1.017578125,0.008903339373532547,0.07015076779867617,15.533093940294128,0.6363964290362194,4636,0,9.885205515487321,4.322560320185164,43.72757160600187,0.016228985277797384,0.007096541158276351,0.134765625,,
2.53493499999959,1450,,,,-0.0625,0.0859375,-1.10546875,0.008880725437111764,0.07015076779867617,15.533138963661372,0.6353372501458104,4629,0,9.86878179530536,4.3047979340091755,43.62035784454161,0.016295949048958692,0.007108351289319957,0.13671875,,
2.5432599999997767,1450,,,,-0.09375,0.16015625,-1.021484375,0.008880725437111764,0.07015076779867617,15.515810564277666,1.179913009877813,4624,0,18.30730674359083,4.3006431477171425,23.491402683918796,0.01631169231883688,0.0038318453271798227,0.13671875,,
2.551289999999106,1450,,,,0.375,-0.384765625,-0.931640625,0.008880725437111764,0.07015076779867617,15.472998429435133,2.4862617705799384,4732,0,38.469924471348,4.400598867475268,11.439062924994273,0.015941186622838766,0.001823522368777296,0.142578125,,
2.56175,1450,,,,-0.0625,0.1015625,-0.96484375,0.008880725437111764,0.07015076779867617,15.43664399819701,3.595975747813051,5706,0,55.50979744514034,5.306932065926389,9.560352064284086,0.013218704691753106,0.0012637547068696355,0.14453125,,
2.5704199999999253,1450,,,,0.041015625,-0.0703125,-0.94140625,0.008880725437111764,0.07015076779867617,15.410609534077977,4.362247673328463,7352,0,67.2248955846051,6.837164569882105,10.170584142116327,0.010260213438139577,0.0010435236408867122,0.1484375,,
2.578839999999851,1450,,,,-0.125,-0.04296875,-1.03515625,0.008880725437111764,0.07015076779867617,15.396647046089068,4.770019706399642,8584,0,73.4423098223247,7.982785587192465,10.869464218248062,0.00878775548114754,0.0009551819376104647,0.150390625,,
2.586574999999255,1450,,,,0.09375,-0.021484375,-0.94921875,0.008880725437111764,0.07015076779867617,15.386421270918209,5.0773740860077385,9449,0,78.12261663735836,8.78746026587857,11.24829229244786,0.007983053769366033,0.0008979572218415679,0.15234375,,
2.595484999999404,1450,,,,0.375,0.1875,-0.955078125,0.008880725437111764,0.07015076779867617,15.378441061560167,5.298590994150558,10042,0,81.48406931285786,9.338725174790602,11.460798722428297,0.007511814137977257,0.0008609138987564857,0.15625,,
2.603375,1450,,,,0.75,0.0234375,-1.0078125,0.008880725437111764,0.07015076779867617,15.372557842706284,5.4797293962681115,10439,0,84.23745710650952,9.707958183829712,11.524514767290524,0.007226109390904098,0.0008327740438553101,0.162109375,,
2.611290000000037,1450,,,,-0.0625,-0.1171875,-0.931640625,0.008880725437111764,0.07015076779867617,15.368726609749396,5.581066244501737,10699,0,85.77388130264798,9.949980309729241,11.600244921436323,0.00705034237405291,0.0008178569831899457,0.166015625,,
2.6194950000001116,1450,,,,-0.0625,0.150390625,-1.060546875,0.008880725437111764,0.07015076779867617,15.365172781255257,5.697439218846949,10909,0,87.54213800828335,10.145386332409416,11.589146168042465,0.00691454869240215,0.0008013371548229541,0.166015625,,
2.628379999999888,1450,,,,-0.25,0.08984375,-0.98046875,0.008880725437111764,0.07015076779867617,15.362816641753277,5.754698189505061,11013,0,88.40837311399581,10.241789062285765,11.584636954103617,0.006849464226616273,0.0007934855639546962,0.16796875,,
2.636364999999292,1450,,,,-0.28125,0.09375,-0.76171875,0.008880725437111764,0.07015076779867617,15.360908391285244,5.796348661806012,11093,0,89.03718079795097,10.316472557897876,11.586701718811938,0.00679987926153805,0.0007878817272737657,0.169921875,,
2.6434749999996274,1450,,,,0.03125,0.080078125,-0.8671875,0.008880725437111764,0.07015076779867617,15.359293490126191,5.85035777181771,11127,0,89.85736203958892,10.347999745308327,11.516028859993972,0.0067791621110622645,0.0007806902651757068,0.171875,,
2.6513349999990314,1450,,,,0.375,-0.03125,-1.17578125,0.008880725437111764,0.07115028103211478,15.356835480404541,5.929138909356823,11166,0,91.05281077145794,10.383877351088152,11.404235918813784,0.006851995514436499,0.0007814177336128766,0.173828125,,
2.6583799999998883,1450,,,,0.375,-0.033203125,-1.10546875,0.008880725437111764,0.07115028103211478,15.353882842999166,5.99794680203543,11226,0,92.0917724969935,10.440302385021566,11.336845954791897,0.006814963629232834,0.0007726019285212216,0.177734375,,
2.6673349999999627,1450,,,,0.1875,-0.14453125,-1.0859375,0.008880725437111764,0.07115028103211478,15.352507075390314,6.039767628578565,11258,0,92.72557525146578,10.46962858651369,11.290982620620827,0.006795874413708052,0.0007673209989709938,0.177734375,,
2.674429999999702,1450,,,,0.125,0.00390625,-0.99609375,0.008880725437111764,0.07115028103211478,15.351703504204869,6.072022649297507,11289,0,93.21589138283187,10.498967482547492,11.263066121879246,0.006776883645976463,0.0007632848860491501,0.177734375,,
2.6824550000000746,1450,,,,-0.21875,0.12890625,-0.8828125,0.008880725437111764,0.07115028103211478,15.3506345628733,6.0894267270997355,11283,0,93.47656438510164,10.492665148123237,11.224915268490083,0.006780954126306129,0.000761156355073045,0.1796875,,
2.6894199999999255,1450,,,,-0.125,-0.14453125,-0.66796875,0.009052321320671004,0.07115028103211478,15.349750574478904,6.118751516104624,11300,0,93.92130959942062,10.71219634055765,11.40550146313519,0.00664198813857914,0.0007575520543269095,0.181640625,,
2.696484999999404,1450,,,,-0.46875,0.181640625,-0.857421875,0.009052321320671004,0.07115028103211478,15.348895556226811,6.157262003620084,11288,0,94.5071714058885,10.700352518172048,11.322265135008935,0.006649339908314483,0.0007528558941473259,0.185546875,,
2.714484999999404,1450,,,,-0.0625,0.00390625,-0.921875,0.009052321320671004,0.07115028103211478,15.347040150531999,6.1929518776960855,11280,0,95.04348111731436,10.693340584637284,11.250998447161512,0.00665370007332729,0.0007486076919288378,0.185546875,,
2.7316599999992177,1450,,,,0,-0.0390625,-1.0625,0.009052321320671004,0.07115028103211478,15.34502909567733,6.264502507666828,11293,0,96.12897325009106,10.704986652283578,11.13606677607309,0.006646461442989008,0.0007401543845372069,0.1875,,
2.7385649999994786,1450,,,,0.21875,0.033203125,-1.1796875,0.009052321320671004,0.07115028103211478,15.344300602536547,6.27863657318614,11282,0,96.3412869530481,10.69517183765937,11.101337937152177,0.006652560810812177,0.0007385232570828107,0.19140625,,
2.7476149999992923,1450,,,,0.1875,-0.138671875,-1.126953125,0.009052321320671004,0.07115028103211478,15.343596314723282,6.295815255198927,11276,0,96.60044774784888,10.689376069783343,11.065555407864428,0.006656167821921985,0.0007365419383752201,0.19140625,,
2.755620000000112,1450,,,,0.125,-0.03125,-0.83984375,0.009052321320671004,0.07115028103211478,15.343224971978005,6.317175186632709,11309,0,96.9258400759028,10.720224130775588,11.060233393262891,0.006637014316506384,0.000734069273749878,0.193359375,,
2.7634349999995904,1450,,,,-0.0625,0.109375,-0.91015625,0.009052321320671004,0.07115028103211478,15.34267316266288,6.335628672232343,11287,0,97.20547999805663,10.699244960592335,11.00683311353047,0.006650028230419704,0.0007319575093249603,0.1953125,,
2.771359999999404,1450,,,,0.0625,0.12890625,-0.8671875,0.009052321320671004,0.07115028103211478,15.34195399008396,6.3386028049205985,11271,0,97.24655259450896,10.684215391363903,10.986729201511242,0.006659382877064221,0.0007316483631948542,0.1953125,,
2.779410000000149,1450,,,,-0.21875,0.10546875,-0.794921875,0.009052321320671004,0.07115028103211478,15.341464665148733,6.344320406821533,11273,0,97.33116734563458,10.686208776759228,10.979225943947869,0.006658140648239543,0.0007310123054360547,0.1953125,,
2.788479999999516,1450,,,,0,0.03515625,-0.859375,0.009052321320671004,0.07115028103211478,15.340720586233173,6.352585632008895,11242,0,97.45324118076793,10.657124118587895,10.935628194058507,0.006676311567772417,0.00073009661012851,0.1953125,,
2.7955999999996273,1450,,,,-0.1875,0.130859375,-0.90234375,0.009052321320671004,0.07115028103211478,15.339910565550337,6.369853742327191,11259,0,97.71298672293523,10.67314546769696,10.92295489642602,0.006666289825005778,0.0007281558308504182,0.197265625,,
2.802504999999888,1450,,,,-0.125,-0.02734375,-0.87890625,0.009052321320671004,0.26550802338926494,15.339397831519433,6.39369610674525,11263,0,98.07544819520233,10.677006283459386,10.88652305948033,0.024867272373959814,0.0027071813412549166,0.1953125,,
2.810484999999404,1450,,,,-0.5625,0.125,-0.75390625,0.009052321320671004,0.26550802338926494,15.339100938766364,6.4066706078514155,11276,0,98.27256713526052,10.689025520446522,10.876916958660852,0.024839310457383364,0.002701751171553549,0.19921875,,
2.8175099999997766,1450,,,,-0.1875,-0.0703125,-1.08984375,0.009052321320671004,0.26550802338926494,15.338707792457557,6.410163136371012,11274,0,98.32361925077822,10.687104632628651,10.869315749424128,0.024843775046297017,0.0027003483538586633,0.201171875,,
2.825535000000149,1450,,,,-0.28125,0.138671875,-1.046875,0.009052321320671004,0.26550802338926494,15.337887421421875,6.413956065449306,11269,0,98.37653605780746,10.682801786082097,10.859095282440856,0.024853781686296705,0.0026988958346047948,0.205078125,,
2.8344599999999627,1450,,,,0.0625,0.05078125,-0.95703125,0.037517866070570324,0.26550802338926494,15.337204287061027,6.424837508500788,11271,0,98.53904537904877,44.282574170919105,44.9391142369788,0.005995767598434403,0.0026944448504441962,0.203125,,
2.842444999999367,1450,,,,-0.125,0.12109375,-1.06640625,0.037517866070570324,0.26550802338926494,15.337046832738563,6.435437524129676,11268,0,98.70060669673995,44.271234670923356,44.8540653928783,0.0059973033361919404,0.002690034360224805,0.203125,,
2.850429999999702,1450,,,,0.21875,0.154296875,-1.125,0.037517866070570324,0.26550802338926494,15.33591729107493,6.452984543834044,11269,0,98.96243724482379,44.2761820150145,44.74039165535038,0.005996633207877511,0.0026829171833391997,0.205078125,,
2.857540000000037,1450,,,,0,0.09375,-1.19921875,0.037517866070570324,0.26550802338926494,15.33527300438868,6.46478356533289,11268,0,99.13922088866506,44.26876516540176,44.65312998083402,0.005997637892027145,0.0026781330437066347,0.205078125,,
2.8689799999995156,1450,,,,0.34375,-0.119140625,-1.208984375,0.037517866070570324,0.26550802338926494,15.335217726880773,6.475675119477529,11269,0,99.30588788573257,44.274790432133095,44.58425514817246,0.005996821685610249,0.00267363828109341,0.208984375,,
2.885915000000037,1450,,,,0,-0.060546875,-0.90625,0.037517866070570324,0.26550802338926494,15.334972468892904,6.5335130466136215,11271,0,100.19124269497249,44.28319043606508,44.19866372042431,0.005995684158588315,0.002650012278993201,0.212890625,,
2.8935849999999625,1450,,,,0.0625,0.078125,-1.0859375,0.037517866070570324,0.26550802338926494,15.33510241004919,6.54019570770623,11272,0,100.29457095943918,44.28542893010272,44.155360062323304,0.0059953810949494426,0.002647282109583388,0.2109375,,
2.9015849999999626,1450,,,,-0.0625,0.109375,-0.822265625,0.037517866070570324,0.26550802338926494,15.33478964164223,6.539689427106344,11268,0,100.28476168634758,44.2716929112583,44.145982068266,0.005997241260266923,0.002647541051348086,0.2109375,,
2.9086849999995903,1450,,,,-0.1875,0.09375,-0.69140625,0.037517866070570324,0.26550802338926494,15.334232891766534,6.536281844594718,11272,0,100.22886805124077,44.28486900266857,44.183746523036135,0.005995456899133327,0.0026490174792109518,0.212890625,,
2.9165999999996273,1450,,,,-0.0625,0.0546875,-0.83203125,0.037517866070570324,0.26550802338926494,15.333539576655056,6.536599056675175,11268,0,100.22920033225489,44.27220357819653,44.17096358290433,0.005997172083840527,0.0026490086971573037,0.212890625,,
2.923709999999963,1450,,,,-0.15625,0.2734375,-0.8828125,0.037517866070570324,0.26550802338926494,15.333297967627455,6.555742409828836,11272,0,100.5211517689176,44.2851055845303,44.05550951737484,0.005995424869936685,0.002641314974182014,0.21484375,,
2.932629999998957,1450,,,,-0.0625,-0.0234375,-0.9140625,0.037517866070570324,0.26550802338926494,15.332156131295275,6.58224698457786,11276,0,100.92003846229527,44.30049096209334,43.89662512727286,0.00599334268363871,0.0026308751704297198,0.212890625,,
2.9485949999997394,1450,,,,0.0625,-0.12109375,-1.0234375,0.037517866070570324,0.35226230755009,15.331186797958305,6.615942149653174,11322,0,101.43024494081862,44.48146001017473,43.854237004089136,0.007919306323792277,0.0034729513643156837,0.216796875,,
2.9556599999992175,1450,,,,0.1875,-0.0546875,-1.2578125,0.037517866070570324,0.35226230755009,15.331050025715683,6.611407379333158,11344,0,101.35981727294246,44.57026159114686,43.97231841009315,0.007903527934869942,0.0034753644691516705,0.216796875,,
2.9636699999999254,1450,,,,0.09375,0.177734375,-0.939453125,0.037517866070570324,0.35226230755009,15.331194201129307,6.616647176305849,11326,0,101.44110282029884,44.498353200908284,43.86619621016577,0.007916299867539812,0.0034725796324801064,0.21875,,
2.971589999999851,1450,,,,0.1875,0.0703125,-0.79296875,0.037517866070570324,0.35226230755009,15.331037933184387,6.614254992284869,11301,0,101.40339418647353,44.39885250442789,43.78438499088266,0.007934040806909569,0.0034738709722310183,0.21875,,
2.9889999999990686,1450,,,,-0.125,0.09765625,-0.7734375,0.037517866070570324,0.35226230755009,15.330751582615067,6.607518912204756,11274,0,101.29823102044205,44.29334390702618,43.72568351967346,0.007952940023889486,0.00347747738535536,0.220703125,,
2.996709999999031,1450,,,,-0.14453125,0.076171875,-0.87890625,0.05063062143454973,0.35226230755009,15.33044462845086,6.617376268612429,11292,0,101.4473204715876,59.87192606624502,59.01775008736024,0.0058835973835271475,0.0034723667999565183,0.220703125,,
3.0037199999997393,1450,,,,-0.3125,-0.091796875,-0.994140625,0.05063062143454973,0.35226230755009,15.330339351996171,6.629589723402052,11280,0,101.63386022425989,59.80625615164231,58.84481413937933,0.005890057833697332,0.0034659935849411473,0.22265625,,
3.0116899999994784,1450,,,,-0.34375,0.044921875,-0.951171875,0.05063062143454973,0.35226230755009,15.330420433991039,6.616290160965763,11279,0,101.43050988088339,59.80083920670015,58.95744710041215,0.005890591373350195,0.003472942292844383,0.22265625,,
3.022379999998957,1450,,,,-0.1875,-0.12890625,-1.1484375,0.05063062143454973,0.35226230755009,15.330169442312954,6.598583024444755,11275,0,101.15739584390798,59.77958383870346,59.09561366224473,0.005892685845732213,0.0034823188617236866,0.224609375,,
3.038854999999516,1450,,,,0.125,-0.20703125,-1.03515625,0.05063062143454973,0.35226230755009,15.329033808749479,6.604816092806827,11269,0,101.24544918720848,59.749573370484306,59.014576803352426,0.0058956455699833345,0.0034792902829512604,0.2265625,,
3.0469500000001863,1450,,,,0.125,0.03125,-1.044921875,0.05063062143454973,0.35226230755009,15.3291791380388,6.608315512357912,11271,0,101.30005228961508,59.75942178434246,58.99248858578208,0.005894673961560755,0.003477414863942797,0.228515625,,
3.0547099999990315,1450,,,,0.3125,-0.0234375,-1.203125,0.05063062143454973,0.35226230755009,15.329316927367612,6.616619328540843,11268,0,101.42825467494886,59.74431143376082,58.90302620825506,0.005896164824673679,0.003473019511959453,0.23046875,,
3.0616949999993666,1450,,,,0.4375,-0.109375,-1.0703125,0.05063062143454973,0.35226230755009,15.329432310233418,6.624221459781914,11267,0,101.54555447572245,59.738739779849325,58.82949784289344,0.005896714742364096,0.0034690076721606657,0.232421875,,
3.0686849999995904,1450,,,,0.1875,0.01953125,-1.13671875,0.05063062143454973,0.35226230755009,15.329543041240601,6.637271033212204,11270,0,101.74633198000595,59.754019456609214,58.728426169064655,0.005895206895761844,0.003462162229291103,0.232421875,,
3.075769999999553,1450,,,,0.1875,-0.1015625,-1.28125,0.05063062143454973,0.35226230755009,15.329476653676169,6.655753909027224,11268,0,102.02922416104673,59.7429758472142,58.55476834060177,0.005896296636628219,0.0034525628362523475,0.234375,,
3.0837249999996277,1450,,,,0.0625,-0.109375,-0.951171875,0.05063062143454973,0.35226230755009,15.329699330711462,6.663172228425198,11274,0,102.14442685050496,59.77592526844068,58.520985541312655,0.005893046506066725,0.0034486688937581385,0.234375,,
3.0907499999990686,1450,,,,0,-0.037109375,-0.818359375,0.05063062143454973,0.35226230755009,15.329883217312492,6.654546678723598,11270,0,102.01342344898747,59.75264936021703,58.57332039258222,0.005895342069712883,0.0034530975987316147,0.234375,,
3.097864999999292,1450,,,,-0.1875,-0.05859375,-0.8984375,0.05063062143454973,0.3893777813780449,15.329630653454306,6.651703442271227,11265,0,101.96815698632852,59.724743298800774,58.57195526914194,0.006519538802033885,0.0038186213508816396,0.234375,,
3.104870000000112,1450,,,,-0.03125,0.044921875,-0.763671875,0.05063062143454973,0.3893777813780449,15.329380986043304,6.6589991832672215,11245,0,102.07833546605444,59.62301002584448,58.40907353516924,0.0065306629304569385,0.003814499713384631,0.232421875,,
3.1126299999998883,1450,,,,-0.1875,0.0234375,-0.7421875,0.05063062143454973,0.3893777813780449,15.329237773179983,6.675450155582236,11260,0,102.3295626779314,59.70266437522828,58.34351561057133,0.006521949823391882,0.003805134813324272,0.234375,,
3.1207199999997393,1450,,,,0,0.1328125,-0.890625,0.05063062143454973,0.3893777813780449,15.329308193914347,6.67228723539319,11264,0,102.28154738966293,59.721924026208626,58.38973456148984,0.006519846567688755,0.00380692110468987,0.232421875,,
3.128734999999404,1450,,,,-0.15625,0,-0.833984375,0.05063062143454973,0.3893777813780449,15.328950021974999,6.655240307736798,11265,0,102.01784606153089,59.729565212441834,58.548153600906886,0.006519012485577853,0.003816761443318419,0.232421875,,
3.135789999999106,1450,,,,-0.21875,0.0703125,-0.99609375,0.05520723489042356,0.3893777813780449,15.32851432596027,6.6412080850203115,11266,0,101.79985327291702,65.13183873161799,63.98028743421161,0.005978301687175047,0.0038249346031389176,0.232421875,,
3.1446499999994413,1450,,,,-0.3125,0.015625,-0.875,0.05520723489042356,0.3893777813780449,15.32822546777238,6.632326068307207,11270,0,101.66178935079719,65.15395011676289,64.08892715033839,0.005976272822756533,0.0038301291356819065,0.232421875,,
3.1536550000002608,1450,,,,-0.34375,0.111328125,-1.00390625,0.05520723489042356,0.3893777813780449,15.328067305991965,6.617991931483185,11268,0,101.44102575628602,65.14113931457663,64.21577347914388,0.005977448129939506,0.003838464550955275,0.236328125,,
3.1608549999995157,1450,,,,-0.25,0.12109375,-0.865234375,0.05520723489042356,0.3893777813780449,15.32767097145404,6.611894526180602,11269,0,101.34494379525428,65.1506273698913,64.28601657869993,0.00597657761862155,0.003842103678745919,0.236328125,,
3.167824999999255,1450,,,,-0.0625,-0.17578125,-0.7890625,0.05520723489042356,0.3893777813780449,15.327254937979646,6.6037399296522175,11268,0,101.2172054458953,65.14123043690866,64.35786302332687,0.005977439768430067,0.00384695249846809,0.23828125,,
3.178464999999851,1450,,,,-0.15625,0.029296875,-1.052734375,0.05520723489042356,0.3893777813780449,15.327096295912717,6.602673237652729,11260,0,101.19980852394917,65.09553597380624,64.32377385220173,0.00598163569211146,0.0038476138152563574,0.23828125,,
3.197679999998771,1450,,,,0.0625,0.046875,-1.15625,0.05520723489042356,0.3893777813780449,15.325843413082055,6.601766072850728,11243,0,101.1776330823079,64.99989624035688,64.24334535230679,0.005990436968363799,0.0038484571096982123,0.23828125,,
3.2058499999996273,1450,,,,0.3125,-0.00390625,-1.13671875,0.05520723489042356,0.3893777813780449,15.325651260220786,6.61231158986525,11261,0,101.33798145019088,65.10131937227229,64.2417763218133,0.005981104302225359,0.003842367647409968,0.240234375,,
3.213019999999553,1450,,,,0.25,-0.060546875,-1.162109375,0.05520723489042356,0.3893777813780449,15.325144442674727,6.638193907512258,11298,0,101.7312804711087,65.31551854149795,64.2039677855498,0.005961489552144569,0.003827512831597816,0.2421875,,
3.220804999999702,1450,,,,-0.0625,0.15625,-0.859375,0.05520723489042356,0.3893777813780449,15.324243237545412,6.661219740311142,11286,0,102.07815155926703,65.2472815772551,63.918948943126416,0.005967724201919551,0.0038145065856915565,0.2421875,,
3.2277599999997766,1450,,,,-0.125,0.35546875,-0.9296875,0.05520723489042356,0.3893777813780449,15.32423281752509,6.6456648774321065,11312,0,101.83971580901894,65.39736071784459,64.21596937729572,0.0059540289868578395,0.003823437430915941,0.244140625,,
3.2348449999997393,1450,,,,-0.09375,0.05078125,-0.841796875,0.05520723489042356,0.3893777813780449,15.324481492793561,6.652036037125906,11290,0,101.93900314033176,65.26820449387655,64.02672429906609,0.005965811138784678,0.0038197134500326415,0.244140625,,
3.241889999999665,1450,,,,-0.4375,0,-0.62890625,0.05520723489042356,0.3893777813780449,15.32446083666047,6.643299305122257,11301,0,101.80498002755975,65.33504275437207,64.17666673740827,0.005959708067260561,0.003824741984848246,0.24609375,,
3.2579550000000745,1450,,,,-0.375,0.0234375,-0.9140625,0.05520723489042356,0.4058730110976668,15.325184824070536,6.668941791775644,11280,0,102.20276553992987,65.21561632452254,63.810030951699915,0.006223555552675953,0.0039712527244587644,0.24609375,,
3.2649199999999254,1450,,,,-0.125,-0.041015625,-1.017578125,0.05520723489042356,0.4058730110976668,15.325391877124542,6.662818654158664,11273,0,102.11030688119706,65.1696520134351,63.822795175083016,0.006227945041259293,0.003974848607299658,0.24609375,,
3.2728099999995903,1450,,,,-0.25,0.056640625,-1.15234375,0.05520723489042356,0.4058730110976668,15.325714020890649,6.645067686424631,11274,0,101.84040701160535,65.1756833989493,63.997862254735615,0.006227368704571342,0.003985382845646081,0.248046875,,
3.2808749999990687,1450,,,,0.1875,-0.25390625,-1.14453125,0.05520723489042356,0.4058730110976668,15.325236793481793,6.635511206833522,11269,0,101.69078049052587,65.15038819589724,64.06715326761314,0.006229786534460376,0.003991246887277853,0.25,,
3.2879150000000372,1450,,,,-0.0625,0.19921875,-1.09765625,0.05733829320155785,0.4058730110976668,15.325095907989072,6.632044161978245,11271,0,101.6367128483356,67.67575349075025,66.58593297063572,0.005997317948637846,0.003993370109315901,0.25,,
3.2949049999993294,1450,,,,0.0625,0.017578125,-1.138671875,0.05733829320155785,0.4058730110976668,15.32453683298333,6.620304345306586,11268,0,101.45309778521037,67.66029117353621,66.69120278296677,0.005998688507808474,0.004000597517061073,0.25,,
3.301844999999739,1450,,,,0.3125,0.28515625,-0.9921875,0.05733829320155785,0.4058730110976668,15.324513817098877,6.62130828847213,11267,0,101.46833035396247,67.65348129844713,66.67447967503209,0.0059992923247688505,0.003999996941723768,0.25,,
3.309789999999106,1450,,,,0.125,-0.0625,-1.107421875,0.05733829320155785,0.4058730110976668,15.324143225733698,6.62242500683284,11270,0,101.4829893063869,67.67065412151415,66.68177059429136,0.005997769880705645,0.00399941915262564,0.251953125,,
3.317844999999739,1450,,,,0.3125,0.19921875,-1.28125,0.05733829320155785,0.4058730110976668,15.324208018906006,6.615554698187763,11248,0,101.37813635548022,67.53596591735486,66.6178806843928,0.006009731342176136,0.004003555654983457,0.25390625,,
3.324995000000112,1450,,,,0.1875,-0.07421875,-1.03515625,0.05733829320155785,0.4058730110976668,15.324372570191379,6.612961204199982,11258,0,101.33948128538195,67.59948390059544,66.70596991732043,0.006004084464527868,0.004005082776718468,0.25390625,,
3.3347249999996276,1450,,,,0.375,-0.265625,-1.14453125,0.05733829320155785,0.4058730110976668,15.324356620127531,6.632182968746351,11263,0,101.63393698300521,67.6268725960217,66.53965653945883,0.006001652827008641,0.003993479177782271,0.255859375,,
3.3435949999988077,1450,,,,0.0625,-0.076171875,-1.025390625,0.05733829320155785,0.4058730110976668,15.324605914542692,6.647961747621019,11265,0,101.87739391724664,67.64194590784314,66.39544191990973,0.006000315420414384,0.00398393593997262,0.2578125,,
3.351569999999367,1450,,,,0.21875,-0.083984375,-1.046875,0.05733829320155785,0.4058730110976668,15.324892549228373,6.6515591189598835,11247,0,101.93442878290035,67.53392830023434,66.25232427021089,0.006009912666316177,0.003981706828044271,0.2578125,,
3.3599399999994786,1450,,,,-0.09375,0.126953125,-0.919921875,0.05733829320155785,0.4058730110976668,15.324179715572539,6.656884412492172,11260,0,102.01129308282356,67.60743631692658,66.27446263428473,0.006003378225954859,0.0039787066591552385,0.2578125,,
3.3670649999994784,1450,,,,-0.03125,0.1328125,-0.861328125,0.05733829320155785,0.4058730110976668,15.323914255382178,6.647367732778091,11257,0,101.86369316108569,67.59042174833695,66.35379068914229,0.006004889459173307,0.003984471782854225,0.255859375,,
3.375234999999404,1450,,,,-0.1875,0.109375,-0.76953125,0.05733829320155785,0.4058730110976668,15.323780859841975,6.653681675686359,11241,0,101.9595599093639,67.49473929162981,66.1975584747803,0.006013402160781442,0.003980725411706997,0.255859375,,
3.3829449999993666,1450,,,,0.03125,0.16015625,-0.83984375,0.05733829320155785,0.4058730110976668,15.323883332366773,6.65893584408383,11256,0,102.04075599245587,67.584686754827,66.23303218159586,0.006005399012501582,0.003977557860583412,0.255859375,,
3.4028499999996273,1450,,,,-0.01953125,0.0625,-0.884765625,0.05733829320155785,0.4115675490416689,15.32390062836442,6.6523291302919665,11236,0,101.939630539768,67.46611228289078,66.1824178934721,0.006100359648943954,0.004037365515868836,0.251953125,,
3.410394999999553,1450,,,,-0.25,0.25390625,-0.8203125,0.05733829320155785,0.4115675490416689,15.323847597123525,6.6494392868635455,11253,0,101.89499423822271,67.56856425291299,66.31195649802272,0.006091109876201426,0.004039134131353455,0.251953125,,
3.4200099999997766,1450,,,,-0.125,0.0625,-0.95703125,0.05733829320155785,0.4115675490416689,15.323938589028879,6.6652924015861235,11238,0,102.13853143982656,67.47944438278031,66.06658959311046,0.0060991543840674305,0.004029503295572034,0.25390625,,
3.426979999999516,1450,,,,-0.34375,0.16796875,-0.767578125,0.05733829320155785,0.4115675490416689,15.324458242816178,6.661835600338998,11252,0,102.08902147790121,67.56112706677004,66.1786410416273,0.006091780390740381,0.0040314574778323176,0.2578125,,
3.434875,1450,,,,-0.1875,0.16796875,-0.84375,0.05820108277603349,0.4115675490416689,15.324007094713762,6.657124422959346,11260,0,102.01382188782128,68.62760580171653,67.27285041548816,0.005997113613882982,0.0040344292707143745,0.2578125,,
3.4420299999993293,1450,,,,-0.34375,0.1171875,-0.734375,0.05820108277603349,0.4115675490416689,15.323909224982565,6.644236744669495,11235,0,101.815680744609,68.4778812037733,67.25671399825032,0.006010226102308063,0.004042280580277522,0.259765625,,
3.4500999999996274,1450,,,,-0.25,0.08984375,-1.08984375,0.05820108277603349,0.4115675490416689,15.32352256055329,6.654178639951712,11254,0,101.96545651125186,68.59166560665503,67.26951259134113,0.006000255940741247,0.004036342925569627,0.259765625,,
3.4569899999992924,1450,,,,-0.25,0.146484375,-0.86328125,0.05820108277603349,0.4115675490416689,15.323802983270289,6.6497762225877315,11258,0,101.89986071776971,68.61334655882244,67.3340925841495,0.005998359935538646,0.0040389412325261215,0.259765625,,
3.464944999999367,1450,,,,-0.125,-0.009765625,-0.953125,0.05820108277603349,0.4115675490416689,15.323464274000704,6.655161656432472,11245,0,101.98013188004232,68.53517838868264,67.2044418115673,0.00600520139755895,0.004035762078889931,0.259765625,,
3.472949999999255,1450,,,,-0.4375,0.0703125,-0.9375,0.05820108277603349,0.4115675490416689,15.323058700756807,6.6545390849818045,11259,0,101.96789302565668,68.61873332850688,67.29445052987548,0.005997889046877638,0.0040362464774878915,0.259765625,,
3.4799349999995903,1450,,,,-0.125,0.2890625,-0.9765625,0.05820108277603349,0.4115675490416689,15.323185339849665,6.662767364644598,11263,0,102.09481920475089,68.64541009887823,67.23691822325483,0.005995558165488978,0.004031228540757502,0.259765625,,
3.4896650000000373,1450,,,,-0.3125,-0.03515625,-0.91015625,0.05820108277603349,0.4115675490416689,15.3233925216739,6.672450758864873,11265,0,102.24458205962733,68.65705814097224,67.1498252112103,0.005994540986545113,0.004025323794679405,0.26171875,,
3.506089999999851,1450,,,,-0.25,0.06640625,-0.970703125,0.05820108277603349,0.4115675490416689,15.321946793462994,6.72778473519549,11263,0,103.08275975053782,68.64849404439349,66.59551433287595,0.005995288822731015,0.0039925934272391425,0.26171875,,
3.513035000000149,1450,,,,0.125,0.01953125,-1.1015625,0.05820108277603349,0.4115675490416689,15.32039061092081,6.767550182477575,11295,0,103.68151227456487,68.84377537199119,66.39927780922224,0.005978282667064676,0.003969536516324855,0.26171875,,
3.5200849999999626,1450,,,,0.03125,0.076171875,-1.0859375,0.05820108277603349,0.4115675490416689,15.319944225271353,6.793835849644635,11353,0,104.08118629220482,69.1958248215188,66.48254817854745,0.005947866798368996,0.0039542934098214955,0.259765625,,
3.528144999999553,1450,,,,0.0625,0.03125,-0.99609375,0.05820108277603349,0.4115675490416689,15.320244481961092,6.779291036339182,11376,0,103.86039609108364,69.33260602294497,66.7555763624679,0.005936132689220776,0.0039626995903301945,0.259765625,,
3.5350949999988077,1450,,,,-0.3125,0.072265625,-0.9921875,0.05820108277603349,0.4115675490416689,15.320659825983368,6.763552382349075,11358,0,103.62208526518957,69.2246657736252,66.80493409919853,0.005945388748969263,0.0039718130356900805,0.259765625,,
3.5421399999996646,1450,,,,-0.25,0.0078125,-1,0.05820108277603349,0.4115675490416689,15.320631506257474,6.75737359070957,11343,0,103.52723073337724,69.13599834395248,66.78049615951235,0.005953013754052051,0.003975452121399972,0.259765625,,
3.5500299999993294,1450,,,,-0.0625,0.009765625,-1.00390625,0.05820108277603349,0.41645217434794957,15.321184332485279,6.74630655989936,11333,0,103.36140636767274,69.07226688846477,66.82597433200925,0.006029224073685326,0.004029087731900278,0.2578125,,
3.556969999999739,1450,,,,0,-0.03125,-1.3125,0.05820108277603349,0.41645217434794957,15.321477807121918,6.734609998664953,11302,0,103.18417763416645,68.88422563297095,66.75851590075757,0.006045682745522767,0.004036008076979174,0.259765625,,
3.5640099999997763,1450,,,,0.1875,0.10546875,-0.92578125,0.05820108277603349,0.41645217434794957,15.321933373257986,6.736594803574468,11300,0,103.21765674300396,68.8712457708131,66.72428724311372,0.0060468221488805644,0.004034698979699289,0.259765625,,
3.5710300000002606,1450,,,,0.1875,0.00390625,-1.0625,0.05820108277603349,0.41645217434794957,15.321676857189367,6.727659563977804,11284,0,103.07902584444743,68.7758328154944,66.7214617639881,0.006055210926564422,0.004040125243096509,0.259765625,,
3.5780399999991057,1450,,,,0.21875,0.158203125,-1.0078125,0.05820108277603349,0.41645217434794957,15.32134893453149,6.720173720657854,11274,0,102.96212647486774,68.71431016119087,66.73746212687584,0.006060632397691703,0.0040447122510586676,0.259765625,,
3.586054999999702,1450,,,,0.125,-0.00390625,-0.828125,0.0586243066448458,0.41645217434794957,15.32108665344261,6.711634161885897,11269,0,102.82952858045948,69.18458965476871,67.28085853338798,0.0060194354902738745,0.004049927876719715,0.259765625,,
3.5930899999989196,1450,,,,0.1875,0.078125,-0.970703125,0.0586243066448458,0.41645217434794957,15.320952872748078,6.703608861249008,11215,0,102.70567544053246,68.84735573723775,67.03364292375548,0.006048920396265871,0.004054811699175078,0.259765625,,
3.6000249999994414,1450,,,,0,-0.1015625,-0.84765625,0.0586243066448458,0.41645217434794957,15.320513093708017,6.7007715584320895,11244,0,102.65925839890511,69.02575801374564,67.23773295296066,0.006033286505379892,0.004056645068774344,0.259765625,,
3.6070449999999257,1450,,,,-0.125,0.18359375,-0.9453125,0.0586243066448458,0.41645217434794957,15.320318156869352,6.693383976152359,11260,0,102.54477206074536,69.12511761044257,67.40969453761554,0.006024614333314886,0.004061174119156968,0.2578125,,
3.6141899999994784,1450,,,,0.03125,-0.072265625,-0.87109375,0.0586243066448458,0.41645217434794957,15.320304391990009,6.685015084454968,11260,0,102.4164659588949,69.12736896609623,67.49634281839081,0.006024418122324315,0.004066261908657282,0.2578125,,
3.623024999999441,1450,,,,-0.1875,0.14453125,-0.814453125,0.0586243066448458,0.41645217434794957,15.319995636031724,6.681556562480826,11264,0,102.36141737910538,69.15039662309262,67.55513785725286,0.0060224119410021764,0.004068448689075678,0.259765625,,
3.63193499999959,1450,,,,-0.125,0.15234375,-0.65234375,0.0586243066448458,0.41645217434794957,15.32028761304006,6.698943969545061,11235,0,102.62974831707061,68.97540797050108,67.20800654933329,0.006037690629188521,0.004057811513493503,0.26171875,,
3.642944999999367,1450,,,,-0.3125,0.185546875,-0.751953125,0.0586243066448458,0.41645217434794957,15.320345214785096,6.7086919561288365,11260,0,102.77947670754568,69.12861748506958,67.25916466939398,0.006024309316440402,0.004051900123338293,0.26171875,,
3.6517249999996273,1450,,,,-0.1875,-0.005859375,-0.828125,0.0586243066448458,0.41645217434794957,15.320766907829361,6.723890865025057,11263,0,103.01516465673203,69.14196734148375,67.11824183544158,0.006023146149300946,0.004042629798589896,0.26171875,,
3.659165000000037,1450,,,,-0.1875,0.154296875,-0.9453125,0.0586243066448458,0.41645217434794957,15.321122506576758,6.721229010956751,11261,0,102.97677307162613,69.13425640227656,67.1357766806208,0.006023817945255805,0.004044136963374097,0.263671875,,
3.6678899999996646,1450,,,,-0.25,-0.00390625,-0.87109375,0.0586243066448458,0.41645217434794957,15.320759445716828,6.715281788611624,11239,0,102.88321689352173,68.9977878024284,67.06418197813272,0.0060357322692785285,0.004047814472781832,0.263671875,,
3.6751299999998883,1450,,,,-0.40625,0.12109375,-0.94921875,0.0586243066448458,0.41645217434794957,15.320786484733153,6.71109548459642,11251,0,102.81926099815853,69.06852972933031,67.17469962225007,0.006029550302865373,0.0040503323045222835,0.265625,,
3.6822900000000374,1450,,,,-0.0625,-0.10546875,-0.78125,0.0586243066448458,0.41645217434794957,15.320322484237362,6.711837420918095,11240,0,102.8275137502372,69.00101408476584,67.10364917736491,0.006035450056376701,0.004050007232106094,0.265625,,
3.6890649999994785,1450,,,,-0.53125,0.125,-0.845703125,0.0586243066448458,0.41645217434794957,15.320136950921672,6.710868891428132,11248,0,102.81143047635888,69.052608258817,67.16432982098756,0.006030940537206641,0.004050640793717108,0.26953125,,
3.696075000000186,1450,,,,0.0625,-0.16796875,-0.64453125,0.0586243066448458,0.4171454997667515,15.320475517814243,6.71638599811206,11232,0,102.8982272522662,68.95405374197269,67.01189668984708,0.0060496153181612425,0.0040539619671393756,0.271484375,,
3.7041049999995157,1450,,,,-0.5,0.166015625,-0.8671875,0.0586243066448458,0.4171454997667515,15.320354150224398,6.740919014044245,11260,0,103.2732665931393,69.126123665213,66.9351575152027,0.006034556512774282,0.004039239907169389,0.2734375,,
3.711144999999553,1450,,,,-0.03125,-0.0703125,-0.974609375,0.0586243066448458,0.4171454997667515,15.319561205198077,6.763439486351147,11266,0,103.61292516880984,69.16199675833234,66.75035633406851,0.006031426496032962,0.004025998678129426,0.2734375,,
3.7180899999989196,1450,,,,-0.3125,0.0703125,-1.07421875,0.0586243066448458,0.4171454997667515,15.31889503630574,6.76737195646932,11300,0,103.66866067279254,69.36952893158077,66.91465721789396,0.006013382333591778,0.0040238341757243305,0.2734375,,
3.7260999999996276,1450,,,,-0.0625,-0.16796875,-1.16015625,0.0586243066448458,0.4171454997667515,15.318753360667207,6.752819241650136,11287,0,103.4447724520062,69.29010168752717,66.98270008730958,0.006020275473803229,0.004032543065047473,0.2734375,,
3.733139999999665,1450,,,,0.3125,0.041015625,-1.01953125,0.058795106088766425,0.4171454997667515,15.3188074340967,6.74865333522419,11309,0,103.3813208817738,69.62929212675422,67.3519079973662,0.005990948450364446,0.004035018088459097,0.275390625,,
3.7401549999993295,1450,,,,0.125,-0.12109375,-1.375,0.058795106088766425,0.4171454997667515,15.319202687305102,6.74148737310756,11292,0,103.27421148254275,69.52274375421652,67.31859072675515,0.006000129989712206,0.004039202950847655,0.275390625,,
3.7471399999996646,1450,,,,0.1875,0.0078125,-0.982421875,0.058795106088766425,0.4171454997667515,15.319150870700753,6.726595538417974,11277,0,103.04573189920751,69.43492283390583,67.38262861951668,0.0060077189221423724,0.004048158929811625,0.27734375,,
3.7550599999995904,1450,,,,-0.0625,0.30859375,-1.14453125,0.058795106088766425,0.4171454997667515,15.31884151671122,6.720756225695393,11274,0,102.954199493878,69.41715029527634,67.42527321520684,0.006009257049480713,0.004051757983816449,0.27734375,,
3.7621549999993293,1450,,,,0,0.103515625,-0.80859375,0.058795106088766425,0.4171454997667515,15.318508249747797,6.710025413974645,11270,0,102.78757965998797,69.38684264244638,67.50508463373862,0.006011881847922115,0.004058325929520192,0.27734375,,
3.7710499999988825,1450,,,,-0.125,-0.03515625,-0.69921875,0.058795106088766425,0.4171454997667515,15.318318934045104,6.704938941215408,11268,0,102.70839313483631,69.37475689271372,67.5453629204753,0.00601292917554805,0.004061454833775073,0.27734375,,
3.779324999999255,1450,,,,0,0.10546875,-0.841796875,0.058795106088766425,0.4171454997667515,15.318105240987508,6.699173191295537,11248,0,102.61863997186717,69.25267951479606,67.48547781746244,0.006023528658954302,0.004065007096967097,0.275390625,,
3.787219999998808,1450,,,,-0.125,0.037109375,-0.8515625,0.058795106088766425,0.4171454997667515,15.317918284027517,6.677030135522445,11252,0,102.27820199592199,69.27910408786242,67.73594249400738,0.006021231152725526,0.00407853767104142,0.275390625,,
3.7969199999999255,1450,,,,0.1875,-0.07421875,-0.80859375,0.058795106088766425,0.4171454997667515,15.318008059889236,6.677137071657015,11267,0,102.28043948062736,69.36981099364796,67.82314521320285,0.006013357882796432,0.004078448449038604,0.275390625,,
3.8172249999996275,1450,,,,-0.14453125,0.0546875,-0.91015625,0.058795106088766425,0.4171454997667515,15.318425395323494,6.671222530084949,11245,0,102.19262462270753,69.23502555938813,67.74953262527704,0.006025064573839641,0.004081953089147497,0.27734375,,
3.8358650000002235,1450,,,,-0.40625,0.21875,-0.763671875,0.058795106088766425,0.4171454997667515,15.318021412075016,6.667488880586519,11250,0,102.13273743759638,69.26750147345369,67.82105641276529,0.0060222397357095345,0.004084346608467531,0.28125,,
3.844519999999553,1450,,,,0,0.1484375,-0.9140625,0.058795106088766425,0.4171454997667515,15.317702081066711,6.656099292590594,11227,0,101.9561459859016,69.12524389325121,67.7989965438766,0.006034633315882999,0.00409142083327114,0.279296875,,
3.853004999999888,1450,,,,-0.375,0.13671875,-0.875,0.058795106088766425,0.4181263887966781,15.317622166666123,6.65948891425089,11254,0,102.00753501159674,69.28978066747098,67.92613963232594,0.006034459696204135,0.004098975519300053,0.28125,,
3.861554999999702,1450,,,,-0.09375,-0.025390625,-0.828125,0.058795106088766425,0.4181263887966781,15.317987351533153,6.665666630424986,11236,0,102.10459713438655,69.18254679834948,67.75654450435155,0.006043813189118581,0.0040950789732450005,0.283203125,,
3.871375,1450,,,,-0.4375,0.138671875,-0.892578125,0.058795106088766425,0.4181263887966781,15.317988074810735,6.6753445576780965,11253,0,102.25284832976583,69.28420656769632,67.75772773023837,0.0060349451846307064,0.004089141726871206,0.28515625,,
3.878785000000149,1450,,,,0.0625,-0.08203125,-1.1015625,0.058795106088766425,0.4181263887966781,15.318091637993788,6.672458508055962,11256,0,102.20933087711255,69.30541775387562,67.80732948658309,0.006033098166748964,0.004090882752176474,0.28515625,,
3.8872199999997394,1450,,,,-0.5,0.078125,-0.84375,0.058849610202777146,0.4181263887966781,15.318552143667903,6.6789885968547384,11231,0,102.31243508788263,69.21417061891243,67.64981261511369,0.006041051782572788,0.004086760210892477,0.287109375,,
3.894625,1450,,,,-0.09375,-0.05078125,-0.791015625,0.058849610202777146,0.4181263887966781,15.318220657741907,6.672921416841814,11250,0,102.21728269495468,69.33284581002252,67.82888762258665,0.0060307114746505205,0.00409056450898314,0.2890625,,
3.903799999999814,1450,,,,-0.625,0.14453125,-0.859375,0.058849610202777146,0.4181263887966781,15.318446682727412,6.677280347825314,11231,0,102.28556299378562,69.21491118461692,67.66830934764674,0.00604098714627271,0.004087833869791394,0.291015625,,
3.9131349999997767,1450,,,,-0.1875,-0.021484375,-0.919921875,0.058849610202777146,0.4181263887966781,15.318460406596119,6.658317761944411,11207,0,101.99517701088114,69.06715824294412,67.71610214037457,0.006053910417537611,0.004099472161826546,0.291015625,,
3.9215649999994784,1450,,,,-0.40625,0.177734375,-0.939453125,0.058849610202777146,0.4181263887966781,15.318935993337329,6.671382105955888,11241,0,102.19847546823424,69.27466884237707,67.78444445965273,0.006035776074917872,0.004091317281211713,0.291015625,,
3.9306699999999255,1450,,,,-0.15625,-0.0546875,-0.98046875,0.058849610202777146,0.4181263887966781,15.31850709167495,6.669608671891204,11224,0,102.16844773906216,69.1693798527061,67.70131227731329,0.0060449636773824535,0.004092519736274856,0.29296875,,0.06002499999990687,115487,
3.9575349999992175,1450,,,,-0.28125,0.060546875,-0.849609375,0.058849610202777146,0.4181263887966781,15.318641753708146,6.670987368634006,11238,0,102.19046564361652,69.25559331135257,67.77109084997963,0.0060374385490700525,0.004091637964101957,0.29296875,,
3.9830049999998884,1540,,,,-0.3125,0.119140625,-0.880859375,0.058849610202777146,0.4181263887966781,15.31798051003427,6.69079160428826,11223,0,102.48941539118849,69.16521433318277,67.48522671262036,0.0060453277392083105,0.004079703130325655,0.29296875,,
4.0135,1540,,,,-0.203125,-0.009765625,-1.05859375,0.058849610202777146,0.4181570147763837,15.303701053404685,7.085140870120874,11449,0,108.42887779758941,70.55461165467712,65.06994546820412,0.00592671414340729,0.0038565096611714645,0.298828125,,
4.0223149999994785,1540,,,,-0.09375,0.181640625,-1.078125,0.058849610202777146,0.4181570147763837,15.293601666071059,7.40066239465625,11884,0,113.18278272894426,73.23774288602127,64.70749447945157,0.005709583587620318,0.0036945284847590895,0.302734375,,
4.030404999999329,1540,,,,0.125,0.3359375,-1.0390625,0.058849610202777146,0.4181570147763837,15.28455835455849,7.692219092371207,12304,0,117.57217159339666,75.82772587852291,64.49462049638768,0.005514566208226752,0.0035565985480178804,0.3046875,,
4.0384049999993294,1540,,,,0.125,-0.15234375,-0.7421875,0.0596852685682418,0.4181570147763837,15.277434291207557,7.92529590105744,12578,0,121.07818736678163,78.61617326847811,64.93008772119,0.005318969334062558,0.0034536114544700147,0.3046875,,
4.046349999999627,1540,,,,-0.1875,0.4453125,-1.05859375,0.0596852685682418,0.4181570147763837,15.27218441299312,8.085940908173493,12765,0,123.48998070219065,79.78241786706883,64.60638945233354,0.00524121762608279,0.003386161471551398,0.306640625,,
4.054334999999963,1540,,,,-0.0625,0.158203125,-0.970703125,0.0596852685682418,0.4181570147763837,15.266190255994859,8.27605038863222,12857,0,126.34375980105965,80.35828860402704,63.6028947773589,0.0052036575447355704,0.0033096768327522622,0.306640625,,
4.063365000000224,1540,,,,-0.09375,0.2265625,-1.052734375,0.0596852685682418,0.4181570147763837,15.261630694019216,8.409226609113414,12908,0,128.3385109306084,80.67604512796922,62.86191459053947,0.005183162041633282,0.0032582348957007753,0.3046875,,
4.071359999999404,1540,,,,-0.09375,0.109375,-1.28125,0.0596852685682418,0.4181570147763837,15.257519286638368,8.533353731702318,12943,0,130.1978091411556,80.89790434696414,62.13461261798779,0.0051689474301206155,0.00321170546213288,0.3046875,,
4.079334999999031,1540,,,,-0.1875,-0.1484375,-1.1328125,0.0596852685682418,0.4181570147763837,15.253202346109395,8.665456634529843,12951,0,132.17596346791981,80.94597358805946,61.241069453377364,0.005165877884234467,0.003163638862960691,0.3046875,,
4.08865499999933,1540,,,,-0.15625,0.072265625,-1.150390625,0.0596852685682418,0.4181570147763837,15.24894061132155,8.79687016502902,12994,0,134.14295071203392,81.21808542106726,60.54592133985406,0.005148570205865964,0.0031172492669707683,0.3046875,,
4.097639999999664,1540,,,,0,0.166015625,-1.126953125,0.0596852685682418,0.4181570147763837,15.244713880694329,8.925127382093327,13013,0,136.06101328876318,81.33603527946201,59.779089772646344,0.005141103981029324,0.0030733051641246146,0.3046875,,
4.110129999999888,1540,,,,0.03125,-0.09765625,-1.017578125,0.0596852685682418,0.4181570147763837,15.241458816652178,9.042325585513586,13014,0,137.81823301836562,81.33860190618083,59.01875254440512,0.005140941754306308,0.0030341196924260393,0.302734375,,
4.127429999999702,1540,,,,0.09375,-0.16015625,-0.935546875,0.0596852685682418,0.4181570147763837,15.232140518795807,9.305855332791436,13045,0,141.74809607666447,81.53334036025225,57.519883946910255,0.00512866286268625,0.002950000926645416,0.30078125,,
4.136009999998845,1540,,,,-0.09375,0.154296875,-0.923828125,0.0596852685682418,0.4181570147763837,15.22957868545152,9.380997588944448,13034,0,142.86864092886046,81.46654438525385,57.02199156903791,0.005132867951277355,0.002926863530427222,0.30078125,,
4.14449499999918,1540,,,,-0.15625,-0.0703125,-1.033203125,0.0596852685682418,0.4181570147763837,15.226282422802852,9.481098927063885,13031,0,144.3618899420078,81.44569217464412,56.41772368549761,0.005134182098664334,0.002896588669934726,0.30078125,,
4.152409999999218,1540,,,,0,-0.06640625,-1.0234375,0.0596852685682418,0.4185104209352885,15.224095496743653,9.556227432933518,13028,0,145.48491902758133,81.42931111661709,55.9709636303812,0.005139554973465618,0.0028766584449618896,0.298828125,,
4.161449999999255,1540,,,,0.0625,-0.025390625,-1.14453125,0.0596852685682418,0.4185104209352885,15.222506132569135,9.613497284255546,13032,0,146.34152136501677,81.45287213778325,55.65944058666504,0.005138068308105192,0.0028598200772520753,0.298828125,,
4.168455000000074,1540,,,,0.125,-0.30078125,-0.84375,0.0596852685682418,0.4185104209352885,15.220504077645417,9.686257220970154,13029,0,147.42971752889858,81.43231453249236,55.234667675823445,0.0051393654145529466,0.002838711407374526,0.298828125,,
4.175604999999516,1540,,,,-0.09375,0.140625,-1.009765625,0.0596852685682418,0.4185104209352885,15.218565369832524,9.738346861120217,13027,0,148.2036683000614,81.42449477717409,54.94094424998814,0.005139858983228355,0.0028238870585034982,0.298828125,,
4.182444999999367,1540,,,,0,0.21484375,-0.90625,0.0596852685682418,0.4185104209352885,15.216674887917849,9.768357339520684,13028,0,148.6419178244924,81.43037369980281,54.78291379148579,0.005139487907523896,0.002815561229702653,0.296875,,
4.190394999999553,1540,,,,-0.125,0.12890625,-0.5078125,0.06544385413423447,0.4185104209352885,15.214392929429504,9.847150510717292,13059,0,149.8184171052853,89.49586128789618,59.73622136522956,0.004676310333379514,0.0027934510924726907,0.296875,,
4.198574999999255,1540,,,,-0.15625,0.142578125,-0.947265625,0.06544385413423447,0.4185104209352885,15.211329969489361,9.936165551513199,13053,0,151.1422928355405,89.45812887298493,59.18801891560904,0.004678282747557809,0.0027689828775501906,0.296875,,
4.2064099999992175,1540,,,,-0.09375,0.162109375,-0.947265625,0.06544385413423447,0.4185104209352885,15.209810314640631,9.967516557240687,13080,0,151.60403614367067,89.64362800740216,59.13010648506055,0.004668601999248968,0.002760549333519581,0.296875,,
4.213439999999478,1540,,,,0,-0.16796875,-1.0703125,0.06544385413423447,0.4185104209352885,15.20852244473629,9.99717972294718,13075,0,152.04233220050472,89.60968263023459,58.937324449918634,0.004670370529736502,0.002752591432124186,0.294921875,,
4.222359999999404,1540,,,,-0.0625,-0.14453125,-1.1796875,0.06544385413423447,0.4185104209352885,15.207309546584721,10.04815741410135,13055,0,152.80544016904952,89.47164865951734,58.55265922504746,0.0046775758265942095,0.002738845033738904,0.296875,,
4.229444999999367,1540,,,,-0.0625,0.16015625,-1.1328125,0.06544385413423447,0.4185104209352885,15.205917714020954,10.07741134976967,13043,0,153.23628775493845,89.38522272951218,58.33162891054929,0.00468209854107249,0.002731144346204647,0.294921875,,
4.2364699999997395,1540,,,,-0.1875,0.2109375,-0.8671875,0.06544385413423447,0.4185104209352885,15.20497015397083,10.105158740152001,13032,0,153.64863704514866,89.31221165797795,58.127565187404905,0.004685926069527631,0.002723814730698274,0.294921875,,
4.243524999999441,1540,,,,-0.03125,-0.02734375,-1.095703125,0.06544385413423447,0.4185104209352885,15.20363219478018,10.146285320658123,13029,0,154.2603901585834,89.29064168471791,57.88306485736552,0.004687058050417354,0.002713012851225449,0.294921875,,
4.251489999999293,1540,,,,0.125,-0.04296875,-1.05078125,0.06544385413423447,0.4185104209352885,15.202528728548227,10.16395691006539,13028,0,154.51784692099537,89.28126320339791,57.78055090881976,0.004687550398809329,0.002708492444560608,0.29296875,,
4.264099999999628,1540,,,,-0.0625,0.267578125,-0.83984375,0.06544385413423447,0.4185104209352885,15.201065828491382,10.205585808192447,13027,0,155.1357816886508,89.27658902383746,57.54738723205119,0.004687795820957534,0.0026977040137343457,0.29296875,,
4.273739999999292,1540,,,,0.09375,-0.134765625,-0.984375,0.06544385413423447,0.4185104209352885,15.19847227809032,10.268336412987983,13024,0,156.06302631490325,89.25476221282263,57.19148495347308,0.00468894219825913,0.0026816756717944206,0.29296875,,
4.2816149999992925,1540,,,,-0.15625,-0.087890625,-1.060546875,0.06544385413423447,0.4185104209352885,15.197193775989028,10.31290114068581,13027,0,156.72715702762054,89.27910745605269,56.964669779800026,0.004687663585137192,0.0026703120816613363,0.29296875,,
4.289769999999553,1540,,,,0.03125,-0.052734375,-0.921875,0.06544385413423447,0.4185104209352885,15.195839876912103,10.346259648107676,13025,0,157.2201049376012,89.26494118939026,56.77705228909397,0.004688407513173059,0.002661939585280078,0.291015625,,
4.297519999999553,1540,,,,0,0.0703125,-1.00390625,0.06544385413423447,0.5095157087598153,15.194709110001323,10.376869906815482,13026,0,157.6735197063878,89.27000779018827,56.616994379539875,0.005707579974198418,0.0032314602331996616,0.2890625,,
4.304504999999888,1540,,,,0.0625,-0.05078125,-1.111328125,0.06544385413423447,0.5095157087598153,15.194381110805006,10.404767053863413,13026,0,158.0939959855485,89.27241542604386,56.46793533778748,0.005707426043399873,0.0032228656476390827,0.287109375,,
4.313489999999292,1540,,,,0,0.220703125,-0.9453125,0.06544385413423447,0.5095157087598153,15.19377174268883,10.439771926248378,13025,0,158.61951169314872,89.26239754182447,56.274538100018624,0.005708066585608777,0.0032121881054928436,0.287109375,,
4.320464999999851,1540,,,,-0.0625,-0.1015625,-0.734375,0.06544385413423447,0.5095157087598153,15.19277740361614,10.462871537910889,13021,0,158.96007827811098,89.23665736866519,56.13777895387033,0.005709713068418092,0.003205306101248796,0.287109375,,
4.328514999998734,1540,,,,-0.1875,0.16796875,-0.765625,0.06544385413423447,0.5095157087598153,15.191953118134993,10.506841112533172,13001,0,159.61943760129725,89.09629998879458,55.8179513270447,0.0057187078343757915,0.0031920655555277714,0.287109375,,
4.3364899999992925,1540,,,,-0.1875,0.20703125,-0.94140625,0.07633823712728088,0.5095157087598153,15.191270922268288,10.553513578483352,13007,0,160.3212839525777,103.97694139687334,64.85535721359945,0.004900275983451239,0.003178091493519524,0.287109375,,
4.344615000000224,1540,,,,-0.1875,0.1953125,-0.998046875,0.07633823712728088,0.5095157087598153,15.190780348626175,10.565230695867179,13019,0,160.4940988334812,104.07320155878216,64.84550043597685,0.004895743583635533,0.0031746694268706883,0.287109375,,
4.3605549999987705,1540,,,,-0.125,0.13671875,-1.2421875,0.07633823712728088,0.5095157087598153,15.189822831453117,10.63671364148583,13019,0,161.56979572307029,104.07231742656205,64.4132258512856,0.0048957851747593855,0.0031535331618115204,0.287109375,,
4.368589999999851,1540,,,,0,-0.12109375,-1.23046875,0.07633823712728088,0.5095157087598153,15.188751166065016,10.659188292329437,13025,0,161.8997586044253,104.12139245763518,64.31225923692587,0.004893477668070244,0.0031471060435904097,0.2890625,,
4.3756549999993295,1540,,,,-0.1875,0.08203125,-1.04296875,0.07633823712728088,0.5095157087598153,15.188183082167914,10.667664473086967,12990,0,162.02244107638316,103.84167546341772,64.09092146344287,0.004906659166331654,0.0031447230727724403,0.2890625,,
4.382639999999665,1540,,,,0.0625,-0.25390625,-0.978515625,0.07633823712728088,0.5095157087598153,15.187926787505887,10.687332129336086,13010,0,162.31841793411587,104.0070083158809,64.07591303538749,0.004898859384671072,0.003138988879047755,0.2890625,,
4.391464999999851,1540,,,,0.125,-0.00390625,-0.888671875,0.07633823712728088,0.5095157087598153,15.187437304524531,10.70207636015744,13019,0,162.53711374812522,104.07213310123034,64.02976569554765,0.004895793845833951,0.00313476532842452,0.2890625,,
4.398509999999776,1540,,,,0,0.1015625,-0.58203125,0.07633823712728088,0.5095157087598153,15.186622338093168,10.726110440519989,13022,0,162.8933884168552,104.09751171523041,63.90530194438453,0.004894600268195158,0.0031279090803607705,0.2890625,,
4.405699999999255,1540,,,,0.09375,0.046875,-0.9921875,0.07633823712728088,0.5095157087598153,15.185812821071623,10.73175476871888,13029,0,162.9704191594077,104.15480140036264,63.91024944133253,0.004891908024492103,0.0031264306208934655,0.2890625,,
4.416370000000112,1540,,,,0.125,-0.0234375,-0.828125,0.07633823712728088,0.5095157087598153,15.185234228047394,10.748999550126491,13023,0,163.22607588584683,104.10472876174893,63.779471629615855,0.004894260950680523,0.003121533774518652,0.287109375,,
4.425789999999106,1540,,,,-0.125,0.158203125,-0.951171875,0.07633823712728088,0.5095157087598153,15.18416073220518,10.753324220405423,13027,0,163.2802033681509,104.14167175940668,63.78095421929169,0.004892524770842206,0.0031204989842583725,0.28515625,,
4.434379999999888,1540,,,,-0.3125,0.193359375,-1.171875,0.07633823712728088,0.5095157087598153,15.183676745737843,10.761206685329153,13025,0,163.3946837041109,104.1247283260509,63.72589729700685,0.004893320894575049,0.003118312647689873,0.287109375,,
4.444445000000298,1540,,,,-0.0625,0.02734375,-1.25390625,0.07633823712728088,0.5095157087598153,15.182822364351917,10.77768929830083,13024,0,163.63574211427817,104.11745237784851,63.6275736783325,0.00489366285020836,0.0031137189355855107,0.287109375,,
4.4518149999994785,1540,,,,0,0.072265625,-1.087890625,0.07633823712728088,0.5508359557754441,15.18251679289229,10.781048847439564,13024,0,163.68345517124325,104.11566587635329,63.60793506431606,0.005290615500933464,0.003365251272336398,0.287109375,,
4.460459999999031,1540,,,,-0.0625,-0.203125,-1,0.07633823712728088,0.5508359557754441,15.182130662399597,10.784949057977261,13026,0,163.73850578553424,104.12761061903133,63.59384441642478,0.005290008600992216,0.0033641198393304784,0.287109375,,
4.468484999999404,1540,,,,-0.125,0.03515625,-0.83203125,0.07633823712728088,0.5508359557754441,15.181579287058959,10.77322760026203,13021,0,163.55460899090994,104.0921987783,63.64369639016731,0.005291808245386746,0.00336790237324378,0.28515625,,
4.47658999999892,1540,,,,0.0625,0.060546875,-0.990234375,0.07633823712728088,0.5508359557754441,15.181567289088738,10.790045598160718,13024,0,163.8098033008127,104.11832157791387,63.56049484212849,0.0052904805554634515,0.003362655620579158,0.283203125,,
4.4855549999987705,1540,,,,-0.15625,0.201171875,-0.91015625,0.07633823712728088,0.5508359557754441,15.180204673642406,10.825484666347698,13018,0,164.33307292653552,104.06466923851973,63.32545688173278,0.005293208154180643,0.003351948247336026,0.283203125,,
4.493614999999292,1540,,,,-0.0625,-0.11328125,-1.06640625,0.08093983864172485,0.5508359557754441,15.178754353764544,10.870270748091015,13033,0,164.99716944418586,110.46444601390735,66.9492976067535,0.004986545224751269,0.0033384570028140827,0.28125,,
4.501609999999404,1540,,,,0.125,-0.15234375,-1.099609375,0.08093983864172485,0.5508359557754441,15.177932204120406,10.901196645002779,13066,0,165.457623621637,110.74731896861633,66.93394752354816,0.004973808494014563,0.0033291663673054887,0.283203125,,
4.5095199999995526,1540,,,,0.0625,-0.02734375,-1.16015625,0.08093983864172485,0.5508359557754441,15.178098554322867,10.889759872710565,13056,0,165.2858485809114,110.66688950979646,66.95484850030725,0.004977423312567965,0.0033326262381488557,0.283203125,,
4.517535000000149,1540,,,,-0.15625,0.162109375,-1.0390625,0.08093983864172485,0.5508359557754441,15.178191764866316,10.872785930444477,13077,0,165.02922987062672,110.84155375260507,67.16480095041246,0.004969579883415321,0.00333780843676764,0.283203125,,
4.524489999999292,1540,,,,-0.09375,0.21875,-1.119140625,0.08093983864172485,0.5508359557754441,15.177987476459773,10.880692009944461,13048,0,165.14700706215294,110.59611401450546,66.96828236970876,0.004980608592659938,0.003335428026062485,0.283203125,,
4.531629999998957,1540,,,,0,0.1328125,-0.9765625,0.08093983864172485,0.5508359557754441,15.177900623499951,10.873913770238811,13040,0,165.04318259319237,110.52992682354223,66.97030745946202,0.00498359106538483,0.003337526259010499,0.28125,,
4.539524999999442,1540,,,,-0.125,0.283203125,-0.8046875,0.08093983864172485,0.5508359557754441,15.177649285635187,10.884797122718279,13028,0,165.20563327390903,110.42669600931217,66.84196768655339,0.004988249904072043,0.0033342443890043657,0.28125,,
4.547509999998845,1540,,,,0.0625,-0.2734375,-0.76953125,0.08093983864172485,0.5508359557754441,15.177176737423407,10.891994169147104,13022,0,165.3097205281308,110.37751702498456,66.77013104392829,0.00499047243154382,0.003332144982252923,0.283203125,,
4.555649999999441,1540,,,,-0.03125,-0.04296875,-1.041015625,0.08093983864172485,0.5508359557754441,15.177414058833483,10.88573718404888,13020,0,165.21734057794987,110.35805324674074,66.79568431539641,0.004991352597928436,0.003334008124380616,0.283203125,,
4.562664999999106,1540,,,,0,-0.01171875,-1.1640625,0.08093983864172485,0.5508359557754441,15.17734498737961,10.898907001673614,13019,0,165.41647154976755,110.35042116592976,66.71066075347248,0.00499169781098681,0.0033299945925259226,0.28125,,
4.574205000000075,1540,,,,0.125,-0.091796875,-1.107421875,0.08093983864172485,0.5508359557754441,15.177199803957704,10.89605267974985,13019,0,165.37156859501223,110.34759450726357,66.72706526567454,0.0049918256780775196,0.003330898778159487,0.28125,,
4.593699999999255,1540,,,,0.0625,-0.0703125,-0.845703125,0.08093983864172485,0.5508359557754441,15.17692101606342,10.89606375874834,13020,0,165.36869905251467,110.35367971376986,66.7319029211966,0.004991550415030801,0.0033309565772209407,0.27734375,,
4.6019449999993665,1540,,,,0,-0.046875,-0.66796875,0.08093983864172485,0.5674931426136106,15.17621543737362,10.907501506571505,12984,0,165.5345927472065,110.05080227945413,66.48205698461858,0.00515664702900179,0.003428245016316612,0.27734375,,
4.608650000000373,1540,,,,-0.09375,0.001953125,-0.67578125,0.08093983864172485,0.5674931426136106,15.176033611007506,10.884211545526552,13006,0,165.17916024422692,110.24228987870347,66.74104028359503,0.005147690085519881,0.003435621913651451,0.279296875,,
4.615739999999292,1540,,,,-0.0625,0.3359375,-0.76953125,0.08093983864172485,0.5674931426136106,15.175772444121215,10.88256506499318,13013,0,165.1513310346797,110.300561707118,66.7875705367196,0.005144970558903225,0.0034362008411209484,0.279296875,,
4.622814999999479,1540,,,,-0.21875,0.271484375,-0.900390625,0.08093983864172485,0.5674931426136106,15.175267444259156,10.869971280845846,13016,0,164.95472129825197,110.3257763916328,66.88246054634263,0.005143794688551585,0.003440296453155381,0.279296875,,
4.630754999998957,1540,,,,-0.25,0.13671875,-1.15234375,0.08093983864172485,0.5674931426136106,15.175172848428106,10.874596425227915,13027,0,165.02388040973202,110.41886888778095,66.91084260873384,0.0051394580322169005,0.0034388546748785795,0.28125,,
4.637769999999553,1540,,,,-0.15625,0.1328125,-1.236328125,0.08271842105415023,0.5674931426136106,15.174862582571057,10.888013257380907,13022,0,165.22410497796713,112.8028356897538,68.27262626406494,0.005030841105576547,0.0034346873459492285,0.28125,,
4.644769999999553,1540,,,,-0.125,0.03125,-1.21484375,0.08271842105415023,0.5674931426136106,15.174911645094065,10.898980662181089,13020,0,165.39106857018683,112.78480128389327,68.1928004087058,0.005031645542249618,0.0034312200018998254,0.28125,,
