Time (s),ESC signal (µs),Servo 1 (µs),Servo 2 (µs),Servo 3 (µs),AccX (g),AccY (g),AccZ (g),Torque (N·m),Thrust (kgf),Voltage (V),Current (A),Motor Electrical Speed (RPM),Motor Optical Speed (RPM),Electrical Power (W),Mechanical Power (W),Motor Efficiency (%),Propeller Mech. Efficiency (kgf/W),Overall Efficiency (kgf/W),Vibration (g),App message,90% settling time (s),Max acceleration (RPM/s),
0,1000,,,,-0.0625,0.048828125,-0.953125,-0.00017772166376612338,0.007229260674782268,15.531963020353771,-0.027221526207733694,0,0,0.4228037384161108,0,0,0,0,0.05859375,,
0,1000,,,,-0.0625,0.05078125,-0.955078125,-0.00017772166376612338,0.007229260674782268,15.53191975292457,-0.026376898891281184,0,0,0.4096838769103844,0,0,0,0,0.05859375,,
0.009794999999925494,1000,,,,-0.0625,0.048828125,-0.953125,-0.00017772166376612338,0.007229260674782268,15.53166285357313,-0.026295243660244154,0,0,0.4084088591834685,0,0,0,0,0.05859375,,
0.017605000000447034,1000,,,,-0.0625,0.046875,-0.95703125,-0.00017772166376612338,0.007229260674782268,15.531678809256404,-0.025830118613443753,0,0,0.40118510590900375,0,0,0,0,0.05859375,,
0.024820000001229345,1000,,,,-0.0625,0.05078125,-0.95703125,-0.00017772166376612338,0.007229260674782268,15.531962005515748,-0.025993256274908567,0,0,0.4037262688615137,0,0,0,0,0.05859375,,
0.03389500000048429,1000,,,,-0.0625,0.05078125,-0.95703125,-0.00017772166376612338,0.007229260674782268,15.531788255218263,-0.02614574595369159,0,0,0.4060901899274674,0,0,0,0,0.05859375,,
0.052795000000856816,1000,,,,-0.0625,0.048828125,-0.953125,-0.00017772166376612338,0.006956134069738207,15.531521661127563,-0.026556211222131018,0,0,0.4124583698340068,0,0,0,0,0.05859375,,
0.06252500000037253,1000,,,,-0.0625,0.05078125,-0.95703125,-0.00017772166376612338,0.006956134069738207,15.531371456727054,-0.026680608278039752,0,0,0.41438643785766216,0,0,0,0,0.05859375,,
0.07225500000081957,1000,,,,-0.0625,0.048828125,-0.95703125,-0.00017772166376612338,0.006956134069738207,15.531325524219758,-0.026013638617271274,0,0,0.4040262894342541,0,0,0,0,0.05859375,,
0.07970999999996274,1000,,,,-0.0625,0.05078125,-0.95703125,-0.00017772166376612338,0.006956134069738207,15.53125097610547,-0.025292018763644813,0,0,0.39281669111053635,0,0,0,0,0.05859375,,
0.08940000000037253,1000,,,,-0.0625,0.046875,-0.95703125,-0.00017772166376612338,0.006956134069738207,15.53142069690933,-0.02463732198925908,0,0,0.3826526126603978,0,0,0,0,0.05859375,,
0.10556500000040978,1000,,,,-0.0625,0.05078125,-0.955078125,-0.00017772166376612338,0.006956134069738207,15.53131388710852,-0.025143254480720585,0,0,0.39050777748351917,0,0,0,0,0.05859375,,
0.11552500000037252,1000,,,,-0.0625,0.05078125,-0.95703125,-0.00017772166376612338,0.006956134069738207,15.531430106921261,-0.023894486138501703,0,0,0.3711155414009381,0,0,0,0,0.05859375,,
0.1255650000004098,1000,,,,-0.0625,0.048828125,-0.955078125,-0.00014922364840294972,0.006956134069738207,15.531383330963866,-0.024502664027725912,0,0,0.3805602676444302,0,0,0,0,0.05859375,,
0.13286500000115484,1000,,,,-0.0625,0.05078125,-0.955078125,-0.00014922364840294972,0.006956134069738207,15.531477704923455,-0.02411309090460747,0,0,0.37451193378170344,0,0,0,0,0.05859375,,
0.13976500000059605,1000,,,,-0.0625,0.046875,-0.95703125,-0.00014922364840294972,0.006956134069738207,15.531500025719955,-0.024341876444837568,0,0,0.37806585462906667,0,0,0,0,0.05859375,,
0.14676500000059606,1000,,,,-0.0625,0.046875,-0.95703125,-0.00014922364840294972,0.006956134069738207,15.531521634273144,-0.02428233166707716,0,0,0.37714155961780477,0,0,0,0,0.05859375,,
0.15395000000018627,1000,,,,-0.0625,0.048828125,-0.95703125,-0.00014922364840294972,0.006956134069738207,15.531369738009943,-0.024225316281960334,0,0,0.37625234419535825,0,0,0,0,0.05859375,,
0.16207500000018626,1000,,,,-0.0625,0.05078125,-0.95703125,-0.00014922364840294972,0.006956134069738207,15.531269356001737,-0.024055992177433934,0,0,0.37362009413359715,0,0,0,0,0.05859375,,
0.1699500000011176,1000,,,,-0.0625,0.048828125,-0.955078125,-0.00014922364840294972,0.006956134069738207,15.531304956123908,-0.02431934976565868,0,0,0.37771123754508545,0,0,0,0,0.05859375,,
0.17684000000078232,1000,,,,-0.0625,0.046875,-0.955078125,-0.00014922364840294972,0.006956134069738207,15.531248529923328,-0.023697729486894373,0,0,0.3680553262558489,0,0,0,0,0.05859375,,
0.18397000000067054,1000,,,,-0.0625,0.05078125,-0.95703125,-0.00014922364840294972,0.006956134069738207,15.531223436957958,-0.024134405058001955,0,0,0.37483683747387664,0,0,0,0,0.05859375,,
0.1909550000000745,1000,,,,-0.0625,0.0546875,-0.95703125,-0.00014922364840294972,0.006672344335968481,15.531342490935717,-0.02408412828084467,0,0,0.3740588449254294,0,0,0,0,0.05859375,,
0.19890000000037253,1000,,,,-0.0625,0.052734375,-0.95703125,-0.00014922364840294972,0.006672344335968481,15.53119772100369,-0.023753222624706916,0,0,0.36891599709534134,0,0,0,0,0.05859375,,
0.2061150000002235,1000,,,,-0.0625,0.05078125,-0.95703125,-0.00014922364840294972,0.006672344335968481,15.530908064557869,-0.02403574164500221,0,0,0.37329689375199426,0,0,0,0,0.05859375,,
0.21856000000052153,1000,,,,-0.0625,0.05078125,-0.953125,-0.00014922364840294972,0.006672344335968481,15.530765659108395,-0.024727233080159575,0,0,0.38403286236611145,0,0,0,0,0.05859375,,
0.238875,1000,,,,-0.0625,0.05078125,-0.955078125,-0.00014922364840294972,0.006672344335968481,15.530662053119567,-0.02609091568693643,0,0,0.40520919419024565,0,0,0,0,0.05859375,,
0.247625,1000,,,,-0.0625,0.05078125,-0.95703125,-0.00014922364840294972,0.006672344335968481,15.530792443974429,-0.026044108485170685,0,0,0.4044856432715392,0,0,0,0,0.05859375,,
0.2571699999999255,1000,,,,-0.0625,0.048828125,-0.955078125,-0.00014922364840294972,0.006672344335968481,15.530704906323082,-0.026249870882183876,0,0,0.40767899850028055,0,0,0,0,0.05859375,,
0.2650100000007078,1000,,,,-0.0625,0.046875,-0.95703125,-0.00012251631452878017,0.006672344335968481,15.530558041528217,-0.026189180594888443,0,0,0.40673258928897943,0,0,0,0,0.05859375,,
0.27299000000115486,1000,,,,-0.0625,0.048828125,-0.955078125,-0.00012251631452878017,0.006672344335968481,15.530628742810409,-0.023795868510259256,0,0,0.3695647994455695,0,0,0,0,0.05859375,,
0.27987000000104306,1000,,,,-0.03125,0.025390625,-0.97265625,-0.00012251631452878017,0.006672344335968481,15.53051521021467,-0.021228427436590272,0,0,0.32968841519290365,0,0,0,0,0.05859375,,
0.2878799999998882,1000,,,,0,0.0390625,-0.98046875,-0.00012251631452878017,0.006672344335968481,15.530392273246942,-0.016113985988148782,0,0,0.25025652348155536,0,0,0,0,0.056640625,,
0.2950099999997765,1000,,,,0.0625,0.015625,-0.994140625,-0.00012251631452878017,0.006672344335968481,15.530202425884292,-0.012188092451036178,0,0,0.1892835429499841,0,0,0,0,0.05859375,,
0.3029300000006333,1000,,,,0.125,0,-0.984375,-0.00012251631452878017,0.006672344335968481,15.529961792806754,-0.00810794653103214,0,0,0.1259160998450492,0,0,0,0,0.05859375,,
0.30990000000037254,1000,,,,0.125,0.0703125,-0.947265625,-0.00012251631452878017,0.006672344335968481,15.529963455589568,-0.005124651959971208,0,0,0.07958565766096831,0,0,0,0,0.05859375,,
0.3178650000002235,1000,,,,0.1875,0.07421875,-0.93359375,-0.00012251631452878017,0.006672344335968481,15.529867378671346,-0.0005798256533363078,0,0,0,0,0,0,0,0.060546875,,
0.32594500000122933,1000,,,,0.09375,0.142578125,-0.916015625,-0.00012251631452878017,0.006672344335968481,15.529677066655445,0.0037662407963980765,0,0,0.05848850332332535,0,0,0,0,0.0625,,
0.3339150000009686,1000,,,,0,0.17578125,-1.01953125,-0.00012251631452878017,0.006672344335968481,15.529660316723673,0.009134231795253134,0,0,0.14185151703449822,0,0,0,0,0.0625,,
0.34344500000122935,1000,,,,-0.09375,0.13671875,-1.119140625,-0.00012251631452878017,0.006726477539775111,15.529373994826887,0.016078561651518816,0,0,0.24968999718531715,0,0,0,0,0.064453125,,
0.3524000000003725,1000,,,,-0.1875,-0.119140625,-1.142578125,-0.00012251631452878017,0.006726477539775111,15.529220103784345,0.019411578804766974,0,0,0.3014466798211814,0,0,0,0,0.068359375,,
0.3641000000005588,1000,,,,-0.25,-0.142578125,-1.22265625,-0.00012251631452878017,0.006726477539775111,15.529319040525484,0.023487674722398363,0,0,0.36474759428421005,0,0,0,0,0.072265625,,
0.3756150000002235,1000,,,,-0.21875,-0.15234375,-1.234375,-0.00012251631452878017,0.006726477539775111,15.529300830409488,0.02697093062817013,0,0,0.4188396954009591,0,0,0,0,0.078125,,
0.39298500000033526,1000,,,,0.09375,0.083984375,-1.0546875,-0.00012251631452878017,0.006726477539775111,15.529077329763105,0.03720294787766518,0,0,0.5777274544874087,0,0,0,0,0.083984375,,
0.40116500000096855,1000,,,,0.125,0.21484375,-0.9296875,-0.00012251631452878017,0.006726477539775111,15.52887259578427,0.04044245813321798,0,0,0.6280257798110813,0,0,0,0,0.0859375,,
0.409160000000149,1000,,,,0.125,0.3203125,-0.81640625,-0.00012251631452878017,0.006726477539775111,15.52873202055071,0.042756624088342035,0,0,0.6639561575712868,0,0,0,0,0.087890625,,
0.41762999999988826,1000,,,,0.125,0.3984375,-0.7890625,-0.0000013565157484992391,0.006726477539775111,15.528903958877212,0.045120959469758234,0,0,0.7006790461382669,0,0,0,0,0.091796875,,
0.43301500000059606,1000,,,,0.125,0.39453125,-0.87109375,-0.0000013565157484992391,0.006726477539775111,15.528791695490904,0.05062418897220147,0,0,0.7861324853024845,0,0,0,0,0.1015625,,
0.44008000000100583,1000,,,,0.125,0.22265625,-0.9375,-0.0000013565157484992391,0.006726477539775111,15.528642225662102,0.05260302349375909,0,0,0.8168535318226829,0,0,0,0,0.1015625,,
0.44709500000067054,1000,,,,0.0625,-0.13671875,-0.92578125,-0.0000013565157484992391,0.006726477539775111,15.528528196189704,0.05468105714714365,0,0,0.8491163377068807,0,0,0,0,0.103515625,,
0.4600900000007823,1000,,,,-0.0625,-0.3984375,-0.9765625,-0.0000013565157484992391,0.006726477539775111,15.528210377921164,0.06019730038019393,0,0,0.934756344486565,0,0,0,0,0.107421875,,
0.4683850000007078,1000,,,,-0.103515625,-0.515625,-0.974609375,-0.0000013565157484992391,0.006726477539775111,15.528013502410161,0.06253960628751247,0,0,0.9711158508679091,0,0,0,0,0.11328125,,
0.476160000000149,1000,,,,-0.0625,-0.5078125,-0.90625,-0.0000013565157484992391,0.006726477539775111,15.528142225907539,0.06418181883197006,0,0,0.996624411140262,0,0,0,0,0.12109375,,
0.48418500000052156,1000,,,,0.0625,-0.439453125,-0.869140625,-0.0000013565157484992391,0.006726477539775111,15.527938639734598,0.06725731706251213,0,0,1.0443674924198632,0,0,0,0,0.125,,
0.49218500000052157,1000,,,,0.125,-0.2421875,-0.8359375,-0.0000013565157484992391,0.0066477762030298215,15.527483989506825,0.06868722961666628,0,0,1.0665398581563645,0,0,0,0,0.126953125,,
0.5002450000001117,1000,,,,0.125,0.005859375,-0.8828125,-0.0000013565157484992391,0.0066477762030298215,15.52741121401626,0.07025996164987545,0,0,1.0909553164186285,0,0,0,0,0.12890625,,
0.5083100000005215,1000,,,,0.0625,0.2421875,-0.921875,-0.0000013565157484992391,0.0066477762030298215,15.527341715128767,0.0730452615079508,0,0,1.1341987361048942,0,0,0,0,0.12890625,,
0.5162000000001863,1000,,,,0,0.25,-0.90234375,-0.0000013565157484992391,0.0066477762030298215,15.527178980134293,0.0746056443500135,0,0,1.1584151927509045,0,0,0,0,0.130859375,,
0.5274400000004098,1000,,,,0,0.1953125,-0.9140625,-0.0000013565157484992391,0.0066477762030298215,15.52709862276176,0.07612212412852891,0,0,1.1819557287177809,0,0,0,0,0.130859375,,
0.5360750000001863,1000,,,,0,0.142578125,-0.908203125,-0.0000013565157484992391,0.0066477762030298215,15.526874217142938,0.07931905185596917,0,0,1.2315769411906714,0,0,0,0,0.130859375,,
0.5432000000001863,1000,,,,0.03125,0.0859375,-0.884765625,-0.0000013565157484992391,0.0066477762030298215,15.526603698637324,0.08078973898991072,0,0,1.2543902602126917,0,0,0,0,0.130859375,,
0.5520100000007078,1000,,,,0.09375,0.029296875,-0.8359375,-0.0000013565157484992391,0.0066477762030298215,15.526667747043295,0.08170414097883251,0,0,1.268593050535917,0,0,0,0,0.130859375,,
0.5592150000007823,1000,,,,0.125,0.05859375,-0.8515625,-0.0000013565157484992391,0.0066477762030298215,15.526632900448925,0.08371952885989799,0,0,1.2998823912061754,0,0,0,0,0.130859375,,
0.5677750000003725,1000,,,,0.1875,0.04296875,-0.83203125,0.0003292633021962344,0.0066477762030298215,15.52651825210959,0.08332637368509534,0,0,1.2937684619037368,0,0,0,0,0.1328125,,
0.5775750000001862,1000,,,,0.25,0.05078125,-0.880859375,0.0003292633021962344,0.0066477762030298215,15.526452687478791,0.08405017369686645,0,0,1.3050010452787713,0,0,0,0,0.134765625,,
0.5862200000006705,1000,,,,0.21875,0.080078125,-0.9140625,0.0003292633021962344,0.0066477762030298215,15.526625809705079,0.08557352946602527,0,0,1.3286681712347461,0,0,0,0,0.134765625,,
0.6058850000007078,1000,,,,0.0625,0.07421875,-0.8828125,0.0003292633021962344,0.0066477762030298215,15.52636976806706,0.08824313048649361,0,0,1.3700954734250912,0,0,0,0,0.134765625,,
0.615,1000,,,,0,0.06640625,-0.88671875,0.0003292633021962344,0.0066477762030298215,15.52646265829128,0.08895462069430564,0,0,1.3811505964926012,0,0,0,0,0.134765625,,
0.6229750000005588,1000,,,,-0.0625,0.109375,-0.91796875,0.0003292633021962344,0.0066477762030298215,15.52618779873714,0.09005138558468455,0,0,1.3981547241243029,0,0,0,0,0.134765625,,
0.632370000001043,1000,,,,-0.0625,0.0859375,-0.95703125,0.0003292633021962344,0.0066477762030298215,15.526147556616081,0.09096349942155339,0,0,1.4123127142851994,0,0,0,0,0.1328125,,
0.6438650000002235,1000,,,,-0.0625,0.076171875,-0.96875,0.0003292633021962344,0.0071044820358984375,15.526089948855622,0.09134773080618704,0,0,1.4182730851207097,0,0,0,0,0.1328125,,
0.6606700000008568,1000,,,,-0.0625,0.08203125,-0.970703125,0.0003292633021962344,0.0071044820358984375,15.526152104431553,0.09236196443639173,0,0,1.4340259085035159,0,0,0,0,0.130859375,,
0.680320000000298,1000,,,,-0.0625,0.125,-0.974609375,0.0003292633021962344,0.0071044820358984375,15.526119461566218,0.0955236727771318,0,0,1.4831119549453091,0,0,0,0,0.12890625,,
0.6934850000003353,1000,,,,-0.0625,0.15234375,-0.98828125,0.0003292633021962344,0.0071044820358984375,15.526302759222135,0.09603141095619376,0,0,1.4910127609011459,0,0,0,0,0.12890625,,
0.7107800000002608,1000,,,,-0.09375,0.154296875,-0.9609375,0.0003292633021962344,0.0071044820358984375,15.526149342021522,0.09629007319585976,0,0,1.4950140565931023,0,0,0,0,0.12890625,,
0.7194450000012294,1000,,,,-0.125,0.240234375,-0.98828125,0.0006027151714600901,0.0071044820358984375,15.52603604987201,0.09755458599935192,0,0,1.514636019056277,0,0,0,0,0.130859375,,
0.726785000000149,1000,,,,-0.0625,0.0234375,-0.9609375,0.0006027151714600901,0.0071044820358984375,15.526004702780005,0.0932342179094413,0,0,1.4475549057220014,0,0,0,0,0.130859375,,
0.750820000000298,1000,,,,-0.0625,0.048828125,-0.955078125,0.0006027151714600901,0.0071044820358984375,15.526375102139315,0.07483574968512745,0,0,1.1619279206610929,0,0,0,0,0.12890625,,
0.7736900000004098,1000,,,,-0.0625,0.048828125,-0.95703125,0.0006027151714600901,0.0071044820358984375,15.526816747298989,0.06098633077757547,0,0,0.9469235820735745,0,0,0,0,0.125,,
0.7822550000008196,1000,,,,-0.0625,0.048828125,-0.953125,0.0006027151714600901,0.0071044820358984375,15.526998454857988,0.05671760303188082,0,0,0.8806541346392623,0,0,0,0,0.125,,
0.7894050000011921,1000,,,,-0.0625,0.046875,-0.9609375,0.0006027151714600901,0.007089517893417929,15.527047105389535,0.053166338716321565,0,0,0.8255162456694203,0,0,0,0,0.123046875,,
0.797620000001043,1000,,,,-0.0625,0.048828125,-0.955078125,0.0006027151714600901,0.007089517893417929,15.527177013989482,0.04981796785491893,0,0,0.7735324053605641,0,0,0,0,0.123046875,,
0.8073500000005588,1000,,,,-0.0625,0.05078125,-0.95703125,0.0006027151714600901,0.007089517893417929,15.527222246470753,0.044514110870490675,0,0,0.6911804925901484,0,0,0,0,0.12109375,,
0.8143500000005588,1000,,,,-0.0625,0.05078125,-0.955078125,0.0006027151714600901,0.007089517893417929,15.527409764936671,0.04024838537308971,0,0,0.6249531720650474,0,0,0,0,0.12109375,,
0.8220700000002981,1000,,,,-0.0625,0.052734375,-0.955078125,0.0006027151714600901,0.007089517893417929,15.527614438312696,0.03743214857765356,0,0,0.5812319707114395,0,0,0,0,0.12109375,,
0.8327150000007824,1000,,,,-0.0625,0.05078125,-0.95703125,0.0006027151714600901,0.007089517893417929,15.527821680656647,0.03447414391568131,0,0,0.5353083593159936,0,0,0,0,0.119140625,,
0.8495800000000745,1000,,,,-0.0625,0.05078125,-0.95703125,0.0006027151714600901,0.007089517893417929,15.528068749493132,0.027289801763499405,0,0,0.4237579179436577,0,0,0,0,0.1171875,,
0.8574150000009686,1000,,,,-0.0625,0.048828125,-0.95703125,0.0006027151714600901,0.007089517893417929,15.528120089608542,0.02416144930321454,0,0,0.375181886319304,0,0,0,0,0.1171875,,
0.8643500000005588,1000,,,,-0.0625,0.046875,-0.953125,0.000602105683178637,0.007089517893417929,15.528286219312927,0.023259544048091663,0,0,0.3611808573094838,0,0,0,0,0.1171875,,
0.8714250000007451,1000,,,,-0.0625,0.048828125,-0.95703125,0.000602105683178637,0.007089517893417929,15.528444790093767,0.021563027531019352,0,0,0.3348402825227059,0,0,0,0,0.115234375,,
0.8793300000000746,1000,,,,-0.0625,0.05078125,-0.95703125,0.000602105683178637,0.007089517893417929,15.52875110734739,0.02011916211597664,0,0,0.3124254609873739,0,0,0,0,0.115234375,,
0.8864650000007823,1000,,,,-0.0625,0.048828125,-0.95703125,0.000602105683178637,0.007089517893417929,15.5288048295953,0.019106711384009448,0,0,0.2967043920176894,0,0,0,0,0.115234375,,
0.8944500000001863,1000,,,,-0.0625,0.046875,-0.9609375,0.000602105683178637,0.007089517893417929,15.528960888533762,0.017159516809532344,0,0,0.2664694654013654,0,0,0,0,0.11328125,,
0.9014699999997392,1000,,,,-0.0625,0.05078125,-0.95703125,0.000602105683178637,0.007089517893417929,15.529091752798339,0.01571148273537927,0,0,0.2439850569702117,0,0,0,0,0.11328125,,
0.911355000000447,1000,,,,-0.0625,0.0546875,-0.95703125,0.000602105683178637,0.007089517893417929,15.529237099033809,0.01410533464307534,0,0,0.21904508603353237,0,0,0,0,0.11328125,,
0.9228100000005215,1000,,,,-0.0625,0.03515625,-0.953125,0.000602105683178637,0.007089517893417929,15.529427392432128,0.011104548641392764,0,0,0.17244728185223976,0,0,0,0,0.111328125,,
0.9358150000004097,1000,,,,-0.0625,0.064453125,-1.001953125,0.000602105683178637,0.007089517893417929,15.528981743712897,0.02082014039802378,0,0,0.32331558014245065,0,0,0,0,0.111328125,,
0.9435350000010804,1000,,,,-0.03125,0.048828125,-0.982421875,0.000602105683178637,0.007290550269621618,15.528856606394008,0.027957993264673367,0,0,0.4341556684096422,0,0,0,0,0.111328125,,
0.9505400000000372,1000,,,,-0.03125,-0.013671875,-0.962890625,0.000602105683178637,0.007290550269621618,15.528559614093234,0.03393144099744888,0,0,0.5269064043209721,0,0,0,0,0.109375,,
0.958570000000298,1000,,,,-0.125,0.10546875,-0.96484375,0.000602105683178637,0.007290550269621618,15.528535490025405,0.03906057289257943,0,0,0.6065534924231439,0,0,0,0,0.111328125,,
0.965530000001192,1000,,,,-0.03125,0.072265625,-0.970703125,0.000602105683178637,0.007290550269621618,15.528315278201644,0.04543234394550763,0,0,0.7054877606135381,0,0,0,0,0.109375,,
0.9725100000007078,1000,,,,-0.0625,0.05859375,-1.0390625,0.000602105683178637,0.007290550269621618,15.528129413909515,0.05090029879089086,0,0,0.7903864268316153,0,0,0,0,0.109375,,
0.9840750000001862,1000,,,,-0.03125,-0.015625,-0.947265625,0.000602105683178637,0.007290550269621618,15.52768847611336,0.055620571015228035,0,0,0.8636588995880011,0,0,0,0,0.109375,,
1.0034350000005214,1000,,,,0,0.029296875,-0.96875,0.000602105683178637,0.007290550269621618,15.526835174747275,0.07001390134218015,0,0,1.087094306081048,0,0,0,0,0.107421875,,
1.0116200000001117,1000,,,,-0.03125,-0.046875,-0.923828125,0.000602105683178637,0.007290550269621618,15.526747482669608,0.07713820904942688,0,0,1.1977054931758306,0,0,0,0,0.107421875,,
1.019730000000447,1000,,,,-0.0625,0.078125,-1.0234375,0.0005115842173253067,0.007290550269621618,15.52680332388241,0.08109021160738696,0,0,1.2590717671199037,0,0,0,0,0.107421875,,
1.0302250000005588,1000,,,,-0.03125,0.060546875,-0.953125,0.0005115842173253067,0.007290550269621618,15.526794171908925,0.08738735466329982,0,0,1.3568454690846619,0,0,0,0,0.10546875,,
1.0385050000008196,1000,,,,-0.041015625,-0.015625,-0.984375,0.0005115842173253067,0.007290550269621618,15.526851583279281,0.09070704350320467,0,0,1.408394802032316,0,0,0,0,0.10546875,,
1.0456450000004842,1000,,,,-0.0625,0.08203125,-0.96875,0.0005115842173253067,0.007290550269621618,15.526648401763394,0.0943558988010748,0,0,1.4650308653166566,0,0,0,0,0.10546875,,
1.054175000000745,1000,,,,-0.0625,0.080078125,-0.94921875,0.0005115842173253067,0.007290550269621618,15.526322565983165,0.0965831891372367,0,0,1.499581748996098,0,0,0,0,0.10546875,,
1.0616100000003352,1000,,,,-0.0625,0.05859375,-1.03515625,0.0005115842173253067,0.007290550269621618,15.52620871567958,0.09934286133872676,0,0,1.5424179995578875,0,0,0,0,0.10546875,,
1.0697150000007822,1000,,,,-0.03125,-0.037109375,-0.921875,0.0005115842173253067,0.007290550269621618,15.525839262747828,0.1017497192698368,0,0,1.5797497864132013,0,0,0,0,0.10546875,,
1.0775600000005214,1000,,,,-0.09375,0.09765625,-0.966796875,0.0005115842173253067,0.007290550269621618,15.525749389445664,0.10519955178050415,0,0,1.6333018768261198,0,0,0,0,0.10546875,,
1.0859050000002608,1000,,,,0,0.04296875,-0.9609375,0.0005115842173253067,0.007290550269621618,15.525847604380402,0.10841511632266994,0,0,1.6832365740369477,0,0,0,0,0.103515625,,
1.0935650000004098,1000,,,,0,0.00390625,-1.046875,0.0005115842173253067,0.00764556530291865,15.525530031799189,0.11106256006824185,0,0,1.7243051117479902,0,0,0,0,0.103515625,,
1.1007550000008195,1000,,,,-0.03125,-0.005859375,-0.94140625,0.0005115842173253067,0.00764556530291865,15.525463799816189,0.11343404237033415,0,0,1.7611161184874387,0,0,0,0,0.103515625,,
1.1087850000010804,1000,,,,-0.09375,0.08203125,-0.974609375,0.0005115842173253067,0.00764556530291865,15.525400740151948,0.11569183507425836,0,0,1.7961621018914278,0,0,0,0,0.103515625,,
1.1154400000004099,1000,,,,0,0.03515625,-0.953125,0.0005115842173253067,0.00764556530291865,15.52533247497617,0.11813928468335307,0,0,1.834151673064916,0,0,0,0,0.103515625,,
1.1225300000011922,1000,,,,0,-0.025390625,-0.958984375,0.0005115842173253067,0.00764556530291865,15.525275157057965,0.11907177522351815,0,0,1.8486220737844765,0,0,0,0,0.103515625,,
1.1338950000004844,1000,,,,-0.0625,0.0546875,-0.98828125,0.0005115842173253067,0.00764556530291865,15.525335564975432,0.12034667336224088,0,0,1.8684224880772797,0,0,0,0,0.103515625,,
1.1512600000007078,1000,,,,0,0.025390625,-0.951171875,0.0005115842173253067,0.00764556530291865,15.52538204910709,0.12534975078024402,0,0,1.946102770623648,0,0,0,0,0.1015625,,
1.1594300000006332,1000,,,,-0.03125,-0.001953125,-0.974609375,0.0005115842173253067,0.00764556530291865,15.525309140072686,0.1288624676502224,0,0,2.000629646822319,0,0,0,0,0.1015625,,
1.1666650000000371,1000,,,,-0.0625,0.02734375,-0.97265625,0.0004096828845910274,0.00764556530291865,15.525252864388108,0.13101052544954633,0,0,2.03397153550056,0,0,0,0,0.099609375,,
1.174605000000447,1000,,,,-0.0625,0.083984375,-0.97265625,0.0004096828845910274,0.00764556530291865,15.525191101658772,0.13272907927872413,0,0,2.0606443205494096,0,0,0,0,0.099609375,,
1.1859700000006705,1000,,,,-0.03125,0.005859375,-0.958984375,0.0004096828845910274,0.00764556530291865,15.5248356406012,0.1349975473769653,0,0,2.09581473491166,0,0,0,0,0.099609375,,
1.1946349999997765,1000,,,,-0.03125,0.017578125,-0.98828125,0.0004096828845910274,0.00764556530291865,15.524621281888784,0.13732776956254455,0,0,2.131961613944998,0,0,0,0,0.099609375,,
1.2017700000004843,1000,,,,-0.0625,0.076171875,-0.9609375,0.0004096828845910274,0.00764556530291865,15.524767084145074,0.13855787620875382,0,0,2.151078755814709,0,0,0,0,0.099609375,,
1.209515000000596,1000,,,,0,0.0390625,-0.97265625,0.0004096828845910274,0.00764556530291865,15.52485995016484,0.13946683791800124,0,0,2.165203126369309,0,0,0,0,0.09765625,,
1.2179400000004097,1000,,,,-0.03125,0.00390625,-0.96875,0.0004096828845910274,0.00764556530291865,15.524909451137804,0.1400457159816907,0,0,2.1741970596355102,0,0,0,0,0.09765625,,
1.2246750000007451,1000,,,,-0.09375,0.060546875,-0.96875,0.0004096828845910274,0.00764556530291865,15.525060322841364,0.1413053700606569,0,0,2.1937743941331207,0,0,0,0,0.09765625,,
1.2316100000003354,1000,,,,-0.0625,0.1171875,-0.9765625,0.0004096828845910274,0.00764556530291865,15.525014785374465,0.1416137929556764,0,0,2.198556229449834,0,0,0,0,0.09765625,,
1.2385750000011175,1000,,,,0,0.04296875,-0.98046875,0.0004096828845910274,0.00809000866221315,15.525143162273823,0.14349504203725427,0,0,2.227781070704873,0,0,0,0,0.09765625,,
1.2456300000008196,1000,,,,-0.03125,0.03515625,-1.025390625,0.0004096828845910274,0.00809000866221315,15.525093788833454,0.14333524083933807,0,0,2.2252930572757545,0,0,0,0,0.09765625,,
1.2535450000008568,1000,,,,-0.0625,0.01171875,-0.9296875,0.0004096828845910274,0.00809000866221315,15.52516206502075,0.14374669767197545,0,0,2.23169077766896,0,0,0,0,0.095703125,,
1.2620900000007824,1000,,,,-0.09375,0.1015625,-0.96484375,0.0004096828845910274,0.00809000866221315,15.525104921068422,0.14451373804013978,0,0,2.243590945608967,0,0,0,0,0.095703125,,
1.2697250000005589,1000,,,,-0.03125,0.05078125,-0.982421875,0.0004096828845910274,0.00809000866221315,15.525117436833563,0.14544034253071247,0,0,2.2579783978426105,0,0,0,0,0.095703125,,undefined,0,
1.2783600000003352,1000,,,,0,0.02734375,-0.98828125,0.0004096828845910274,0.00809000866221315,15.525059162666878,0.14786470535934476,0,0,2.2956082987741335,0,0,0,0,0.095703125,,
1.2926500000003724,1180,,,,-0.09375,0.03125,-0.92578125,0.0004096828845910274,0.00809000866221315,15.525152334371286,0.14915740357399393,0,0,2.315691412285552,0,0,0,0,0.095703125,,
1.3030900000007823,1180,,,,-0.01953125,0.046875,-0.98828125,0.0004096828845910274,0.00809000866221315,15.52513883574696,0.15065019455830803,0,0,2.338865186150023,0,0,0,0,0.095703125,,
1.3259150000009685,1180,,,,-0.041015625,0.064453125,-0.958984375,0.00046902109024322345,0.00809000866221315,15.524990520627034,0.1536166844642753,0,0,2.384897570118028,0,0,0,0,0.095703125,,
1.3338050000006334,1180,,,,-0.0625,0.05859375,-1.0390625,0.00046902109024322345,0.00809000866221315,15.525043659468166,0.15460189377879008,0,0,2.4002011507521757,0,0,0,0,0.095703125,,
1.3416850000005216,1180,,,,-0.03125,-0.048828125,-0.9609375,0.00046902109024322345,0.00809000866221315,15.524894542614403,0.1554718224897999,0,0,2.41368364850221,0,0,0,0,0.095703125,,
1.3497000000001862,1180,,,,-0.09375,0.099609375,-0.95703125,0.00046902109024322345,0.00809000866221315,15.524785094635458,0.15576800713453182,0,0,2.4182648353832494,0,0,0,0,0.095703125,,
1.356730000000447,1180,,,,0,0.05078125,-0.953125,0.00046902109024322345,0.00809000866221315,15.52475129562338,0.1559215726998469,0,0,2.4206436377875833,0,0,0,0,0.095703125,,
1.3647250000005589,1180,,,,-0.03125,0.001953125,-1.005859375,0.00046902109024322345,0.00809000866221315,15.524714549727221,0.1570452289752361,0,0,2.4380823512370906,0,0,0,0,0.095703125,,
1.374785000000149,1180,,,,-0.0625,-0.0234375,-0.87890625,0.00046902109024322345,0.00809000866221315,15.524784838669401,0.15752578767902703,0,0,2.445553960258814,0,0,0,0,0.095703125,,
1.3834850000003354,1180,,,,-0.0625,0.076171875,-0.9609375,0.00046902109024322345,0.00809000866221315,15.524796896733006,0.15762618633788544,0,0,2.4471145285022624,0,0,0,0,0.095703125,,
1.391835000000894,1180,,,,0,0.00390625,-0.98046875,0.00046902109024322345,0.007975992798414707,15.525082152544305,0.16057463248461468,0,0,2.492934360938252,0,0,0,0,0.09375,,
1.398710000000894,1180,,,,-0.03125,-0.00390625,-0.9453125,0.00046902109024322345,0.007975992798414707,15.525035806520574,0.16080038634157512,0,0,2.4964317556552955,0,0,0,0,0.09375,,
1.4063050000006334,1180,,,,-0.0625,0.09765625,-1,0.00046902109024322345,0.007975992798414707,15.524987815913924,0.1612354617826548,0,0,2.5031785796689707,0,0,0,0,0.09375,,
1.4137500000009313,1180,,,,-0.0625,0.05859375,-0.953125,0.00046902109024322345,0.007975992798414707,15.524942730952459,0.16025595476837406,0,0,2.487964520073115,0,0,0,0,0.09375,,
1.4207949999999254,1180,,,,0,0.01171875,-0.97265625,0.00046902109024322345,0.007975992798414707,15.524786310431807,0.16068621951736234,0,0,2.494619221038187,0,0,0,0,0.09375,,
1.428765000000596,1180,,,,-0.03125,0.01171875,-0.974609375,0.00046902109024322345,0.007975992798414707,15.524748177694716,0.15682620946941256,0,0,2.4346874096750324,0,0,0,0,0.09375,,
1.4358400000007823,1180,,,,-0.0625,0.09375,-0.96875,0.00046902109024322345,0.007975992798414707,15.524947402177773,0.14873286646248018,0,0,2.3090699288051355,0,0,0,0,0.09375,,
1.4470750000001862,1180,,,,-0.0625,0.046875,-0.94921875,0.00046902109024322345,0.007975992798414707,15.525249784777284,0.14081373769464572,0,0,2.1861684508374832,0,0,0,0,0.091796875,,
1.4724500000001863,1180,,,,-0.0625,0.05078125,-0.953125,0.0003845193162755593,0.007975992798414707,15.5262052508576,0.11073864813693425,0,0,1.7193509801765408,0,0,0,0,0.091796875,,
1.4896300000008196,1180,,,,-0.0625,0.05078125,-0.953125,0.0003845193162755593,0.007975992798414707,15.526816690745903,0.09572114974975392,0,0,1.4862447455918673,0,0,0,0,0.08984375,,
1.497835000000894,1180,,,,-0.0625,0.048828125,-0.95703125,0.0003845193162755593,0.007975992798414707,15.52724753962187,0.09075375239951398,0,0,1.409155978656806,0,0,0,0,0.08984375,,
1.5058900000005961,1180,,,,-0.0625,0.046875,-0.95703125,0.0003845193162755593,0.007975992798414707,15.527545364163752,0.08545137270682031,0,0,1.3268500661352165,0,0,0,0,0.08984375,,
1.5138850000007078,1180,,,,-0.0625,0.05078125,-0.953125,0.0003845193162755593,0.007975992798414707,15.52757000703544,0.07993797323666423,0,0,1.241242475652829,0,0,0,0,0.08984375,,
1.5209500000001863,1180,,,,-0.0625,0.05078125,-0.95703125,0.0003845193162755593,0.007975992798414707,15.527588451473555,0.07488228334076862,0,0,1.1627412780220894,0,0,0,0,0.08984375,,
1.5288150000013412,1180,,,,-0.0625,0.05078125,-0.955078125,0.0003845193162755593,0.007975992798414707,15.527803515549529,0.06979560557789154,0,0,1.0837724496622925,0,0,0,0,0.087890625,,
1.5358650000002234,1180,,,,-0.0625,0.046875,-0.95703125,0.0003845193162755593,0.007975992798414707,15.527898505063524,0.06662985014891402,0,0,1.0346215505199288,0,0,0,0,0.087890625,,
1.544050000000745,1180,,,,-0.0625,0.048828125,-0.955078125,0.0003845193162755593,0.007908721553654666,15.528002417839192,0.061879441752184336,0,0,0.9608641211424578,0,0,0,0,0.087890625,,
1.5519050000002608,1180,,,,-0.0625,0.046875,-0.95703125,0.0003845193162755593,0.007908721553654666,15.528002340471955,0.05710923256389029,0,0,0.8867922969146457,0,0,0,0,0.087890625,,
1.5588300000000745,1180,,,,-0.0625,0.046875,-0.95703125,0.0003845193162755593,0.007908721553654666,15.528059674507725,0.053379099159479956,0,0,0.82887383711987,0,0,0,0,0.087890625,,
1.5658150000004099,1180,,,,-0.0625,0.048828125,-0.95703125,0.0003845193162755593,0.007908721553654666,15.527885310075153,0.049822117427234636,0,0,0.773632125315196,0,0,0,0,0.0859375,,
1.5738650000002234,1180,,,,-0.0625,0.05078125,-0.95703125,0.0003845193162755593,0.007908721553654666,15.528021830154527,0.04593093338795966,0,0,0.713216536327611,0,0,0,0,0.0859375,,
1.5808300000000746,1180,,,,-0.0625,0.05078125,-0.955078125,0.0003845193162755593,0.007908721553654666,15.527935192004005,0.04325460498084675,0,0,0.671654702898322,0,0,0,0,0.0859375,,
1.5888950000004842,1180,,,,-0.0625,0.05078125,-0.953125,0.0003845193162755593,0.007908721553654666,15.528069998248556,0.04030863390185416,0,0,0.6259152887617662,0,0,0,0,0.0859375,,
1.5997450000010431,1180,,,,-0.0625,0.048828125,-0.95703125,0.0003845193162755593,0.007908721553654666,15.528154336858433,0.037262484517304184,0,0,0.5786176105594972,0,0,0,0,0.0859375,,
1.617695000000298,1180,,,,-0.0625,0.048828125,-0.95703125,0.00033547035826804087,0.007908721553654666,15.528119708737218,0.029311770986233873,0,0,0.45515668874932996,0,0,0,0,0.083984375,,
1.626195000000298,1180,,,,-0.0625,0.05078125,-0.955078125,0.00033547035826804087,0.007908721553654666,15.528312468323323,0.026391996619731795,0,0,0.4098231701741282,0,0,0,0,0.083984375,,
1.633940000001341,1180,,,,-0.0625,0.046875,-0.953125,0.00033547035826804087,0.007908721553654666,15.528585336799567,0.024536537497280145,0,0,0.3810177163960972,0,0,0,0,0.083984375,,
1.641964999999851,1180,,,,-0.21875,0.23046875,-0.927734375,0.00033547035826804087,0.007908721553654666,15.526828324532246,0.14234973313420207,0,0,2.210239868417735,0,0,0,0,0.0859375,,
1.6499350000005215,1180,,,,0.03125,0.169921875,-0.9609375,0.00033547035826804087,0.007908721553654666,15.5224531927662,0.28600296901388955,0,0,4.439467699510263,0,0,0,0,0.09375,,
1.657955000001006,1180,,,,0.3125,-0.2421875,-1.06640625,0.00033547035826804087,0.007908721553654666,15.520109600791692,0.3675951864734906,0,0,5.705117582792034,0.0000016645897358750378,0.000029177132841150005,0,0.0013862504039371978,0.09765625,,
1.6649000000003726,1180,,,,-0.1875,0.298828125,-0.888671875,0.00033547035826804087,0.007908721553654666,15.516584487063218,0.48387273317671997,0,0,7.508052145322773,0.000002600541067175844,0.00003463669426957671,0,0.001053365293764175,0.1015625,,
1.672980000000447,1180,,,,-0.25,0.2265625,-0.89453125,0.00033547035826804087,0.007908721553654666,15.515376619800003,0.527583406768254,0,0,8.185655254366603,0.0000030421659183986426,0.00003716459860407402,0,0.0009661684138769211,0.103515625,,
1.6800549999997019,1180,,,,-0.03125,0.05859375,-1.005859375,0.00033547035826804087,0.007908721553654666,15.514485646237649,0.5512334357276213,489,0,8.552103226322444,0.017162590236842898,0.20068268334295017,0,0.0009247691876908689,0.10546875,,
1.6869900000002236,1180,,,,-0.0625,0.171875,-0.98046875,0.00033547035826804087,0.007882013752870795,15.514204686286073,0.5565369879279383,1193,0,8.634228746203155,0.041921166161439996,0.48552299682672356,0,0.0009128798859234369,0.10546875,,
1.6939050000002607,1180,,,,-0.09375,0.07421875,-0.994140625,0.00033547035826804087,0.007882013752870795,15.5142815791693,0.5554198148449387,1497,0,8.616939402154456,0.052607016134066514,0.6105069756079915,0,0.0009147115216918074,0.10546875,,
1.700940000001341,1180,,,,0.125,-0.04296875,-1.01953125,0.00033547035826804087,0.007882013752870795,15.514183396455483,0.5532209857792877,1994,0,8.58277183214776,0.07004127104262857,0.816068193497594,0,0.0009183529408701984,0.10546875,,
1.709635000000708,1180,,,,0,0.017578125,-0.96875,0.00033547035826804087,0.007882013752870795,15.514175413148005,0.5503746014735281,2212,0,8.538608110201741,0.077717039100403,0.9101839327600524,0,0.0009231028817745528,0.107421875,,
1.719535000000149,1180,,,,-0.1875,0.06640625,-1.0390625,0.00033547035826804087,0.007882013752870795,15.514103711490737,0.5778758891863257,2441,0,8.965226477206585,0.0857577431832541,0.9565596965262029,0.09191022828140276,0.0008791762007251266,0.107421875,,
1.7278450000006706,1180,,,,-0.041015625,0.044921875,-0.986328125,0.00033547035826804087,0.007882013752870795,15.510776162229831,0.6702481039826406,2642,0,10.396068314033682,0.09281091551755312,0.892750150480133,0.08492550373969847,0.000758172562432169,0.107421875,,
1.7362600000007078,1180,,,,0.0625,0,-1.0078125,0.00033547035826804087,0.007882013752870795,15.509127078823488,0.713007130254791,2889,0,11.058118191228806,0.1014963679290859,0.9178448464187319,0.07765808682314473,0.0007127807477336184,0.107421875,,
1.7440950000006705,1180,,,,-0.09375,-0.08203125,-0.927734375,0.00033547035826804087,0.007882013752870795,15.508285100921054,0.7360376108663823,3211,0,11.414681114316645,0.11281481105506855,0.9883308164743448,0.06986683467495532,0.0006905154575877666,0.107421875,,
1.7551400000005961,1180,,,,0.0625,0.140625,-1.04296875,0.00033547035826804087,0.007882013752870795,15.507684772795134,0.7514404084795523,3531,0,11.653100980241309,0.12405231209367172,1.064543354631626,0.0635378222287312,0.0006763876642136141,0.107421875,,
1.7636700000008567,1180,,,,-0.08203125,0.044921875,-0.94140625,0.00033547035826804087,0.007882013752870795,15.506858616218475,0.7684947863848727,3849,0,11.91693999977124,0.1352019636936413,1.1345359101936963,0.058298071548212996,0.0006614125566648905,0.109375,,
1.7723000000007452,1180,,,,-0.1875,0.1796875,-1.0234375,0.0003691144536168591,0.007882013752870795,15.50644805336277,0.7785836551593593,4023,0,12.07306700392592,0.15551266992871293,1.288095807619914,0.05068406166831239,0.0006528592734810237,0.109375,,
1.7799850000003352,1180,,,,-0.03125,-0.0078125,-0.9921875,0.0003691144536168591,0.007882013752870795,15.50581239659146,0.7866217938965967,4169,0,12.197209963230861,0.16114347536547194,1.3211502946267837,0.048913018259004654,0.0006462144848396925,0.109375,,
1.7871050000004471,1180,,,,-0.0625,0.041015625,-0.951171875,0.0003691144536168591,0.007882013752870795,15.505476805916533,0.7898797570853842,4256,0,12.24746225295041,0.16451028629815828,1.3432193780268873,0.0479119812519531,0.0006435630165728431,0.109375,,
1.7962500000009314,1180,,,,-0.1875,0.21875,-0.98828125,0.0003691144536168591,0.007882013752870795,15.505142462063947,0.7904597253899961,4364,0,12.256190652695835,0.1686955629252346,1.3764110538548846,0.04672330212006869,0.0006431046951066392,0.109375,,
1.8040849999999629,1180,,,,-0.0625,0.04296875,-0.9609375,0.0003691144536168591,0.007882013752870795,15.505225768627325,0.7927334307179517,4429,0,12.291510817620328,0.1712014718621336,1.3928431939929635,0.04603940414261205,0.0006412567071552866,0.109375,,
1.8110200000004844,1180,,,,-0.09375,0.091796875,-0.958984375,0.0003691144536168591,0.007882013752870795,15.505086732661674,0.7904063797020795,4473,0,12.255319471329859,0.1728826641563381,1.4106744794436445,0.0455916953347218,0.0006431504108326191,0.111328125,,
1.8310300000002608,1180,,,,-0.0625,0.103515625,-1.017578125,0.0003691144536168591,0.007882013752870795,15.505546072532294,0.7800434524535313,4554,0,12.094999690595385,0.1760281585477981,1.4553796035618831,0.044777005099048056,0.0006516753992974098,0.111328125,,
1.8398800000008195,1180,,,,0,0.115234375,-0.9765625,0.0003691144536168591,0.012839835583164514,15.50556728663984,0.7750801982189078,4574,0,12.01805816602542,0.17681575069969832,1.4712505818914199,0.07261703514734687,0.0010683785521576378,0.11328125,,
1.8469550000000745,1180,,,,-0.03125,-0.046875,-0.947265625,0.0003691144536168591,0.012839835583164514,15.505691546545659,0.7662376454937699,4587,0,11.881044582377799,0.17729621656103847,1.4922611840377045,0.07242024580227911,0.0010806992174921062,0.11328125,,
1.854160000000149,1180,,,,-0.125,0.0546875,-0.99609375,0.0003691144536168591,0.012839835583164514,15.50579154326343,0.764484230186678,4587,0,11.853933111386844,0.17729173544237137,1.495636374665094,0.07242207625260738,0.001083170915721687,0.11328125,,
1.8610750000001863,1180,,,,-0.03125,0.064453125,-1.029296875,0.0003691144536168591,0.012839835583164514,15.50588577562271,0.7600537283907677,4604,0,11.785306295763412,0.17797475032626325,1.5101410676975082,0.07214414156854572,0.0010894783097644381,0.11328125,,
1.8690450000008567,1180,,,,-0.0625,-0.15234375,-0.9609375,0.0003691144536168591,0.012839835583164514,15.50598910275115,0.7543472917709985,4604,0,11.696900885890944,0.1779742794933277,1.5215507186865551,0.0721443324266745,0.0010977126085296835,0.11328125,,
1.876125,1180,,,,-0.125,0.083984375,-0.96484375,0.0003691144536168591,0.012839835583164514,15.506250639902563,0.7508392675301191,4604,0,11.642701872602881,0.17795966823492235,1.5285083323630366,0.07215025578837789,0.0011028226715466003,0.11328125,,
1.8831700000008569,1180,,,,0,0.05078125,-0.98828125,0.0003691144536168591,0.012839835583164514,15.506497344104034,0.7452894399044481,4603,0,11.556828720467108,0.1779247452010735,1.5395637462894065,0.07216441742633473,0.0011110172084168044,0.11328125,,
1.8911200000001118,1180,,,,0.03125,-0.015625,-1.005859375,0.0003691144536168591,0.012839835583164514,15.506833824489206,0.7394133394814912,4613,0,11.465959782950108,0.17832709883705916,1.5552740652573342,0.07200159519724209,0.0011198221366742766,0.11328125,,
1.8989550000010058,1180,,,,-0.1875,0.1328125,-0.99609375,0.0003691144536168591,0.012839835583164514,15.506793255395813,0.7343100837659831,4607,0,11.38679465431148,0.1780680051897941,1.563811507941532,0.07210635941857804,0.0011276075465454062,0.115234375,,
1.9105150000005962,1180,,,,-0.09375,0.048828125,-0.95703125,0.0003691144536168591,0.012839835583164514,15.506671266110999,0.7285320327101711,4611,0,11.297106738068248,0.17823259494001664,1.5776835527225759,0.07203977245287654,0.0011365596414078022,0.115234375,,
1.9301550000002607,1180,,,,-0.08203125,0.02734375,-1,0.0051668825629362595,0.012839835583164514,15.505760794598327,0.7369713526409178,4624,0,11.427301506521642,2.5019809006421108,21.89476578713017,0.005131867945062765,0.0011236104670763023,0.1171875,,
1.9404599999999628,1180,,,,-0.0625,0.0859375,-0.9609375,0.0051668825629362595,0.012839835583164514,15.505333992960686,0.7468723503573036,4680,0,11.580505242397543,2.5321809088843663,21.865893204847097,0.005070662818013866,0.0011087457165648025,0.1171875,,
1.9492900000009685,1180,,,,-0.0625,0.060546875,-0.951171875,0.0051668825629362595,0.012839835583164514,15.505869483199007,0.7282676238114633,4727,0,11.292422723660023,2.5575868158285395,22.648698852460175,0.005020293154351831,0.0011370310780398198,0.119140625,,
1.9587250000005587,1180,,,,0,-0.02734375,-0.96484375,0.0051668825629362595,0.012839835583164514,15.506171290524103,0.7170407060692007,4729,0,11.11855601058737,2.558736808410486,23.013211481544833,0.0050180368457437225,0.0011548114315328446,0.119140625,,
1.966339999999851,1180,,,,-0.09375,0.16015625,-0.98828125,0.0051668825629362595,0.012839835583164514,15.506346005163902,0.7081670122171174,4703,0,10.981082720881755,2.544806351924638,23.174457534004407,0.005045505947222169,0.0011692686331146685,0.119140625,,
1.9730850000008942,1180,,,,0,-0.0625,-0.87890625,0.0051668825629362595,0.012839835583164514,15.506584877676497,0.7014840270706375,4682,0,10.877621606105158,2.5331212873214795,23.2874554663654,0.005068780420199045,0.0011803899830417014,0.119140625,,
1.9802000000001863,1180,,,,-0.03125,0.025390625,-0.982421875,0.0051668825629362595,0.012839835583164514,15.50673181400268,0.6986061102982821,4671,0,10.833097596019037,2.5272701613337754,23.329155294073047,0.005080515640792533,0.0011852413835801605,0.119140625,,
1.9870400000000372,1180,,,,0,-0.01953125,-0.94140625,0.0051668825629362595,0.044313005985906394,15.506958508216638,0.6936112607299074,4645,0,10.755801040970507,2.5130671284132653,23.364760270672587,0.017633037130164265,0.004119916853901565,0.119140625,,
1.9941550000002608,1180,,,,-0.09375,0.037109375,-0.9765625,0.0051668825629362595,0.044313005985906394,15.506831343775339,0.6905140253457308,4633,0,10.707684531547658,2.5068623295398402,23.41180599927056,0.01767668110998361,0.004138430288579068,0.119140625,,
2.002145000000484,1180,,,,-0.125,0.16015625,-0.9765625,0.0051668825629362595,0.044313005985906394,15.506557810111826,0.6875153497169628,4637,0,10.660996515725333,2.5092099217487656,23.536354392833683,0.01766014298039398,0.004156553838146669,0.119140625,,
2.0100449999999257,1180,,,,-0.09375,0.072265625,-1.033203125,0.0051668825629362595,0.044313005985906394,15.507015560557079,0.6827435675046126,4627,0,10.587315125164281,2.503597330753984,23.647140952698674,0.01769973367584678,0.0041854809705797625,0.119140625,,
2.0172600000007077,1180,,,,-0.125,0.39453125,-1.0078125,0.0051668825629362595,0.044313005985906394,15.507115567050654,0.6784161020716816,4622,0,10.520276897373599,2.500895303143012,23.772143333673696,0.01771885689505507,0.004212152058181016,0.12109375,,
2.024200000000186,1180,,,,-0.0625,0.080078125,-0.974609375,0.0051668825629362595,0.044313005985906394,15.507239238437304,0.6765372036429246,4617,0,10.49122427059421,2.498110346101861,23.811428310648168,0.017738610328024124,0.004223816481562696,0.12109375,,
2.031210000000894,1180,,,,-0.1875,0.18359375,-1.0390625,0.0051668825629362595,0.044313005985906394,15.507358852185822,0.6752840518301124,4617,0,10.471872118887603,2.497897139127887,23.85339613365362,0.017740124399749216,0.004231622147675122,0.12109375,,
2.03828500000108,1180,,,,-0.03125,-0.00390625,-0.9609375,0.0051668825629362595,0.044313005985906394,15.507386705295206,0.6735198699183853,4620,0,10.444533076524525,2.4996299383767235,23.9324239778126,0.01772782654967061,0.0042426986119183975,0.123046875,,
2.045225000000559,1180,,,,0.0625,0.08984375,-1.0234375,0.0051668825629362595,0.044313005985906394,15.507498359653653,0.6718567361048847,4620,0,10.418817233068756,2.49977184635205,23.99285629483845,0.017726820169837877,0.004253170488993639,0.123046875,,
2.053605000000447,1180,,,,-0.0625,0.201171875,-0.9140625,0.0051668825629362595,0.044313005985906394,15.507433109124904,0.6691007484977998,4620,0,10.376035100595034,2.4998348762777858,24.092390320985206,0.017726373212253024,0.004270707024050562,0.123046875,,
2.065160000000149,1180,,,,0.125,-0.09375,-0.8984375,0.0051668825629362595,0.044313005985906394,15.507464457239557,0.6698324061006752,4617,0,10.387402229913473,2.49802252927151,24.048578017685163,0.01773923392069216,0.004266033509157325,0.123046875,,
2.0747900000009687,1180,,,,0.08203125,-0.12109375,-0.984375,0.007223954395296791,0.044313005985906394,15.507403687261679,0.6737656797023482,4616,0,10.448356385766566,3.4922578676428007,33.423992623377416,0.012688927240019857,0.004241146104689965,0.125,,
2.0822500000009314,1180,,,,-0.0625,0.06640625,-0.98046875,0.007223954395296791,0.044313005985906394,15.507332862518181,0.6721159548177745,4628,0,10.42272583356846,3.501178430137331,33.591773265886836,0.012656597448581977,0.004251575518103676,0.125,,
2.091280000001192,1180,,,,0.0625,-0.078125,-0.953125,0.007223954395296791,0.044313005985906394,15.507361842352624,0.6687956471721694,4636,0,10.37125609928923,3.506760257433269,33.81230030250238,0.012636451520167725,0.004272674935579238,0.125,,
2.0992000000011175,1180,,,,0.03125,-0.0390625,-1.060546875,0.007223954395296791,0.044313005985906394,15.507102837808892,0.6657111178458684,4633,0,10.323250764708597,3.505133772547103,33.95377921584418,0.012642315204336728,0.004292543792251593,0.125,,
2.106320000000298,1180,,,,-0.0625,0.078125,-1.02734375,0.007223954395296791,0.044313005985906394,15.507211754963397,0.6656750638839436,4628,0,10.3227641756471,3.5009261846403548,33.91461942819103,0.012657509370040777,0.004292746131936948,0.125,,
2.1137150000007825,1180,,,,-0.0625,0.041015625,-1.060546875,0.007223954395296791,0.044313005985906394,15.507075343745662,0.6643545501352452,4626,0,10.302196063907502,3.49938551060054,33.967374420879196,0.0126630820901758,0.004301316506793309,0.126953125,,
2.1212949999999253,1180,,,,-0.03125,0.0625,-1.04296875,0.007223954395296791,0.044313005985906394,15.507022470804744,0.6635309119882953,4637,0,10.28938876227606,3.507844145334162,34.091861298845615,0.01263254698611619,0.004306670397018234,0.126953125,,
2.1293650000002233,1180,,,,-0.125,0.1484375,-0.98046875,0.007223954395296791,0.044313005985906394,15.507065247447859,0.6577083745811247,4629,0,10.199126678422378,3.501487196775897,34.33124528381203,0.01265548136994731,0.004344784350963746,0.126953125,,
2.1372900000009687,1180,,,,-0.0625,0.2109375,-1.08984375,0.007223954395296791,0.05926725683688207,15.507110857420566,0.6565808179904115,4625,0,10.181671531433185,3.4985728669460308,34.36147842861679,0.016940409444327953,0.005820975136932111,0.126953125,,
2.1453100000005216,1180,,,,-0.03125,0.04296875,-0.974609375,0.007223954395296791,0.05926725683688207,15.507268643741357,0.6557354677370578,4623,0,10.168666057427949,3.4973495352790707,34.39339551055811,0.016946334999985307,0.005828420021089085,0.12890625,,
2.1523050000006334,1180,,,,0,-0.171875,-0.984375,0.007223954395296791,0.05926725683688207,15.50721381934821,0.650317911523326,4623,0,10.084618904544188,3.49696030825689,34.67617707081761,0.016948221201408112,0.005876995194154129,0.12890625,,
2.1592700000004843,1180,,,,-0.125,0.06640625,-0.9296875,0.007223954395296791,0.05926725683688207,15.507247658745825,0.6499216506992243,4622,0,10.078495996173768,3.4967913000382254,34.695566693341526,0.016949040349143567,0.005880565598218472,0.12890625,,
2.166410000000149,1180,,,,-0.09375,-0.056640625,-0.986328125,0.007223954395296791,0.05926725683688207,15.507194341229777,0.6487086954140712,4622,0,10.059651810631635,3.496717707259197,34.75982840244688,0.016949397062806373,0.005891581334280867,0.130859375,,
2.174465000000782,1180,,,,-0.125,0.16796875,-1.08203125,0.007223954395296791,0.05926725683688207,15.507230977983571,0.6480669733888359,4622,0,10.04972424554341,3.4962462751930063,34.78947471363137,0.016951682510869544,0.005897401300654032,0.130859375,,
2.1815800000010057,1180,,,,-0.03125,0.021484375,-0.921875,0.007223954395296791,0.05926725683688207,15.507172139941403,0.646177293378587,4621,0,10.020382521343166,3.495592736698839,34.88482330143898,0.016954851809439554,0.0059146700947438164,0.130859375,,
2.1884750000005586,1180,,,,0,-0.046875,-0.953125,0.007223954395296791,0.05926725683688207,15.507094049201779,0.6475288750777235,4620,0,10.041291165404088,3.495346575651482,34.809732315045565,0.016956045861013225,0.005902354175435067,0.130859375,,
2.196350000000559,1180,,,,0,-0.0859375,-0.9375,0.007223954395296791,0.05926725683688207,15.506960871634838,0.6472521349359646,4623,0,10.036913530534115,3.496936208314799,34.840752564784815,0.0169483380039819,0.005904928507810723,0.130859375,,
2.2045450000008566,1180,,,,0.0625,-0.08203125,-0.919921875,0.007223954395296791,0.05926725683688207,15.506944796157335,0.6470342541735093,4622,0,10.033524460691442,3.496759430125755,34.85075901120375,0.016949194824864067,0.005906923042752793,0.130859375,,
2.2151300000008196,1180,,,,-0.125,0.09765625,-1.046875,0.007223954395296791,0.05926725683688207,15.506996390655631,0.6451548593110743,4622,0,10.004414074750771,3.4966994173400647,34.951566290774245,0.016949485718725746,0.005924110736925743,0.130859375,,
2.232265000000596,1180,,,,-0.09375,0.134765625,-1.044921875,0.007982025564214403,0.05926725683688207,15.507175520646488,0.6405478745182747,4623,0,9.933088319531928,3.8639254530977,38.899537875847436,0.015338612909668753,0.005966649538426221,0.1328125,,
2.240835000000894,1180,,,,-0.0625,0.041015625,-0.98828125,0.007982025564214403,0.05926725683688207,15.507567392403049,0.639416083219597,4619,0,9.915788002314295,3.8611918845103164,38.939839008348436,0.015349472030810107,0.005977059697428927,0.134765625,,
2.2484700000006708,1180,,,,-0.0625,0.0703125,-0.99609375,0.007982025564214403,0.05926725683688207,15.507301699922163,0.638448915901016,4614,0,9.900619958865288,3.8563663577508445,38.9507563543811,0.015368679046211942,0.005986216730176834,0.134765625,,
2.2563300000000743,1180,,,,0,0.083984375,-0.92578125,0.007982025564214403,0.05926725683688207,15.50733179952304,0.6394039534848038,4611,0,9.915449260615649,3.8543542007760707,38.872209412493675,0.01537670223067425,0.00597726389184328,0.1328125,,
2.2643650000002236,1180,,,,0.03125,0.076171875,-0.9453125,0.007982025564214403,0.05926725683688207,15.507295660650698,0.6377262988139663,4611,0,9.889410266280649,3.8542382092979683,38.973387750324626,0.01537716498526367,0.005993002134713959,0.134765625,,
2.2723800000008194,1180,,,,0,-0.09375,-0.921875,0.007982025564214403,0.05926725683688207,15.507326423602327,0.6387262081992191,4612,0,9.904935805855072,3.8548287590037376,38.91826090104537,0.015374809243718368,0.005983608374508355,0.134765625,,
2.2816100000003354,1180,,,,0,0.017578125,-1.060546875,0.007982025564214403,0.05926725683688207,15.507144510371866,0.6375503642320046,4606,0,9.886585630785914,3.8498180262863224,38.939813703715316,0.015394820334937614,0.005994714358446389,0.134765625,,
2.303515000000596,1180,,,,-0.0625,-0.03125,-0.966796875,0.007982025564214403,0.06624240776661786,15.50714452550458,0.6407741843317628,4608,0,9.936577884644958,3.8513171303592983,38.75898901080177,0.017199935898407293,0.006666521264728631,0.134765625,,
2.312390000000596,1180,,,,0,0.0078125,-0.9375,0.007982025564214403,0.06624240776661786,15.507055889435502,0.639408282607501,4610,0,9.915339974562489,3.8532160010950456,38.86115867918152,0.017191459743703032,0.006680800450268048,0.134765625,,
2.3213550000004473,1180,,,,0.0625,-0.07421875,-0.955078125,0.007982025564214403,0.06624240776661786,15.507326380366635,0.6396194503218458,4613,0,9.918787575371566,3.8556024983085346,38.871711577754006,0.01718081876844893,0.006678478318368096,0.134765625,,
2.3284350000005216,1180,,,,-0.125,0.18359375,-1.0390625,0.007982025564214403,0.06624240776661786,15.507359434942282,0.6400116332988067,4612,0,9.92489044010907,3.854741109426049,38.83913009102886,0.01718465803180256,0.0066743716886702355,0.13671875,,
2.350390000000596,1180,,,,-0.08203125,0.140625,-1.00390625,0.007982025564214403,0.06624240776661786,15.507336124159027,0.6402295333481057,4620,0,9.928254570242556,3.861420599663795,38.893247270647464,0.017154931988601664,0.006672110117438245,0.138671875,,
2.359100000000559,1180,,,,-0.03125,0.0234375,-0.9765625,0.007982025564214403,0.06624240776661786,15.507220318908635,0.6394000376241926,4620,0,9.915317255356825,3.8613895869541635,38.94368165444246,0.01715506976825651,0.0066808157581473146,0.138671875,,
2.3706800000006334,1180,,,,-0.125,0.16015625,-0.94140625,0.008193967775726743,0.06624240776661786,15.507467179619983,0.6384798616739416,4617,0,9.901205499756955,3.961610837283523,40.01139898955505,0.01672107899725968,0.006690337632952261,0.138671875,,
2.3924200000008566,1180,,,,0,0.083984375,-0.912109375,0.008193967775726743,0.06624240776661786,15.507298933343126,0.6362139789031622,4623,0,9.865960356422994,3.9668582056476827,40.207522251649394,0.016698960318850677,0.0067142381859959886,0.13671875,,
2.404830000001006,1180,,,,0.09375,-0.09765625,-0.923828125,0.008193967775726743,0.06624240776661786,15.50716046454793,0.6339586660315107,4614,0,9.830898762041388,3.9590649508031808,40.27164806222743,0.016731831528345897,0.0067381843074602685,0.13671875,,
2.415085000000894,1180,,,,-0.01953125,0.001953125,-0.98828125,0.008193967775726743,0.06624240776661786,15.507333908801368,0.630673109792202,4618,0,9.780058500849822,3.9624489026352263,40.515595098852586,0.016717542457787494,0.0067732118126759494,0.138671875,,
2.436790000000037,1180,,,,-0.09375,-0.015625,-1,0.008193967775726743,0.06876776448728136,15.50741509486009,0.6312682397203004,4607,0,9.789338629544345,3.9534268780842408,40.385025257505646,0.017394469812631257,0.007024761027240329,0.140625,,
2.4466500000003726,1180,,,,-0.15625,0.119140625,-0.98046875,0.008193967775726743,0.06876776448728136,15.507206623155694,0.630676363385925,4611,0,9.780028679365964,3.9562804084788845,40.45264628748889,0.017381923773628898,0.007031448142107039,0.142578125,,
2.4635600000005216,1180,,,,0.03125,-0.083984375,-0.966796875,0.008193967775726743,0.06876776448728136,15.50728645771423,0.6295474808422471,4616,0,9.762573124153088,3.9606952777079893,40.570198321065924,0.017362548660162645,0.00704402042501956,0.142578125,,
2.4790200000004843,1180,,,,-0.125,0.26953125,-1.05078125,0.008193967775726743,0.06876776448728136,15.507232380913305,0.6307476138206173,4619,0,9.781149821222877,3.9635902630074673,40.52274359817468,0.017349867146737363,0.007030642178496326,0.142578125,,
2.4885750000011178,1180,,,,-0.078125,0.125,-0.986328125,0.008193967775726743,0.06876776448728136,15.507010502654895,0.631756417766951,4612,0,9.796653405431742,3.95758823482264,40.39734867652213,0.017376179735475488,0.007019515914399213,0.14453125,,
2.5047949999999255,1180,,,,-0.03125,0.10546875,-0.994140625,0.008193967775726743,0.06876776448728136,15.507106222552988,0.6307713568636008,4613,0,9.781438433027734,3.9585331648355986,40.46984696513884,0.017372031917822103,0.007030434731877679,0.14453125,,
2.512415000000037,1180,,,,0.01953125,0.0234375,-0.9296875,0.008193967775726743,0.06876776448728136,15.506957628240173,0.6334444927693575,4613,0,9.822796909216516,3.9582111302462097,40.296171923622964,0.017373445282339917,0.007000833380028256,0.14453125,,
2.524475000000559,1180,,,,0.0625,-0.12890625,-0.91796875,0.008341211378294515,0.06876776448728136,15.507113288447453,0.6321708210322531,4608,0,9.803144539397989,4.02469714115449,41.055164748204824,0.017086444538670365,0.007014867954961765,0.14453125,,
2.546420000000857,1180,,,,-0.0625,0.076171875,-1.005859375,0.008341211378294515,0.06876776448728136,15.506227282518665,0.6423442340108337,4621,0,9.960335686187344,4.036509092295932,40.52583386214208,0.017036444837577918,0.006904161330892308,0.14453125,,
2.554710000000894,1180,,,,0,0.033203125,-1.03515625,0.008341211378294515,0.06876776448728136,15.505914680105288,0.6483288201892511,4633,0,10.05293137050785,4.0467799933353525,40.25472615089502,0.016993205610518754,0.006840568382772853,0.146484375,,
2.562640000000596,1180,,,,0,0.056640625,-1,0.008341211378294515,0.06876776448728136,15.50602870200252,0.6459168237793059,4661,0,10.015604808628222,4.071275436077572,40.649321871907915,0.016890963425833686,0.006866062090233378,0.14453125,,0.11412000000011176,44122,
2.572695000000298,1180,,,,0,0.083984375,-0.91015625,0.008341211378294515,0.06876776448728136,15.50602718385796,0.6403999950621299,4670,0,9.930059731975888,4.079454846515776,41.08187620845302,0.016857096615743954,0.0069252115640192555,0.146484375,,
2.5822700000004843,1450,,,,-0.03125,0.076171875,-0.91796875,0.008341211378294515,0.06876776448728136,15.506149809211564,0.6372052803156404,4668,0,9.880600535794969,4.077205009972059,41.26474899173744,0.016866398505615648,0.0069598770072884526,0.14453125,,
2.591800000000745,1450,,,,-0.125,0.23828125,-1.046875,0.008341211378294515,0.07002469655176224,15.50617822893606,0.6349157108229796,4660,0,9.84511617237275,4.070283739845539,41.3431763382084,0.017203885779820245,0.007112632834975044,0.146484375,,
2.6016300000008195,1450,,,,-0.125,0.349609375,-0.9296875,0.008341211378294515,0.07002469655176224,15.506282810251536,1.8333631754010866,4652,0,28.428647891670042,4.0633132005117245,14.29302306601197,0.01723339873060819,0.002463173655623642,0.1484375,,
2.611045000000857,1450,,,,0.375,0.0625,-1.01171875,0.008341211378294515,0.07002469655176224,15.446929394308897,3.5768151627309908,5018,0,55.250811275199105,4.383391935840654,7.933624565270889,0.015975002367278113,0.0012673967121129824,0.154296875,,
2.6187900000009687,1450,,,,0,-0.076171875,-0.732421875,0.008341211378294515,0.07002469655176224,15.41674203557565,4.349857517998475,6228,0,67.06063124649187,5.440253022015808,8.112439326762829,0.012871588190546254,0.0010441997823488344,0.158203125,,
2.625575000000186,1450,,,,-0.09375,0.271484375,-1.1328125,0.008341211378294515,0.07002469655176224,15.400277890718534,4.77968380045808,7416,0,73.6084587568201,6.477376424842694,8.799771839051774,0.010810657272162908,0.0009513131742521941,0.1640625,,
2.634910000000149,1450,,,,-0.1875,-0.05078125,-0.87890625,0.008341211378294515,0.07002469655176224,15.38502106411439,5.194618204234821,8526,0,79.91931049218479,7.447671421332613,9.318988584193193,0.009402226896206534,0.0008761924511174289,0.166015625,,
2.6454400000004097,1450,,,,-0.15625,0.193359375,-1.123046875,0.008341211378294515,0.07002469655176224,15.370885786098965,5.582323931105067,9542,0,85.80526356602297,8.33485896914404,9.713691937710525,0.008401425484341881,0.0008160885899252748,0.166015625,,
2.653415000000037,1450,,,,-0.34375,-0.31640625,-0.9296875,0.008341211378294515,0.07002469655176224,15.363222267024844,5.783244345761937,10102,0,88.84926830845532,8.824225085487129,9.931680084131175,0.007935506616544633,0.000788129130210275,0.173828125,,
2.6614450000012293,1450,,,,-0.03125,-0.13671875,-1.107421875,0.008341211378294515,0.07002469655176224,15.357346860441329,5.9145231853914595,10542,0,90.83138407217898,9.208211653882865,10.137698272400625,0.007604592420748131,0.0007709306344612922,0.181640625,,
2.668620000001043,1450,,,,-0.1875,0.14453125,-0.98828125,0.008406459944078605,0.07002469655176224,15.352929734888253,5.994487509479704,10838,0,92.03294552970718,9.540751760139226,10.366670006296367,0.0073395365807883035,0.000760865537321731,0.185546875,,
2.678385000000708,1450,,,,0.0625,0.35546875,-0.94921875,0.008406459944078605,0.07002469655176224,15.350030205734006,6.066048994770343,11001,0,93.11403529918717,9.68413365698898,10.400294247663776,0.00723086845267009,0.000752031595739182,0.189453125,,
2.688195000001229,1450,,,,0.375,-0.197265625,-0.970703125,0.008406459944078605,0.07002469655176224,15.345717152215173,6.107120399504039,11125,0,93.71814226531231,9.793420069750063,10.449865770946763,0.007150177982057022,0.0007471840015087488,0.19140625,,
2.69641000000108,1450,,,,0.25,0.0625,-1.060546875,0.008406459944078605,0.07002469655176224,15.343376195426153,6.1489056808744,11186,0,94.3449730518489,9.847678846833174,10.437947596234103,0.007110781905147206,0.0007422196889417624,0.1953125,,
2.7034950000001117,1450,,,,0.25,-0.248046875,-1.0078125,0.008406459944078605,0.07002469655176224,15.342042626359868,6.180323267418161,11235,0,94.81878301341312,9.890125950398824,10.430555672708602,0.007080263376113877,0.0007385108132199556,0.197265625,,
2.711530000001192,1450,,,,-0.0625,-0.0234375,-1.02734375,0.008406459944078605,0.07002469655176224,15.34024667192009,6.200551589670218,11254,0,95.11799088750739,9.906987182206855,10.41547144737686,0.0070682130968664205,0.0007361877169438736,0.197265625,,
2.719670000000857,1450,,,,0.21875,-0.1640625,-1.09375,0.008406459944078605,0.07002469655176224,15.337579840590314,6.2333803435782045,11226,0,95.604968696397,9.882324412441221,10.336622193584432,0.007085852844863662,0.0007324378377669111,0.19921875,,
2.7264500000001863,1450,,,,0.1875,0.04296875,-0.99609375,0.008406459944078605,0.07002469655176224,15.335106112505512,6.302054401642209,11282,0,96.64267297596571,9.931933484080393,10.276964800580783,0.007050459677765945,0.0007245732593631474,0.201171875,,
2.7343500000005587,1450,,,,0.25,0.015625,-0.96484375,0.008406459944078605,0.07002469655176224,15.332287511145006,6.369552048074005,11344,0,97.65980331827316,9.986641843313706,10.225949166380413,0.007011836175805728,0.0007170268029677661,0.201171875,,
2.7414650000007823,1450,,,,-0.46875,0.24609375,-0.921875,0.008406459944078605,0.07089266303137153,15.331006180432043,6.384026154321021,11377,0,97.87354442793539,10.015267032597984,10.232864346679769,0.007078459595797896,0.0007243291682725359,0.205078125,,
2.759890000000596,1450,,,,0.03125,0.03125,-0.943359375,0.008406459944078605,0.07089266303137153,15.32956701643178,6.386698016532093,11339,0,97.90531525814065,9.981724594305936,10.195283645211463,0.007102245945736889,0.0007240941193484072,0.205078125,,
2.7684750000005587,1450,,,,0.25,0.01953125,-1.0859375,0.008406459944078605,0.07089266303137153,15.328674308263583,6.3941446812460345,11346,0,98.01376129873633,9.98815932864827,10.190568340914233,0.007097670421419444,0.0007232929549076037,0.20703125,,
2.777015000000596,1450,,,,-0.03125,0.138671875,-1.103515625,0.008406459944078605,0.07089266303137153,15.327601501026031,6.407272433881858,11302,0,98.20811857505028,9.949680789817364,10.131220243481048,0.0071251193409062955,0.000721861533038082,0.20703125,,
2.7846650000000372,1450,,,,-0.25,0.05859375,-0.98046875,0.008406459944078605,0.07089266303137153,15.326660168699014,6.419982581587153,11310,0,98.39689131695329,9.956041693589555,10.118248209203514,0.00712056711022188,0.0007204766541151598,0.20703125,,
2.792605000000447,1450,,,,-0.21875,0.021484375,-1.015625,0.008406459944078605,0.07089266303137153,15.325672379165344,6.427034283433099,11296,0,98.49862179755937,9.94435446387947,10.095932595196855,0.00712893564774591,0.0007197325377513874,0.208984375,,
2.8007700000004845,1450,,,,-0.4375,-0.00390625,-0.71875,0.008406459944078605,0.07089266303137153,15.324554427181457,6.444081995459213,11338,0,98.75268527263479,9.981443748056842,10.107516287278909,0.007102445780468652,0.0007178808640560226,0.2109375,,
2.8077050000000745,1450,,,,-0.21875,-0.09765625,-0.818359375,0.008406459944078605,0.07089266303137153,15.323503253368306,6.441341869462056,11308,0,98.7039230927593,9.954641815877913,10.085355783196995,0.007121568444411116,0.0007182355149627488,0.21484375,,
2.8157650000005963,1450,,,,-0.0625,0.02734375,-0.90625,0.036839315862746295,0.07089266303137153,15.323038658274722,6.445668224464194,11283,0,98.76722338187784,43.5267744061874,44.070059798981696,0.0016287139122648615,0.0007177751950894588,0.21484375,,
2.8247350000003353,1450,,,,-0.0625,0.01953125,-0.935546875,0.036839315862746295,0.07089266303137153,15.321903330617518,6.446765020932767,11276,0,98.77671044593828,43.502138620892495,44.04088618106164,0.0016296362725791223,0.0007177062559718666,0.21484375,,
2.8386650000009688,1450,,,,0.125,-0.16015625,-0.953125,0.036839315862746295,0.07089266303137153,15.320788660397675,6.4610472267571595,11270,0,98.98833908599494,43.47579733766779,43.92012002534835,0.0016306236428687538,0.0007161718611096643,0.216796875,,
2.858665000000037,1450,,,,0.25,-0.0859375,-1.1640625,0.036839315862746295,0.07089266303137153,15.318142234726116,6.485125059283243,11245,0,99.34006806808735,43.37964887613584,43.66782680922221,0.0016342378250638917,0.0007136361430997001,0.220703125,,
2.8683799999998882,1450,,,,0.0625,0.23828125,-0.96875,0.036839315862746295,0.07089266303137153,15.31694238568727,6.486032705952612,11260,0,99.34618926875946,43.43794310026554,43.72381408888634,0.001632044658922585,0.0007135921725149102,0.22265625,,
2.8760200000014158,1450,,,,0.21875,0.103515625,-1.095703125,0.036839315862746295,0.07089266303137153,15.316329740065477,6.485175465859707,11264,0,99.32908585729001,43.453043036741796,43.746544792703,0.001631477523252586,0.000713715045492574,0.22265625,,
2.883800000000745,1450,,,,-0.0625,0.1015625,-0.88671875,0.036839315862746295,0.2641858193319984,15.315724728019386,6.488588681995094,11258,0,99.37743812677898,43.431621607168736,43.70370420674522,0.006082798881458122,0.002658408430643665,0.22265625,,
2.8909550000000745,1450,,,,0.15625,0.078125,-1.146484375,0.036839315862746295,0.2641858193319984,15.315215056572235,6.485143078488108,11266,0,99.3213609196863,43.4625290361534,43.7594980915518,0.006078473231786419,0.002659909377859065,0.22265625,,
2.898589999999851,1450,,,,0,0.18359375,-0.9375,0.036839315862746295,0.2641858193319984,15.314801978662473,6.476760021586815,11238,0,99.19029719391975,43.35371341038724,43.70761519710899,0.0060937298918597674,0.0026634240122852732,0.22265625,,
2.9068500000005586,1450,,,,0.09375,0.05078125,-1.095703125,0.036839315862746295,0.2641858193319984,15.314506505367893,6.488263025104601,11254,0,99.36454630650238,43.41576520336179,43.69341663317259,0.0060850204550014905,0.0026587533396175756,0.22265625,,
2.9155950000006707,1450,,,,0.0625,0.08984375,-1.12890625,0.036839315862746295,0.2641858193319984,15.314515308396855,6.508008828779269,11262,0,99.66700083552199,43.44628697372096,43.59144612510143,0.006080745622561361,0.0026506849520632992,0.22265625,,
2.9235250000003727,1450,,,,-0.15625,0.19140625,-1.064453125,0.036839315862746295,0.2641858193319984,15.314391438350897,6.513730171716036,11262,0,99.75381357345599,43.44738763848529,43.554613184278736,0.006080591577339971,0.002648378140826257,0.22265625,,
2.9308400000007824,1450,,,,-0.15625,0.12109375,-0.966796875,0.036839315862746295,0.2641858193319984,15.313950168711473,6.5184760836647,11240,0,99.82361792117874,43.36119277286692,43.43780928387624,0.006092678785748522,0.0026465261912326293,0.22265625,,
2.938745000001043,1450,,,,-0.21875,0.1875,-0.962890625,0.036839315862746295,0.2641858193319984,15.31336731190691,6.517280595998042,11256,0,99.8015116412816,43.42285027768884,43.509210996487084,0.006084027594746358,0.002647112403282691,0.224609375,,
2.9457250000005586,1450,,,,-0.3125,0.4609375,-0.93359375,0.036839315862746295,0.2641858193319984,15.31296350085599,6.5220293757751,11262,0,99.87159778275468,43.44565973475188,43.501516646661536,0.0060808334122425135,0.0026452547590824333,0.2265625,,
2.953765000000596,1450,,,,-0.375,0.21875,-0.69921875,0.036839315862746295,0.2641858193319984,15.312455227495407,6.535536633509024,11232,0,100.075112088263,43.33236015633327,43.29983674473983,0.006096732750740468,0.002639875327833709,0.228515625,,
2.960745000001043,1450,,,,-0.21875,0.177734375,-0.955078125,0.036839315862746295,0.2641858193319984,15.312606386786703,6.542507212037287,11251,0,100.18283772064022,43.40569288154063,43.3264757408623,0.006086432488314226,0.0026370366955334244,0.228515625,,
2.967730000000447,1450,,,,-0.3125,0.3203125,-0.84765625,0.04946585846109234,0.2641858193319984,15.312752530270851,6.547564757900696,8087,0,100.26123881365613,41.89256910321795,41.78341460659466,0.0063062692259593395,0.0026349746168906787,0.23046875,,
2.976100000000559,1450,,,,-0.09375,0.10546875,-0.994140625,0.04946585846109234,0.2641858193319984,15.312193977653141,6.534389230005264,9865,0,100.05583541532815,51.10082180460538,51.072305370783944,0.0051698937512623154,0.0026403839239897667,0.23046875,,
2.986280000000261,1450,,,,-0.34375,0.173828125,-0.900390625,0.04946585846109234,0.2641858193319984,15.311586398166416,6.5504600521335,10779,0,100.29793503597978,55.837688315230594,55.67182245098067,0.004731317275180564,0.0026340105530310996,0.23046875,,
2.9965400000000373,1450,,,,-0.1875,-0.052734375,-0.9140625,0.04946585846109234,0.2641858193319984,15.311613492845419,6.565920168429361,11071,0,100.53483184386887,57.34740848106934,57.04232794672613,0.004606761252676439,0.0026278038614744033,0.232421875,,
3.003785000000149,1450,,,,-0.3125,0.001953125,-0.8203125,0.04946585846109234,0.2641858193319984,15.310431322772596,6.575894190345907,11198,0,100.67977638711031,58.00619186945494,57.614541818630094,0.004554441703853932,0.0026240207200720527,0.234375,,
3.0112050000000745,1450,,,,-0.1875,0.1640625,-0.84375,0.04946585846109234,0.2641858193319984,15.310050368963175,6.585576804144289,11238,0,100.8255125801246,58.21115905880082,57.73455306021007,0.0045384050687796215,0.002620227882521834,0.236328125,,
3.019175000000745,1450,,,,-0.25,0.03515625,-0.8984375,0.04946585846109234,0.2641858193319984,15.31014209319236,6.606672908981082,11262,0,101.14910099974487,58.33577775345848,57.673056089352315,0.00452870998735139,0.0026118454511292665,0.23828125,,
3.02591000000108,1450,,,,0.0625,-0.18359375,-0.8125,0.04946585846109234,0.2641858193319984,15.309588353249636,6.618978016863333,11298,0,101.33382875738626,58.52404998806163,57.75371433776579,0.0045141410990163855,0.002607084155129605,0.23828125,,
3.0328100000005214,1450,,,,-0.0625,0.00390625,-1,0.04946585846109234,0.2641858193319984,15.30900826370691,6.623646883793805,11287,0,101.40146487987587,58.4666581550434,57.65859322082307,0.004518572254145664,0.002605345195406824,0.236328125,,
3.0398400000007824,1450,,,,0.25,0.01171875,-1.09765625,0.04946585846109234,0.35316603950155595,15.30827502878411,6.616657483055065,11309,0,101.28961252186937,58.58085677609203,57.83500925471886,0.006028693654164679,0.003486695532824791,0.236328125,,
3.046670000000857,1450,,,,0.09375,0.10546875,-1.080078125,0.04946585846109234,0.35316603950155595,15.30843585716701,6.606153441306104,11315,0,101.1298762188376,58.612995488490924,57.958140244982324,0.006025387997289826,0.0034922028257735696,0.23828125,,
3.053790000000037,1450,,,,0.1875,0.17578125,-1.23046875,0.04946585846109234,0.35316603950155595,15.308331164647653,6.607627938541885,11294,0,101.15175669597727,58.505316209436494,57.83914992725302,0.00603647774908689,0.003491447415619635,0.23828125,,
3.0617950000008567,1450,,,,-0.0625,-0.05859375,-0.91015625,0.04946585846109234,0.35316603950155595,15.307661046734385,6.631321818142092,11285,0,101.51002668393353,58.45469434379629,57.585143313776896,0.006041705349179316,0.0034791246839210336,0.236328125,,
3.068839999999851,1450,,,,-0.1875,0.091796875,-1.033203125,0.04946585846109234,0.35316603950155595,15.30707088102965,6.650139166480119,11297,0,101.79415159002262,58.51781870308893,57.48642509323155,0.0060351880389368255,0.0034694138512390885,0.23828125,,
3.0757750000003727,1450,,,,-0.25,0.28125,-0.71484375,0.04946585846109234,0.35316603950155595,15.306336491542835,6.650142466307508,11293,0,101.78931830600128,58.49833501124032,57.47001353853393,0.006037198143053061,0.003469578590160713,0.23828125,,
3.094975000000559,1450,,,,-0.15625,0,-0.84765625,0.04946585846109234,0.35316603950155595,15.305764303811365,6.6353294263085,11288,0,101.55878827722178,58.47220208186305,57.574733879507654,0.006039896342660596,0.003477454245884954,0.240234375,,
3.1209750000005587,1450,,,,0.26953125,-0.083984375,-1.119140625,0.05428443297469362,0.35316603950155595,15.305498610983804,6.638336067344894,11285,0,101.60304345799096,64.15394042999563,63.14175072572592,0.005504978137499262,0.0034759395730854935,0.244140625,,
3.128805000000633,1450,,,,0.125,-0.044921875,-1.13671875,0.05428443297469362,0.35316603950155595,15.30526861130748,6.653135880559856,11276,0,101.82803175949631,64.0985274813278,62.94782131576464,0.005509737171488609,0.0034682595096769144,0.244140625,,
3.1409000000003724,1450,,,,0.125,0.072265625,-0.94921875,0.05428443297469362,0.35316603950155595,15.305304581077161,6.660664778889218,11230,0,101.94350315335244,63.836823186988454,62.6198052964292,0.005532324791086096,0.0034643310125441968,0.24609375,,
3.1495600000005215,1450,,,,-0.03125,0.1015625,-0.99609375,0.05428443297469362,0.35316603950155595,15.305061332590263,6.6791921615352265,11261,0,102.22544568445278,64.01250114118112,62.61895041159662,0.005517141702097215,0.003454776226573773,0.244140625,,
3.158125,1450,,,,-0.125,0.111328125,-0.958984375,0.05428443297469362,0.35316603950155595,15.304817806313858,6.686147192360876,11264,0,102.33026460528014,64.03209711005985,62.57395830749749,0.005515453271732237,0.0034512374307232364,0.2421875,,
3.1659700000006707,1450,,,,0.0625,0.15625,-1.03515625,0.05428443297469362,0.35316603950155595,15.305432158472666,6.683338752042289,11260,0,102.29138786147462,64.0117344047989,62.57783352346835,0.005517207786750415,0.0034525491039365075,0.2421875,,
3.173280000000261,1450,,,,-0.0625,0.23828125,-0.99609375,0.05428443297469362,0.35316603950155595,15.305285326208795,6.6830355844928855,11264,0,102.28576646587018,64.03051625008646,62.59963479029275,0.00551558944366748,0.0034527388482677823,0.2421875,,
3.1807700000004844,1450,,,,-0.09375,0.1875,-1.115234375,0.05428443297469362,0.35316603950155595,15.305026648078687,6.679994772377633,11233,0,102.237498000266,63.857460147480616,62.459920671488334,0.005530536897112866,0.0034543689586440884,0.2421875,,
3.1889300000006333,1450,,,,-0.125,0.109375,-0.95703125,0.05428443297469362,0.38919777448678694,15.304584517898604,6.667693489351043,11253,0,102.0462785472153,63.97106875079245,62.68829168639793,0.006083965487632496,0.003813934030986842,0.240234375,,
3.1959300000006334,1450,,,,-0.34375,0.2890625,-1.02734375,0.05428443297469362,0.38919777448678694,15.304732613113252,6.679213435960401,11257,0,102.22357570328737,63.994051737403616,62.60204781248486,0.006081780476783069,0.0038073191219261068,0.244140625,,
3.2038899999996646,1450,,,,-0.0625,0.05859375,-0.86328125,0.05428443297469362,0.38919777448678694,15.304892246350182,6.6828842016652805,11234,0,102.28082260132308,63.86357044709673,62.439437641236374,0.00609420631765633,0.0038051881534413115,0.2421875,,
3.2122750000003726,1450,,,,-0.46875,0.40625,-0.88671875,0.05428443297469362,0.38919777448678694,15.304505427941226,6.684295250472632,11252,0,102.29983294282015,63.966484076183974,62.52843454000325,0.00608440154414698,0.003804481036682891,0.24609375,,
3.2228950000004843,1450,,,,-0.1875,0.056640625,-0.794921875,0.05428443297469362,0.38919777448678694,15.30394116759208,6.683330023559096,11259,0,102.2812894841502,64.00574344660792,62.578154586647486,0.0060806695388429715,0.0038051707839203393,0.248046875,,
3.2310600000005216,1450,,,,-0.34375,0.1953125,-0.970703125,0.05428443297469362,0.38919777448678694,15.302946526844998,6.70874487211949,11269,0,102.66356404029014,64.06013522153123,62.39812130074789,0.006075506602364677,0.0037910019793784572,0.25,,
3.2390050000008195,1450,,,,-0.1875,-0.01171875,-0.859375,0.05428443297469362,0.38919777448678694,15.302510732684164,6.710016622396841,11270,0,102.6801013807168,64.06468590973104,62.39250356034641,0.006075075042671366,0.003790391412292448,0.25,,
3.246,1450,,,,-0.0625,-0.3359375,-1.02734375,0.05428443297469362,0.38919777448678694,15.302401934986282,6.6992389844391855,11302,0,102.51444759841773,64.2457344040706,62.669931808774834,0.00605795510156278,0.0037965163311555906,0.251953125,,
3.253964999999851,1450,,,,0.0625,-0.0703125,-0.83984375,0.05428443297469362,0.38919777448678694,15.302611122103992,6.689810364682229,11284,0,102.37156649135284,64.14472257234584,62.65872914796516,0.006067494859734235,0.0038018151702275834,0.25,,
3.260820000000298,1450,,,,-0.03125,-0.04296875,-1.033203125,0.05428443297469362,0.38919777448678694,15.302585056583183,6.682839118389048,11274,0,102.26471402860979,64.08892744074117,62.6696393272185,0.006072777155564861,0.003805787540538217,0.25,,
3.2688800000008196,1450,,,,0.125,-0.078125,-0.8671875,0.05660520012706213,0.38919777448678694,15.302556308127343,6.677063897256662,11266,0,102.17614626073428,66.77991887353994,65.3576410125414,0.005828065997261909,0.0038090864524644285,0.248046875,,
3.27606500000041,1450,,,,0.09375,0.078125,-0.8828125,0.05660520012706213,0.38919777448678694,15.302532450835688,6.681504471322513,11263,0,102.2439389928165,66.76215632405464,65.2969329837197,0.0058296165959300745,0.0038065608418522624,0.248046875,,
3.2840300000002607,1450,,,,0.34375,0.021484375,-1.04296875,0.05660520012706213,0.38919777448678694,15.302604421726407,6.687466016864357,11232,0,102.3356470398136,66.57807321309508,65.05853545558074,0.0058457350251199,0.0038031495939569314,0.25,,
3.2944200000008568,1450,,,,0.1875,0.05859375,-1.0234375,0.05660520012706213,0.38919777448678694,15.302803920911838,6.683823212033108,11253,0,102.2812360557818,66.70243964100735,65.2147375346827,0.005834835675898064,0.0038051727716169517,0.25,,
3.311165000000037,1450,,,,0.15625,-0.0625,-1.154296875,0.05660520012706213,0.38919777448678694,15.302669347934014,6.661271120722804,11245,0,101.93522939736292,66.65567423013907,65.39022340382692,0.00583892937821049,0.003818088964803522,0.25390625,,
3.3190150000005962,1450,,,,0.1875,-0.0078125,-1.130859375,0.05660520012706213,0.38919777448678694,15.302636570204907,6.658493897013722,11226,0,101.89251221092837,66.54381951667594,65.3078602860661,0.005848744140532144,0.00381968965178821,0.255859375,,
3.3308650000002236,1450,,,,0.21875,-0.1171875,-1.11328125,0.05660520012706213,0.38919777448678694,15.302465292693403,6.656545318656625,11248,0,101.86155370798376,66.67703884294953,65.45849382397893,0.005837058472310082,0.0038208505595991337,0.255859375,,
3.338050000000745,1450,,,,0.1875,0.14453125,-0.97265625,0.05660520012706213,0.4042277284213978,15.302543760931835,6.66309738208513,11255,0,101.96233927270805,66.71383627931685,65.42988004706748,0.0060591288249259275,0.003964480722046323,0.255859375,,
3.3462350000003354,1450,,,,0.37109375,-0.078125,-1.0078125,0.05660520012706213,0.4042277284213978,15.302416815664563,6.673935135013546,11244,0,102.12733723668583,66.64936041119773,65.26103804776002,0.006064990360409876,0.003958075666700067,0.2578125,,
3.3542050000010057,1450,,,,0.28125,0.0703125,-1.109375,0.05660520012706213,0.4042277284213978,15.302694158478037,6.69248257380348,11248,0,102.41301398785858,66.67414269228122,65.10319352595724,0.006062736048771044,0.0039470347827993855,0.259765625,,
3.3621650000009686,1450,,,,0.375,-0.06640625,-1.265625,0.05660520012706213,0.4042277284213978,15.302056914942847,6.6882953786655355,11255,0,102.34467654828924,66.71831699378642,65.18982642180391,0.0060587219017986345,0.0039496702911623474,0.259765625,,
3.3801450000004842,1450,,,,0.4375,-0.103515625,-1.154296875,0.05660520012706213,0.4042277284213978,15.302243901929375,6.66960283291125,11218,0,102.05988927820705,66.49588697222701,65.15379101672801,0.006078988443153326,0.003960691426183165,0.263671875,,
3.3879900000002237,1450,,,,0.234375,-0.06640625,-1.095703125,0.05660520012706213,0.4042277284213978,15.302349050351088,6.667773677828439,11232,0,102.032600206874,66.5814992285277,65.25512345420172,0.006071171918703225,0.003961750730666617,0.267578125,,
3.3948950000004845,1450,,,,0.125,0.1171875,-1.1953125,0.05660520012706213,0.4042277284213978,15.302506262924163,6.67921031698024,11248,0,102.2086577069778,66.67537846995712,65.23457010961722,0.006062623680547032,0.00395492649536871,0.267578125,,
3.401975000000559,1450,,,,0.3125,0.01953125,-1.04296875,0.05660520012706213,0.4042277284213978,15.302052398343916,6.673176136771716,11241,0,102.11329090825903,66.6314660955461,65.25249113301948,0.006066619153205424,0.00395862012501943,0.267578125,,
3.409120000001043,1450,,,,0.0625,0.16796875,-0.9296875,0.05660520012706213,0.4042277284213978,15.301621162291173,6.662694538459434,11242,0,101.95002774757269,66.63801266448137,65.36340807035037,0.0060660231639359,0.0039649594742854006,0.265625,,
3.416920000000857,1450,,,,0.3125,0.0859375,-1.1015625,0.057420255752217396,0.4042277284213978,15.301542244101167,6.681908577603626,11271,0,102.24350637142383,67.77261851636486,66.28549912027147,0.005964469682159176,0.00395357849869648,0.265625,,
3.423920000000857,1450,,,,0.1875,0.24609375,-1,0.057420255752217396,0.4042277284213978,15.301475525692354,6.691669741503517,11252,0,102.39242077563215,67.65785385152817,66.07701364907052,0.005974586916523477,0.0039478286123068,0.267578125,,
3.431080000001006,1450,,,,0.3125,-0.01953125,-1.1640625,0.057420255752217396,0.4042277284213978,15.3017566401309,6.69156671530593,11260,0,102.39272541881144,67.70699626579672,66.12481110240834,0.005970250501654582,0.00394781686655968,0.267578125,,
3.451270000000484,1450,,,,0,0.1171875,-1.162109375,0.057420255752217396,0.4042277284213978,15.302464485553456,6.681277621740503,11245,0,102.24001352480711,67.61868483320661,66.13720255113218,0.005978047775086082,0.003953713565612133,0.265625,,
3.4680650000004096,1450,,,,-0.125,0.171875,-0.908203125,0.057420255752217396,0.4042277284213978,15.301657776788822,6.675394811923509,11241,0,102.14460693700511,67.59270702205708,66.17354459422712,0.005980345309879198,0.003957406470521681,0.265625,,
3.475879999999888,1450,,,,-0.25,0.166015625,-0.896484375,0.057420255752217396,0.4042277284213978,15.30176925751725,6.672957783676712,11256,0,102.10806027097476,67.68332852070942,66.28598010880938,0.00597233819991158,0.003958822911224214,0.265625,,
3.483990000001155,1450,,,,-0.0625,0.17578125,-0.92578125,0.057420255752217396,0.41041904563720755,15.300878734157315,6.671926170169479,11262,0,102.08633325301385,67.72103462999203,66.33702325476827,0.006060436729586566,0.004020313322646359,0.265625,,
3.4913650000002234,1450,,,,-0.25,0.244140625,-0.91015625,0.057420255752217396,0.41041904563720755,15.300667980924121,6.660589228242112,11265,0,101.9114643386522,67.73448834960203,66.46405170327066,0.006059232979200897,0.004027211740117711,0.265625,,
3.4989550000000746,1450,,,,0.125,-0.11328125,-0.95703125,0.057420255752217396,0.41041904563720755,15.300504857283228,6.649457898190862,11234,0,101.74006286956961,67.54837920316909,66.39309756449224,0.006075927364633974,0.004033996383149116,0.265625,,
3.507125,1450,,,,-0.25,0.212890625,-0.9296875,0.057420255752217396,0.41041904563720755,15.300480198876445,6.670835275030209,11261,0,102.06698303556621,67.71032731019193,66.33910917754629,0.006061395092022103,0.004021075507778976,0.265625,,
3.5151500000003724,1450,,,,-0.125,0.171875,-1.23828125,0.057420255752217396,0.41041904563720755,15.300916519380532,6.6783795105922605,11264,0,102.1853273763136,67.73130685345254,66.28281045087942,0.0060595175953893,0.004016418561989576,0.267578125,,
3.522120000001043,1450,,,,-0.3125,0.173828125,-0.8515625,0.057420255752217396,0.41041904563720755,15.300703289000513,6.685489676652422,11245,0,102.29269388413468,67.61899935673742,66.10344961031957,0.0060695817675733505,0.004012202925284994,0.267578125,,
3.5290350000010804,1450,,,,-0.3125,0.0859375,-0.84765625,0.057420255752217396,0.41041904563720755,15.300758534432353,6.673178838264538,11257,0,102.1046980613695,67.68942788024063,66.29413647504863,0.006063266576330657,0.004019590218958654,0.26953125,,
3.536110000000335,1450,,,,-0.25,0.2109375,-0.775390625,0.057420255752217396,0.41041904563720755,15.300983907428567,6.672471498789796,11233,0,102.09537902575843,67.54193319941204,66.15572011576681,0.00607650723329874,0.004019957118075439,0.26953125,,
3.5564400000004097,1450,,,,-0.26953125,0.21875,-0.9140625,0.057420255752217396,0.41041904563720755,15.300937649452072,6.665605032198127,11244,0,101.9900069935375,67.60893635206102,66.28976538490187,0.006070485172256317,0.004024110378413969,0.2734375,,
3.5652800000002607,1450,,,,-0.1875,0.30078125,-0.93359375,0.057420255752217396,0.41041904563720755,15.30074115949176,6.6699742865675,11224,0,102.05555009923505,67.4921851729589,66.13279249127754,0.006080986185073825,0.004021525975198127,0.275390625,,
3.573325000000186,1450,,,,-0.1875,0.080078125,-0.912109375,0.05785518674420453,0.41041904563720755,15.301029003723869,6.681719805529148,11249,0,102.2371885391577,68.15115047909376,66.6598440869599,0.006022188073891854,0.004014381180679804,0.2734375,,
3.581455000001006,1450,,,,-0.1875,0.103515625,-1.0390625,0.05785518674420453,0.41041904563720755,15.300496439471251,6.676531196783296,11230,0,102.15424180440155,68.0407967704074,66.60594368727986,0.006031955313840605,0.004017640759578558,0.275390625,,
3.588940000001341,1450,,,,-0.4375,0.166015625,-0.7890625,0.05785518674420453,0.41041904563720755,15.300558317909577,6.684017086531919,11250,0,102.2691932303857,68.15987293023248,66.64751209749562,0.006021417411639058,0.004013124897862849,0.27734375,,
3.5962050000000745,1450,,,,-0.125,-0.2109375,-0.7109375,0.05785518674420453,0.41041904563720755,15.300531095744306,6.681840551654539,11228,0,102.23570913739556,68.0255901740562,66.537994158808,0.006033303710957503,0.00401443927078005,0.279296875,,
3.6059350000005215,1450,,,,-0.25,0.13671875,-0.953125,0.05785518674420453,0.41041904563720755,15.300335769767681,6.667846529128539,9131,0,102.02029075694666,55.32387882687343,54.228309306309605,0.0074184792234388225,0.00402291585911072,0.279296875,,
3.6141150000002233,1450,,,,-0.353515625,0.109375,-0.890625,0.05785518674420453,0.41041904563720755,15.300143555805752,6.670331518668913,10575,0,102.05702980045017,64.06925740108854,62.77789734461382,0.006405865500639227,0.004021467668025326,0.28125,,
3.621210000000894,1450,,,,-0.3125,0.1484375,-0.7578125,0.05785518674420453,0.41041904563720755,15.299833223774765,6.670403783160182,10970,0,102.05606541758705,66.46441406775205,65.1253933764709,0.006175019390358837,0.004021505669044548,0.28125,,
3.628980000000447,1450,,,,-0.25,0.125,-1.015625,0.05785518674420453,0.41041904563720755,15.300013401466494,6.668406531260988,11108,0,102.02670929471981,67.29636215035758,65.95955374387476,0.006098681006266351,0.004022662775995736,0.28125,,
3.63981500000041,1450,,,,-0.09375,-0.10546875,-0.947265625,0.05785518674420453,0.4125370236295044,15.299766851349451,6.668888879760869,11188,0,102.03244501789833,67.78499567869753,66.43474599359726,0.0060859637077346675,0.004043194530496039,0.28125,,
3.649890000000596,1450,,,,-0.26953125,0.03515625,-0.9453125,0.05785518674420453,0.4125370236295044,15.299781043116091,6.675279580755805,11217,0,102.1303159871476,67.95933750006445,66.54178716985137,0.006070350871638694,0.004039319957469038,0.283203125,,
3.658160000000149,1450,,,,-0.375,0.26953125,-0.7109375,0.05785518674420453,0.4125370236295044,15.299672949960195,6.680970502426508,11242,0,102.21666367545681,68.11194617254017,66.6348751009905,0.00605674990675603,0.0040359077355462385,0.28515625,,
3.6666350000007077,1450,,,,-0.28125,0.08984375,-0.90234375,0.05785518674420453,0.4125370236295044,15.299513958747681,6.680202764641756,11226,0,102.2038554449014,68.01335767588343,66.54676321144241,0.006065529444898795,0.004036413517217119,0.28515625,,
3.6753100000005214,1450,,,,-0.34375,0.107421875,-0.73828125,0.05785518674420453,0.4125370236295044,15.299614882595167,6.682751195738837,11247,0,102.24351965100657,68.14014773852003,66.64495507500773,0.006054243163847659,0.004034847636677999,0.28515625,,
3.683320000000298,1450,,,,-0.21875,0.0625,-0.951171875,0.05785518674420453,0.4125370236295044,15.299563450114203,6.6888777473859085,11237,0,102.33690950618767,68.07899580221793,66.5243812137024,0.006059681385841835,0.004031165545453187,0.287109375,,
3.690465000000782,1450,,,,-0.3125,0.28125,-0.86328125,0.05785518674420453,0.4125370236295044,15.299582307041833,6.685667204788674,11249,0,102.28791567715461,68.15295379604638,66.62854878297996,0.0060531055611185575,0.004033096391675151,0.287109375,,
3.698325000000186,1450,,,,-0.1875,0.001953125,-0.994140625,0.05785518674420453,0.4125370236295044,15.299700926663993,6.707236697335735,11238,0,102.61871551358229,68.08731821284714,66.34980556137961,0.006058940702288732,0.004020095375047861,0.287109375,,
3.7052549999998883,1450,,,,-0.3125,-0.0546875,-0.765625,0.05785518674420453,0.4125370236295044,15.299543100212848,6.707581296026566,11251,0,102.62292913674,68.16285788348358,66.42069024619238,0.006052226042732658,0.004019930312842846,0.287109375,,
3.713360000000335,1450,,,,-0.34375,0.130859375,-0.98046875,0.05785518674420453,0.4125370236295044,15.299170050809478,6.696687118210935,11196,0,102.45375499857437,67.83151377654785,66.20695725353524,0.006081790021500824,0.004026568119784822,0.2890625,,
3.7213650000002234,1450,,,,-0.125,-0.171875,-0.59375,0.05802466969722264,0.4125370236295044,15.299205956213529,6.704383148246801,11229,0,102.57173859439506,68.23103127163787,66.52030296712384,0.006046178929747276,0.004021936542002293,0.2890625,,
3.729300000000745,1450,,,,-0.4375,0.126953125,-0.86328125,0.05802466969722264,0.4125370236295044,15.299031383375974,6.70828801988308,11238,0,102.63030894491631,68.28421654052806,66.53416251253569,0.006041469676739358,0.004019641252867329,0.29296875,,
3.7373349999999625,1450,,,,-0.25,0.14453125,-0.75,0.05802466969722264,0.4125370236295044,15.298687001761992,6.68966920768095,11238,0,102.34315535363599,68.28827881367076,66.72481279056504,0.006041110287098316,0.004030919529537918,0.29296875,,
3.744285000000149,1450,,,,-0.3125,-0.05859375,-1.0546875,0.05802466969722264,0.4125370236295044,15.298570978267243,6.6909658115241974,11254,0,102.36221538076242,68.38403854767382,66.8059383956296,0.006032650782125201,0.004030168965130029,0.294921875,,
3.7524000000003723,1450,,,,-0.15625,-0.044921875,-0.86328125,0.05802466969722264,0.4125370236295044,15.299231193224973,6.696323976070113,11243,0,102.44860865463215,68.31347945032589,66.68072934071724,0.006038881739722839,0.004026770388070583,0.29296875,,
3.7629550000000744,1450,,,,-0.375,-0.01171875,-0.9140625,0.05802466969722264,0.4125370236295044,15.29874725193385,6.6981016262739415,11253,0,102.47256384813211,68.37909191396575,66.72917056638296,0.006033087192040464,0.0040258290427952845,0.294921875,,
3.783925000000745,1450,,,,-0.34375,0.0078125,-0.93359375,0.05802466969722264,0.4125370236295044,15.298295577880902,6.694176132436808,11256,0,102.40948512441389,68.39594859692947,66.78673221902982,0.006031600293471544,0.004028308736523056,0.294921875,,
3.7916950000002982,1450,,,,-0.1875,-0.08203125,-0.75390625,0.05802466969722264,0.414233677147181,15.297883545347817,6.683016135266163,11240,0,102.2360025689822,68.29930876986883,66.80553528468106,0.006064976126521588,0.004051739766210862,0.296875,,
3.799465000000782,1450,,,,0.125,-0.12109375,-0.94921875,0.05802466969722264,0.414233677147181,15.297856281283593,6.6822474142742605,11256,0,102.22406057954655,68.39619311761237,66.90811608328676,0.006056384986732745,0.004052213097373895,0.296875,,
3.8074550000000746,1450,,,,-0.125,-0.01953125,-0.767578125,0.05802466969722264,0.414233677147181,15.297960126284865,6.693140512914858,11258,0,102.39139668619332,68.40451403489075,66.8068961345798,0.006055648271046775,0.004045590650713696,0.296875,,
3.8153899999996645,1450,,,,-0.125,-0.140625,-1.109375,0.05802466969722264,0.414233677147181,15.297798633878411,6.689330164080848,11234,0,102.33202584563765,68.26366757223764,66.70801932056901,0.006068142716018484,0.004047937815401311,0.294921875,,
3.8223700000001117,1450,,,,-0.03125,-0.0234375,-0.90625,0.05802466969722264,0.414233677147181,15.297635234758351,6.6844297364316585,11252,0,102.25596786030341,68.37305019060261,66.86460616558848,0.0060584349534272275,0.004050948671407469,0.294921875,,
3.8308950000004844,1450,,,,-0.03125,-0.23046875,-1.02734375,0.05802466969722264,0.414233677147181,15.297554427354179,6.669704945592088,11251,0,102.0301744195883,68.36644738752726,67.00610655273161,0.006059020074557123,0.004059913447209144,0.294921875,,
3.8392949999999253,1450,,,,-0.0625,0.078125,-0.8671875,0.05802466969722264,0.414233677147181,15.297543576744859,6.6767527382503316,11236,0,102.13791596453501,68.27062828574931,66.84161081713737,0.006067524022386175,0.004055630793279686,0.294921875,,
3.847370000001043,1450,,,,-0.09375,-0.22265625,-0.974609375,0.05802466969722264,0.414233677147181,15.297024449949381,6.668933896985134,11230,0,102.01484487727781,68.23809915905599,66.89036212439994,0.0060704164132949386,0.004060523521311995,0.294921875,,
3.854390000000596,1450,,,,0.125,-0.04296875,-0.75390625,0.05802466969722264,0.414233677147181,15.29706649346482,6.665743367810254,11247,0,101.96631952576558,68.34171961901644,67.0238172142198,0.006061212381783825,0.0040624559077324495,0.294921875,,
3.8623650000002234,1450,,,,-0.0625,-0.11328125,-0.904296875,0.05802466969722264,0.414233677147181,15.296915768381613,6.6662602604546635,11259,0,101.97322169428466,68.41219957199122,67.08839677252794,0.006054967969729967,0.004062180935981919,0.29296875,,
3.870440000001341,1450,,,,0.1875,-0.09765625,-0.896484375,0.05864427675534265,0.414233677147181,15.296771670184105,6.644227321597001,11240,0,101.63522826326823,69.02465970389758,67.91410899880236,0.006001241859418985,0.004075689937687563,0.29296875,,
3.878350000000559,1450,,,,-0.0625,-0.22265625,-1.1328125,0.05864427675534265,0.414233677147181,15.296637342610897,6.6576065629465795,11224,0,101.83899316318004,68.92801545004863,67.6833237536068,0.006009656225303216,0.004067535079450761,0.29296875,,
3.8863350000008943,1450,,,,0.1875,-0.1328125,-0.98046875,0.05864427675534265,0.414233677147181,15.296083023019245,6.695049466355891,11278,0,102.4080324806004,69.26341248397658,67.63474583607243,0.00598055542300937,0.004044933459937834,0.294921875,,
3.895140000000596,1450,,,,0.125,-0.203125,-1.0859375,0.05864427675534265,0.414233677147181,15.295001383179248,6.71949854830255,11283,0,102.77473959055844,69.29055775269003,67.41983295577771,0.0059782124806334,0.004030500868184493,0.294921875,,
3.903589999999851,1450,,,,0.25,-0.060546875,-1.2109375,0.05864427675534265,0.414233677147181,15.294838769032703,6.719742536061888,11318,0,102.7773786584775,69.50623534101088,67.62795106107498,0.005959662109663563,0.0040303973749287025,0.294921875,,
3.929520000000484,1450,,,,-0.353515625,0.20703125,-0.8671875,0.05864427675534265,0.414233677147181,15.29530161453156,6.685040831108733,11282,0,102.2497158172668,69.286800008943,67.76233992940118,0.00597853670675677,0.004051196366036548,0.294921875,,
3.939280000001192,1450,,,,-0.1875,-0.005859375,-0.775390625,0.05864427675534265,0.41510482151611405,15.295216291892578,6.665891501487968,11271,0,101.95625229354704,69.21889584410577,67.890780885918,0.005996987043119117,0.004071401333200894,0.296875,,
3.9486850000005216,1450,,,,-0.375,0.083984375,-1.005859375,0.05864427675534265,0.41510482151611405,15.295371629092562,6.677373531291052,11268,0,102.13290966736278,69.19959980414312,67.75445841063342,0.005998659279692263,0.004064359106854697,0.298828125,,
3.9554350000005214,1450,,,,-0.28125,-0.0546875,-0.853515625,0.05864427675534265,0.41510482151611405,15.295401831073265,6.690444246726862,11246,0,102.33303318207965,69.06328373016505,67.48874882588673,0.006010499343442122,0.004056410805077224,0.298828125,,
3.9633750000009313,1450,,,,-0.125,-0.14453125,-0.970703125,0.05864427675534265,0.41510482151611405,15.295918782109187,6.692929206137713,11265,0,102.37450155148896,69.18314442739394,67.57849208437754,0.006000086075182036,0.0040547676933727315,0.298828125,,
3.971415000000037,1450,,,,-0.5,0.0546875,-0.75390625,0.05864427675534265,0.41510482151611405,15.29637992696202,6.689563406230786,11266,0,102.32610340720827,69.1866773168908,67.61390790144854,0.005999779691902808,0.004056685515172978,0.30078125,,
3.9785600000005217,1450,,,,-0.1875,-0.21875,-0.88671875,0.05864427675534265,0.41510482151611405,15.296017393436092,6.712099347843074,11264,0,102.6683883710787,69.1742938136493,67.37642901691387,0.006000853765625383,0.004043160977805389,0.302734375,,
3.986430000000633,1450,,,,-0.1875,0.18359375,-0.7109375,0.05864427675534265,0.41510482151611405,15.295559933678572,6.712044570954594,11265,0,102.66448001255787,69.18317775478376,67.38764735994503,0.00600008318477986,0.004043314897862811,0.302734375,,
3.9934850000003355,1450,,,,-0.25,-0.1796875,-0.92578125,0.05864427675534265,0.41510482151611405,15.295147546153236,6.71555638434066,11263,0,102.71542575300175,69.16596266874733,67.33746383437058,0.006001576577545119,0.004041309457396501,0.302734375,,
4.000455000001006,1450,,,,0.125,0.021484375,-0.896484375,0.05864427675534265,0.41510482151611405,15.295184241372606,6.701541561958928,11271,0,102.50131289137775,69.219922421239,67.53076664939155,0.00599689810384338,0.0040497512647082595,0.302734375,,
4.010910000000149,1450,,,,0.125,-0.10546875,-0.984375,0.05864427675534265,0.41510482151611405,15.295458995152988,6.687844782498439,11266,0,102.29365563665272,69.18393498105873,67.63267433397846,0.006000017513166344,0.004057972304661467,0.30078125,,
4.018640000000596,1450,,,,0.1875,-0.056640625,-1.05078125,0.059103058024473715,0.41510482151611405,15.295133261518336,6.6831889645517135,11270,0,102.22026582472719,69.75154959353841,68.23651751516522,0.005951191391948204,0.004060885756527741,0.30078125,,
4.026420000000857,1450,,,,0.28125,-0.16015625,-1.185546875,0.059103058024473715,0.41510482151611405,15.295371124369332,6.675056259506709,11265,0,102.09746276519968,69.72392831264239,68.29153871628635,0.005953548968939075,0.004065770199116096,0.302734375,,
4.044850000000559,1450,,,,0.1875,-0.068359375,-1.12890625,0.059103058024473715,0.41510482151611405,15.295787201431537,6.676225440653077,11235,0,102.11812364901296,69.53801309625906,68.0956627594001,0.005969466239156112,0.00406494759875199,0.30078125,,
4.067750000000931,1450,,,,0.28125,-0.111328125,-1.150390625,0.059103058024473715,0.41510482151611405,15.295715045333603,6.677861809881705,11229,0,102.14267135606627,69.50149827378284,68.04354864726683,0.005972602488091954,0.004063970679492718,0.30078125,,
4.086620000000112,1450,,,,0.375,-0.10546875,-1.15234375,0.059103058024473715,0.4155292299911931,15.295184973358158,6.671623183454607,11243,0,102.04371066348283,69.58709816472485,68.19342192896868,0.00597135447446828,0.0040720709516485045,0.3046875,,
4.095054999999702,1450,,,,0.1875,-0.240234375,-1.1640625,0.059103058024473715,0.4155292299911931,15.29522800556543,6.67106612387172,11221,0,102.03547740482155,69.44818047298942,68.06277800559175,0.005983299017499897,0.004072399527691707,0.306640625,,
4.103955000001005,1450,,,,0.1875,0.01171875,-1.064453125,0.059103058024473715,0.4155292299911931,15.295264319943662,6.677125272703511,11229,0,102.1283959433761,69.50022167878315,68.05180972128136,0.005978818771423355,0.0040686943739092745,0.306640625,,
4.112785000000149,1450,,,,0.1875,0.021484375,-1.125,0.059103058024473715,0.4155292299911931,15.295380212359,6.663715006944858,11246,0,101.92405465802409,69.60169935401198,68.28780466744561,0.005970101791304054,0.0040768514496933835,0.306640625,,
4.136094999999739,1450,,,,0.1875,0.15234375,-1.046875,0.059103058024473715,0.4155292299911931,15.292612878754944,6.755275797200848,11285,0,103.30581765581526,69.84421714347636,67.60918090419345,0.005949372002231751,0.0040223216796523,0.306640625,,
4.145835000000894,1450,,,,0,0.03125,-1.06640625,0.059103058024473715,0.4155292299911931,15.292580797856125,6.730434077908887,11333,0,102.92570694106594,70.14343335918784,68.14957647009521,0.005923993310441004,0.0040371763511823176,0.3046875,,
4.155790000000037,1450,,,,-0.1875,0.138671875,-1.02734375,0.059103058024473715,0.4155292299911931,15.292966784470707,6.712549722074505,11289,0,102.65479993879349,69.87309720737532,68.06607898416459,0.005946912997973313,0.004047830498320066,0.3046875,,
4.165254999999888,1450,,,,-0.1875,-0.05859375,-1.029296875,0.059103058024473715,0.4155292299911931,15.29306387850222,6.707999239820846,11274,0,102.58586087152453,69.77977843790896,68.02085379514344,0.00595486599833413,0.004050550694423567,0.3046875,,
4.174235000000335,1450,,,,-0.46875,0.09375,-0.923828125,0.05958172280500202,0.4155292299911931,15.293227292556933,6.7017043166978105,11269,0,102.49068736276956,70.31269295925054,68.6039822431634,0.005909732830628626,0.00405431206174286,0.306640625,,
4.1958850000007075,1450,,,,-0.28125,0.044921875,-0.92578125,0.05958172280500202,0.4155292299911931,15.293933001204609,6.693168049228131,11248,0,102.36486371069839,70.18082756488916,68.55948908722515,0.005920836849736419,0.004059295493867445,0.310546875,,
4.231780000000261,1450,,,,-0.236328125,0.037109375,-0.974609375,0.05958172280500202,0.4155292299911931,15.293449968954075,6.66955057036306,11238,0,102.00043796325657,70.11647706136914,68.74134901913564,0.005926270791207935,0.004073798488403339,0.3125,,
4.2413700000010435,1450,,,,-0.4375,0.078125,-0.802734375,0.05958172280500202,0.4157108143824832,15.293190965119432,6.673257789459689,11237,0,102.05540573367779,70.1131774062343,68.70109123783269,0.005929139567785715,0.004073383584082903,0.314453125,,
4.25,1450,,,,-0.15625,-0.119140625,-0.716796875,0.05958172280500202,0.4157108143824832,15.29327315984918,6.679224472589317,11211,0,102.147204355258,69.94692744697166,68.47659501644614,0.00594323195536563,0.004069722876963736,0.31640625,,
4.257555000000633,1450,,,,-0.46875,0.134765625,-0.822265625,0.05958172280500202,0.4157108143824832,15.293418826955067,6.673153435478455,11221,0,102.05533038530609,70.01235938567116,68.60235435164641,0.005937677547652583,0.004073386591498774,0.318359375,,
4.265580000001006,1450,,,,-0.21875,-0.033203125,-0.74609375,0.05958172280500202,0.4157108143824832,15.293545592819187,6.667871331877121,11248,0,101.97539422111475,70.18360609125259,68.82405959527102,0.005923189723850564,0.004076579625483882,0.318359375,,
4.272630000000819,1450,,,,-0.5,0.2890625,-0.94921875,0.05958172280500202,0.4157108143824832,15.293392666544825,6.654048910103352,11236,0,101.7629828046052,70.10867113670781,68.8940803468028,0.005929520666165123,0.004085088731928075,0.3203125,,
4.279525000000373,1450,,,,-0.125,-0.03125,-0.87890625,0.05958172280500202,0.4157108143824832,15.293418676181988,6.660291074282247,11247,0,101.8586199042363,70.17181439403221,68.89138539281717,0.005924185058806709,0.0040812531602462225,0.3203125,,
4.287530000001192,1450,,,,-0.5,0.2421875,-0.93359375,0.05958172280500202,0.4157108143824832,15.293283998690798,6.652467581966587,11251,0,101.73807602309887,70.20165199695916,69.002338889346,0.005921667119749405,0.0040860888138684595,0.3203125,,
4.295575000000186,1450,,,,-0.15625,0.0546875,-0.92578125,0.05958172280500202,0.4157108143824832,15.293576416366907,6.656334748962679,11220,0,101.79916413617916,70.00552142843871,68.76826742387655,0.005938257524550154,0.004083636814801121,0.3203125,,
4.30269000000041,1450,,,,-0.46875,0.2109375,-0.8203125,0.05958172280500202,0.4157108143824832,15.29349980092181,6.643057938667663,11243,0,101.59560526252595,70.15056344562885,69.04881688962607,0.005925979692304047,0.004091818866655448,0.322265625,,
4.31159500000067,1450,,,,-0.0625,-0.12890625,-0.74609375,0.05958172280500202,0.4157108143824832,15.293425747205548,6.645342657088441,11214,0,101.63005449091969,69.97046073695866,68.8481976000616,0.005941233057550859,0.004090431875342796,0.322265625,,
4.319615000000224,1450,,,,-0.40625,0.2109375,-0.794921875,0.05983552209373996,0.4157108143824832,15.293486744966012,6.6446224484271,11200,0,101.61944534032347,70.17701951621056,69.05865238802255,0.005923745654180368,0.004090858919671013,0.322265625,,
4.3276700000008566,1450,,,,-0.1875,-0.0078125,-1.01171875,0.05983552209373996,0.4157108143824832,15.29370770012112,6.635016374965365,11221,0,101.47400102423752,70.31128766151932,69.28995304395768,0.0059124335253782825,0.004096722413489824,0.32421875,,
4.334785000000149,1450,,,,-0.25,0.046875,-0.884765625,0.05983552209373996,0.4157108143824832,15.293754787554636,6.636081060050341,11245,0,101.49059648274554,70.46032906375973,69.42547536976859,0.005899927234320825,0.004096052528897673,0.322265625,,
4.344770000001415,1450,,,,-0.3125,0.19140625,-0.9765625,0.05983552209373996,0.4157108143824832,15.293449074879941,6.628181012243745,11234,0,101.3677487698359,70.38991381110024,69.44014705399695,0.005905829285401498,0.0041010165405408186,0.322265625,,
4.360785000000149,1450,,,,-0.25,0.19140625,-1.28125,0.05983552209373996,0.4157108143824832,15.293725932877532,6.624903399575054,11250,0,101.31945692488952,70.49378913603375,69.57576686212644,0.005897126817516858,0.004102971206119466,0.322265625,,
4.379380000000819,1450,,,,-0.3125,0.193359375,-0.94921875,0.05983552209373996,0.4157108143824832,15.293724956496016,6.6382773393016175,11249,0,101.52398781221912,70.48385334125354,69.42581242141704,0.005897958109210973,0.004094705333594565,0.32421875,,
4.386750000000931,1450,,,,-0.1875,0.1328125,-0.77734375,0.05983552209373996,0.4152150174481049,15.293387031238023,6.6364603229782695,11224,0,101.49395623676156,70.32942842872704,69.2942033559762,0.00590385883583414,0.004091031947552678,0.322265625,,
4.394320000000298,1450,,,,-0.375,0.2265625,-0.94140625,0.05983552209373996,0.4152150174481049,15.293155597023905,6.630054251905754,11248,0,101.39445129110463,70.47855001557423,69.50927700494132,0.005891367194080346,0.004095046742311548,0.32421875,,
4.4008000000007454,1450,,,,-0.125,0.0546875,-0.859375,0.05983552209373996,0.4152150174481049,15.29301911702965,6.645854363615769,11238,0,101.63517783177087,70.41942807629628,69.28647106108902,0.00589631340087338,0.004085347478167248,0.32421875,,
4.407780000001192,1450,,,,-0.3125,0.150390625,-0.92578125,0.05983552209373996,0.4152150174481049,15.29297555024456,6.652029293688388,11247,0,101.72932134788711,70.4760156545256,69.27797681212917,0.00589157905128313,0.004081566769016186,0.32421875,,
4.414735000000335,1450,,,,-0.0625,-0.01953125,-1.0703125,0.05983552209373996,0.4152150174481049,15.293106094477812,6.659253812752504,11238,0,101.84067506847992,70.41838847394642,69.14564188286806,0.005896400449461113,0.004077103938764203,0.322265625,,
4.421740000000224,1450,,,,-0.40625,0.154296875,-0.9375,0.05983552209373996,0.4152150174481049,15.293057810413904,6.642932840001558,11254,0,101.59075595284085,70.51841243289742,69.41420188430585,0.005888036941319509,0.004087133849470031,0.32421875,,
4.4286700000008565,1450,,,,-0.25,0.0546875,-1,0.05983552209373996,0.4152150174481049,15.293097692293415,6.6470964505145105,11228,0,101.65469538781521,70.35566109805089,69.21043915349141,0.0059016575349841735,0.004084563097297662,0.32421875,,
4.436674999999814,1450,,,,-0.1875,-0.09375,-0.6796875,0.05983552209373996,0.4152150174481049,15.293174620752966,6.645016928452517,11251,0,101.62340424468385,70.50018850530812,69.37396855507932,0.005889558967872014,0.004085820786404385,0.32421875,,
4.443795000000857,1450,,,,-0.46875,0.25,-0.84375,0.05983552209373996,0.4152150174481049,15.293124118996866,6.646922488163689,11230,0,101.65221062083877,70.3666044393897,69.22289639313018,0.005900739715325478,0.004084662939568041,0.326171875,,
4.4507400000002235,1450,,,,-0.28125,0.078125,-0.77734375,0.05983552209373996,0.4152150174481049,15.29307562117492,6.645941056214551,11244,0,101.63687914656025,70.4533194171105,69.31865677960941,0.005893476998434576,0.0040852790929300905,0.326171875,,
4.467905000001192,1450,,,,-0.125,0.0859375,-0.96484375,0.05921119218552758,0.4152150174481049,15.292674716463104,6.673900468634878,11204,0,102.06178895688386,69.47171261732231,68.06828816871976,0.0059767494107317255,0.004068271012019131,0.328125,,
4.4814050000011925,1450,,,,-0.375,0.13671875,-0.9296875,0.05921119218552758,0.4152150174481049,15.292758013328816,6.6844730919866455,11238,0,102.22402944235962,69.68496006002921,68.1688644442665,0.005958459574209748,0.004061814230109461,0.326171875,,
4.490545000000857,1450,,,,-0.26953125,0.05078125,-0.984375,0.05921119218552758,0.4152150174481049,15.292761056890017,6.68749486956085,11240,0,102.27026110937194,69.69367692281546,68.14657180573953,0.005957714326192724,0.004059978071279755,0.326171875,,
4.498260000000708,1450,,,,-0.25,-0.015625,-0.96875,0.05921119218552758,0.4152150174481049,15.293334748400682,6.686921630370126,11232,0,102.26533092957159,69.64509431270672,68.10235069856677,0.005961870273070319,0.004060173801559949,0.328125,,
4.506625,1450,,,,-0.4375,0.267578125,-0.794921875,0.05921119218552758,0.4152150174481049,15.293145802668587,6.685802508016771,11227,0,102.24695256294778,69.61275881768306,68.08296684913552,0.005964639593376262,0.004060903597028772,0.330078125,,
4.514985000000335,1450,,,,-0.3125,0.0703125,-0.91015625,0.05921119218552758,0.4152150174481049,15.293289770041255,6.6786516443154635,11247,0,102.13855486967888,69.74074311557409,68.28052658915924,0.0059536936215321395,0.00406521335628733,0.330078125,,
4.527730000000447,1450,,,,-0.25,0.1875,-0.837890625,0.05921119218552758,0.4152150174481049,15.293592482599024,6.675778332198675,11236,0,102.09663331681111,69.67105336294554,68.2403044052909,0.0059596489130870015,0.00406688255977718,0.330078125,,0.06682500000018626,116170,
4.546115000000223,1450,,,,-0.1875,0.24609375,-1.029296875,0.05921119218552758,0.41500307589479346,15.293367357459903,6.687657924734343,11232,0,102.27680940399024,69.6426411515898,68.0923090556174,0.005959037007104085,0.004057645895615927,0.330078125,,
4.566080000001006,1540,,,,-0.20703125,0.220703125,-0.93359375,0.05921119218552758,0.41500307589479346,15.293589794167788,6.678281741861377,11214,0,102.13490148990823,69.53347907480219,68.08003734323145,0.005968392225108493,0.004063283655644385,0.328125,,
4.578545000000857,1540,,,,-0.28125,0.232421875,-0.830078125,0.05921119218552758,0.41500307589479346,15.292541803046403,6.852247981421679,11216,0,104.78828870073136,69.54390855197701,66.36610771513787,0.005967497147282437,0.003960395584663241,0.328125,,
4.586890000000596,1540,,,,0.03125,0.115234375,-0.8984375,0.05921119218552758,0.41500307589479346,15.275812237483546,7.373820956032597,11486,0,112.64110439717537,71.2216112221669,63.228793434977085,0.005826926248554576,0.003684295161307032,0.326171875,,
4.595030000001192,1540,,,,0.15625,-0.05859375,-0.97265625,0.05921119218552758,0.41500307589479346,15.264769080553688,7.705768409426815,11902,0,117.62677535812581,73.80099032016835,62.7416590274402,0.005623272453315322,0.0035281344288430713,0.322265625,,
4.603895000000485,1540,,,,-0.1875,-0.1328125,-0.82421875,0.05921119218552758,0.41500307589479346,15.254954338906101,7.9687664982521405,12240,0,121.56316906824107,75.89426598757484,62.43195745001564,0.005468174314548828,0.0034138882613518086,0.322265625,,
4.611205000000075,1540,,,,0,-0.142578125,-0.833984375,0.05921119218552758,0.41500307589479346,15.248856289497821,8.164088130453818,12492,0,124.49300663608521,77.46074164953583,62.22095822295232,0.005357592337192401,0.0033335452898805786,0.322265625,,
4.618865000001155,1540,,,,-0.21875,0.15625,-1.05078125,0.059035558958062465,0.41500307589479346,15.243135833843382,8.312436144630725,12682,0,126.70759326275554,78.40406504944127,61.87795303384346,0.005293132130752332,0.003275281813886205,0.322265625,,
4.625780000000261,1540,,,,0,0.28515625,-1.0703125,0.059035558958062465,0.41500307589479346,15.238849973250817,8.431827771918302,12788,0,128.4913584165527,79.05967135563422,61.52917389147119,0.0052492385659938376,0.003229813125248517,0.322265625,,
4.632760000000708,1540,,,,0.0625,-0.05078125,-0.86328125,0.059035558958062465,0.41500307589479346,15.234789304444085,8.552889832921604,12865,0,130.30147454868262,79.5326774307563,61.037434692300174,0.005218019678214762,0.0031849453533217076,0.3203125,,
4.639945000000298,1540,,,,-0.125,-0.24609375,-0.96875,0.059035558958062465,0.41500307589479346,15.230864286378864,8.659278823770613,12907,0,131.8883005827646,79.79555935537134,60.50237890911089,0.005200829209637692,0.0031466253948307134,0.3203125,,
4.646880000000819,1540,,,,0.1875,-0.265625,-0.87890625,0.059035558958062465,0.41500307589479346,15.22736401273937,8.76588471441071,12935,0,133.4813174400398,79.96362881728044,59.90623283531821,0.005189897982782765,0.0031090723694813254,0.3203125,,
4.653834999999963,1540,,,,0.03125,0.099609375,-0.86328125,0.059035558958062465,0.41500307589479346,15.223932927700258,8.864051914605787,12964,0,134.94573181561154,80.14691618141529,59.39196082980025,0.005178029245135518,0.0030753331010264884,0.318359375,,
4.660990000000224,1540,,,,0,0.16796875,-0.875,0.059035558958062465,0.41500307589479346,15.22025140996197,8.955524834565301,12980,0,136.30533949024195,80.24465993148961,58.87125202254773,0.005171722034202776,0.0030446575126611484,0.31640625,,
4.668950000000186,1540,,,,0.0625,-0.02734375,-1.00390625,0.059035558958062465,0.41500307589479346,15.21690214806431,9.064118857355982,13003,0,137.92780971081046,80.3891941920302,58.283528434606524,0.005162423632502799,0.003008842645764616,0.314453125,,
4.680990000000223,1540,,,,-0.25,-0.12890625,-0.76171875,0.059035558958062465,0.41500307589479346,15.21349829594951,9.150440721360887,13013,0,139.21021432161086,80.4464372280442,57.78774037528061,0.005158750221819897,0.002981125184794495,0.314453125,,
4.7010550000006335,1540,,,,0.21875,-0.033203125,-1.119140625,0.059035558958062465,0.4165590740025504,15.205849797009693,9.393389504205075,13012,0,142.8344698857497,80.43995769109661,56.316908485352904,0.005178509362252644,0.0029163763784452535,0.314453125,,
4.710520000000484,1540,,,,-0.03125,0.21875,-0.873046875,0.059035558958062465,0.4165590740025504,15.202770696936732,9.49153056688242,13016,0,144.29756277127933,80.46980464033322,55.76657227945208,0.0051765886081667194,0.002886806027783176,0.3125,,
4.718030000000261,1540,,,,0,-0.02734375,-0.880859375,0.059035558958062465,0.4165590740025504,15.200671861478682,9.543150871395609,13024,0,145.062304920669,80.51750430898977,55.50546322355957,0.005173521926412237,0.0028715873102275347,0.310546875,,
4.724950000000186,1540,,,,-0.1875,0.33984375,-0.56640625,0.059035558958062465,0.4165590740025504,15.19870787165658,9.603600725899666,13021,0,145.96232194897811,80.49839774612734,55.150121395209084,0.00517474987907558,0.0028538808402086176,0.3125,,
4.733049999999814,1540,,,,-0.21875,0.14453125,-0.794921875,0.059035558958062465,0.4165590740025504,15.196204396901846,9.64842194821366,12978,0,146.6193920326087,80.23398748264374,54.7226300493726,0.0051918032129795455,0.002841091265130237,0.3125,,
4.740990000000224,1540,,,,-0.125,0.1015625,-0.82421875,0.059035558958062465,0.4165590740025504,15.194114632043636,9.702747185108759,13006,0,147.4246529762812,80.4025676085508,54.53807486424036,0.005180917555153418,0.002825572694884142,0.310546875,,
4.760930000000633,1540,,,,-0.03125,-0.0546875,-1.25,0.059035558958062465,0.4165590740025504,15.188771086549897,9.85326609225615,13016,0,149.6590031301427,80.46623890175472,53.76638706578961,0.005176818000790969,0.002783388003996744,0.310546875,,
4.768035000000149,1540,,,,-0.125,0.009765625,-1.2109375,0.0725128299913994,0.4165590740025504,15.18684521936058,9.908729213665227,13022,0,150.48233688849027,98.8849243895552,65.71198084385841,0.00421256401391909,0.0027681592578617854,0.3125,,
4.775050000000745,1540,,,,-0.0625,0.0859375,-1.24609375,0.0725128299913994,0.4165590740025504,15.185176373442737,9.951381625248136,12989,0,151.11348513883016,98.6346530771723,65.27190673059735,0.004223252792065201,0.0027565976234341463,0.310546875,,
4.78206500000041,1540,,,,-0.0625,-0.00390625,-0.974609375,0.0725128299913994,0.4165590740025504,15.183570288447926,9.990039208775224,13010,0,151.68446251078933,98.79405212473571,65.13129327119347,0.004216438794074464,0.0027462211165690123,0.30859375,,
4.789040000000969,1540,,,,0.0625,-0.2734375,-0.94140625,0.0725128299913994,0.4165590740025504,15.182219670155188,10.018151643487554,13015,0,152.09777894035426,98.82928548142306,64.97746789595091,0.004214935603079424,0.0027387584283259368,0.30859375,,
4.796089999999851,1540,,,,0,0.044921875,-0.80078125,0.0725128299913994,0.4165590740025504,15.180400759559955,10.040938696061843,13014,0,152.42547340839215,98.82229618589463,64.83318960809193,0.004215233708180197,0.002732870462448672,0.306640625,,
4.803060000000522,1540,,,,0.0625,0.0625,-0.90625,0.0725128299913994,0.4165590740025504,15.1789207962277,10.073061213424275,13021,0,152.89819833412037,98.8756094233534,64.66760923322703,0.00421296087510297,0.0027244210758603305,0.3046875,,
4.814315000001341,1540,,,,0.15625,0.01953125,-0.93359375,0.0725128299913994,0.4165590740025504,15.177305934130304,10.125472589067268,13013,0,153.6773952119244,98.81109489003336,64.29774187268775,0.004215711550065689,0.00271060733055832,0.3046875,,
4.822445000000298,1540,,,,-0.15625,0.130859375,-1.048828125,0.0725128299913994,0.4165590740025504,15.175445204258732,10.152187769962994,13020,0,154.06396920641907,98.86885937100472,64.17390119200262,0.004213248505673716,0.0027038059330045773,0.30078125,,
4.833600000000559,1540,,,,0,-0.03515625,-1.111328125,0.0725128299913994,0.4165590740025504,15.17433744410654,10.208049921034503,13024,0,154.90039414806267,98.89742947526156,63.84582170961407,0.004212031356252282,0.0026892060300658716,0.30078125,,
4.844305000000634,1540,,,,0.0625,-0.1484375,-1.03515625,0.0725128299913994,0.5096353005823158,15.17247890996119,10.23651099624889,13016,0,155.3132472021721,98.83823884631373,63.63799651787298,0.005156256389541315,0.0032813382616289047,0.30078125,,
4.852895000000484,1540,,,,0.041015625,0.197265625,-0.958984375,0.0725128299913994,0.5096353005823158,15.171534146882381,10.269040255633902,13000,0,155.7970948940595,98.71399606224415,63.36061409191789,0.005162746124277706,0.003271147648349045,0.298828125,,
4.860260000000708,1540,,,,-0.1875,0.21875,-0.953125,0.0725128299913994,0.5096353005823158,15.170713476773306,10.307626709716178,13005,0,156.37405143863973,98.7519269659406,63.15109575880643,0.005160763098406052,0.003259078446159552,0.298828125,,
4.867955000001006,1540,,,,-0.09375,0.185546875,-0.68359375,0.0725128299913994,0.5096353005823158,15.169698321609538,10.352398005434258,12985,0,157.04275464767,98.59951403957348,62.785140429295424,0.005168740490726666,0.0032452009755285904,0.298828125,,
4.875070000000298,1540,,,,-0.21875,0.158203125,-0.712890625,0.0725128299913994,0.5096353005823158,15.168847960609718,10.384255978020366,12995,0,157.51720011464352,98.67709148552156,62.64528027015641,0.005164676957033054,0.003235426354781542,0.30078125,,
4.882250000000932,1540,,,,-0.0625,0.1171875,-0.91796875,0.0725128299913994,0.5096353005823158,15.168175879650024,10.407981444440797,13013,0,157.8700931014119,98.81269521409575,62.59114267489593,0.005157589310544539,0.0032281940839481134,0.298828125,,
4.890155000000261,1540,,,,-0.0625,0.1875,-1.08203125,0.0725128299913994,0.5096353005823158,15.167386453021134,10.44697762308044,13013,0,158.45334687532517,98.8153378843831,62.362417603039546,0.005157451378434837,0.0032163113662932526,0.298828125,,
4.898115000000224,1540,,,,-0.125,0.078125,-1.078125,0.0725128299913994,0.5096353005823158,15.16689196744937,10.457601022037009,12983,0,158.60930493992345,98.58769948678882,62.15757614228935,0.005169359902252401,0.0032131488173115104,0.298828125,,
4.906025000000373,1540,,,,-0.21875,-0.037109375,-1.1953125,0.0725128299913994,0.5096353005823158,15.16645486448062,10.466302271478527,13005,0,158.7367009983901,98.75089434181187,62.210499349368106,0.005160817063775516,0.003210570065882146,0.298828125,,
