Time (s),ESC signal (µs),Servo 1 (µs),Servo 2 (µs),Servo 3 (µs),AccX (g),AccY (g),AccZ (g),Torque (N·m),Thrust (kgf),Voltage (V),Current (A),Motor Electrical Speed (RPM),Motor Optical Speed (RPM),Electrical Power (W),Mechanical Power (W),Motor Efficiency (%),Propeller Mech. Efficiency (kgf/W),Overall Efficiency (kgf/W),Vibration (g),App message,90% settling time (s),Max acceleration (RPM/s),
0,1000,,,,-0.0625,0.046875,-0.955078125,0.00039275797044574566,0.010055572668331738,15.321629173272603,-0.023891656684005155,0,0,0.3660591040474668,0,0,0,0,0.05859375,,
0,1000,,,,-0.0625,0.046875,-0.95703125,0.00039275797044574566,0.010055572668331738,15.32180321845391,-0.022757585524773548,0,0,0.3486872471377155,0,0,0,0,0.05859375,,
0.007955000000074507,1000,,,,-0.0625,0.048828125,-0.95703125,0.00039275797044574566,0.010055572668331738,15.321714707613623,-0.023087486472602406,0,0,0.35373988104910287,0,0,0,0,0.05859375,,
0.018545000000856817,1000,,,,-0.0625,-0.0078125,-1.04296875,0.00039275797044574566,0.010055572668331738,15.321435340991377,-0.019155418760554238,0,0,0.2934885099694449,0,0,0,0,0.05859375,,
0.026645000000484288,1000,,,,-0.03125,0.013671875,-0.994140625,0.00039275797044574566,0.010055572668331738,15.321473796113688,-0.020964079443899566,0,0,0.32120059385935285,0,0,0,0,0.05859375,,
0.03532000000122935,1000,,,,0,0.02734375,-0.9375,0.00039275797044574566,0.010055572668331738,15.321466363461255,-0.021647017061085648,0,0,0.33166404377069564,0,0,0,0,0.060546875,,
0.0424300000006333,1000,,,,-0.03125,0.0234375,-0.962890625,0.00039275797044574566,0.010055572668331738,15.321402160327725,-0.021989781691378225,0,0,0.33691428871141743,0,0,0,0,0.060546875,,
0.04993500000052154,1000,,,,-0.0625,0.0546875,-0.953125,0.00039275797044574566,0.010055572668331738,15.321513472342401,-0.022031420118821886,0,0,0.33755470016536493,0,0,0,0,0.05859375,,
0.05777500000037253,1000,,,,-0.0625,0.07421875,-1.013671875,0.00039275797044574566,0.010055572668331738,15.32163484231532,-0.02197090970550753,0,0,0.336630255661268,0,0,0,0,0.060546875,,
0.06703000000026077,1000,,,,-0.0625,0.0546875,-0.94921875,0.00039275797044574566,0.010130515238372316,15.321544388309496,-0.023827535642815756,0,0,0.36507464501542825,0,0,0,0,0.060546875,,
0.07397500000055879,1000,,,,-0.0625,0.044921875,-0.9609375,0.00039275797044574566,0.010130515238372316,15.32147010839034,-0.02451681581678005,0,0,0.37563366068970705,0,0,0,0,0.060546875,,
0.08095500000007451,1000,,,,-0.03125,0.0546875,-0.974609375,0.00039275797044574566,0.010130515238372316,15.321407330460067,-0.025284247421249052,0,0,0.3873902537850913,0,0,0,0,0.060546875,,
0.08887500000093132,1000,,,,-0.0625,0.0390625,-0.96484375,0.0003793685745660692,0.010130515238372316,15.321534267740264,-0.025489382152970433,0,0,0.39053644212026356,0,0,0,0,0.060546875,,
0.09633499999996274,1000,,,,-0.03125,0.052734375,-0.98046875,0.0003793685745660692,0.010130515238372316,15.321468057478983,-0.025661207027420904,0,0,0.3931673637869846,0,0,0,0,0.060546875,,
0.10328500000014901,1000,,,,-0.0625,0.0546875,-0.96875,0.0003793685745660692,0.010130515238372316,15.321279292135854,-0.024645417988927165,0,0,0.37759933227978226,0,0,0,0,0.060546875,,
0.11053000000119209,1000,,,,-0.0625,0.08203125,-0.984375,0.0003793685745660692,0.010130515238372316,15.321308736393185,-0.024842473055792777,0,0,0.38061919946333017,0,0,0,0,0.060546875,,
0.1185100000007078,1000,,,,-0.0625,0.04296875,-0.953125,0.0003793685745660692,0.010130515238372316,15.321244466847624,-0.02485668987475114,0,0,0.3808354222076783,0,0,0,0,0.060546875,,
0.14869000000040977,1000,,,,-0.0625,0.04296875,-0.951171875,0.0003793685745660692,0.010130515238372316,15.321593380735804,-0.02519469298973888,0,0,0.386022841341254,0,0,0,0,0.060546875,,
0.15708500000089407,1000,,,,-0.0625,0.052734375,-0.958984375,0.0003793685745660692,0.010130515238372316,15.321877261779212,-0.025433860813622297,0,0,0.3896944936794968,0,0,0,0,0.060546875,,
0.16820500000100583,1000,,,,-0.0625,0.04296875,-0.94921875,0.0003793685745660692,0.010130515238372316,15.321775839866559,-0.024948128720447438,0,0,0.38224963587883254,0,0,0,0,0.060546875,,
0.18436000000033528,1000,,,,-0.0625,0.05078125,-0.95703125,0.0003793685745660692,0.010130515238372316,15.321557669285017,-0.02472176358435256,0,0,0.37877592644408803,0,0,0,0,0.060546875,,
0.19285500000044703,1000,,,,-0.0625,0.048828125,-0.95703125,0.0003793685745660692,0.010130515238372316,15.321328030415534,-0.024272082203467937,0,0,0.37188053342054334,0,0,0,0,0.060546875,,
0.20098500000033528,1000,,,,-0.0625,0.052734375,-0.958984375,0.0003793685745660692,0.010130515238372316,15.321163562022022,-0.023563676479488926,0,0,0.3610229414648211,0,0,0,0,0.060546875,,
0.208625,1000,,,,-0.0625,0.048828125,-0.955078125,0.0003793685745660692,0.010130515238372316,15.321106286388153,-0.02321358968282842,0,0,0.3556578748192176,0,0,0,0,0.060546875,,
0.2163500000005588,1000,,,,-0.0625,0.05078125,-0.95703125,0.0003793685745660692,0.00988789886980521,15.321149473646168,-0.02162830312904434,0,0,0.33137046510141743,0,0,0,0,0.060546875,,
0.22381500000040977,1000,,,,-0.0625,0.048828125,-0.955078125,0.0003793685745660692,0.00988789886980521,15.321186521552278,-0.020836641570138814,0,0,0.3192420719788267,0,0,0,0,0.060546875,,
0.23252500000037252,1000,,,,-0.0625,0.0546875,-0.9609375,0.0003793685745660692,0.00988789886980521,15.321412128408404,-0.02177917243298947,0,0,0.33368767666150284,0,0,0,0,0.060546875,,
0.2401800000006333,1000,,,,-0.0625,0.048828125,-0.953125,0.0005239613979112758,0.00988789886980521,15.32147318968777,-0.022153469684357892,0,0,0.33942379182745025,0,0,0,0,0.060546875,,
0.24948500000033527,1000,,,,-0.0625,0.048828125,-0.958984375,0.0005239613979112758,0.00988789886980521,15.32159848705002,-0.022838703351657434,0,0,0.3499254427189388,0,0,0,0,0.060546875,,
0.25698500000033525,1000,,,,-0.0625,0.04296875,-0.953125,0.0005239613979112758,0.00988789886980521,15.32151902763642,-0.022736900021855258,0,0,0.34836384631432227,0,0,0,0,0.060546875,,
0.26489000000059604,1000,,,,-0.0625,0.0546875,-0.958984375,0.0005239613979112758,0.00988789886980521,15.3213801980684,-0.023487869632913494,0,0,0.3598665806885329,0,0,0,0,0.060546875,,
0.27311500000022354,1000,,,,-0.0625,0.05078125,-0.953125,0.0005239613979112758,0.00988789886980521,15.321411304463616,-0.022808933111124474,0,0,0.349465045611537,0,0,0,0,0.05859375,,
0.28047000000067057,1000,,,,-0.0625,0.05078125,-0.95703125,0.0005239613979112758,0.00988789886980521,15.321471655394888,-0.02312914582498185,0,0,0.3543725521709544,0,0,0,0,0.05859375,,
0.2879500000011176,1000,,,,-0.0625,0.048828125,-0.953125,0.0005239613979112758,0.00988789886980521,15.321408590303271,-0.02284265103286811,0,0,0.3499815897602853,0,0,0,0,0.05859375,,
0.29559500000067057,1000,,,,-0.0625,0.05078125,-0.95703125,0.0005239613979112758,0.00988789886980521,15.321437707782994,-0.02284850691721873,0,0,0.3500719754480156,0,0,0,0,0.05859375,,
0.3026699999999255,1000,,,,-0.0625,0.04296875,-0.95703125,0.0005239613979112758,0.00988789886980521,15.321490710853368,-0.023507846900924244,0,0,0.3601752579246739,0,0,0,0,0.05859375,,
0.30973000000137835,1000,,,,-0.0625,0.048828125,-0.955078125,0.0005239613979112758,0.00988789886980521,15.321599284954395,-0.023202348621871642,0,0,0.35549708805413116,0,0,0,0,0.05859375,,
0.3202950000008568,1000,,,,-0.0625,0.046875,-0.95703125,0.0005239613979112758,0.00988789886980521,15.321530796168215,-0.023749876928131915,0,0,0.3638844707595781,0,0,0,0,0.05859375,,
0.3304199999999255,1000,,,,-0.0625,0.048828125,-0.953125,0.0005239613979112758,0.00988789886980521,15.321649860945321,-0.02342240143795897,0,0,0.35886983373490955,0,0,0,0,0.05859375,,
0.33778000000119207,1000,,,,-0.0625,0.05078125,-0.955078125,0.0005239613979112758,0.00988789886980521,15.321573910699716,-0.023700824028762196,0,0,0.36313392710116776,0,0,0,0,0.05859375,,
0.3582100000008941,1000,,,,-0.0625,0.046875,-0.953125,0.0005239613979112758,0.00988789886980521,15.322018322335667,-0.022403070477907787,0,0,0.34326025633908036,0,0,0,0,0.05859375,,
0.36653000000026076,1000,,,,-0.0625,0.046875,-0.95703125,0.0005239613979112758,0.010064514160308052,15.321824412214985,-0.022560978041195105,0,0,0.34567534411502937,0,0,0,0,0.05859375,,
0.3750200000004843,1000,,,,-0.0625,0.052734375,-0.95703125,0.0005239613979112758,0.010064514160308052,15.321926248560146,-0.021056263649308384,0,0,0.32262251870494096,0,0,0,0,0.05859375,,
0.3837750000003725,1000,,,,-0.0625,0.05078125,-0.955078125,0.0005239613979112758,0.010064514160308052,15.321832731700855,-0.02146472823085587,0,0,0.3288789755845909,0,0,0,0,0.05859375,,
0.39211500000022353,1000,,,,-0.0625,0.048828125,-0.95703125,0.0007347869624964224,0.010064514160308052,15.321953033033598,-0.02287340871724266,0,0,0.3504652940709733,0,0,0,0,0.05859375,,
0.4012150000007823,1000,,,,-0.0625,0.05078125,-0.95703125,0.0007347869624964224,0.010064514160308052,15.322052950690626,-0.022771805900190997,0,0,0.3489108157855757,0,0,0,0,0.05859375,,
0.4092850000010803,1000,,,,-0.0625,0.05078125,-0.958984375,0.0007347869624964224,0.010064514160308052,15.322250545768862,-0.02369820368594778,0,0,0.363109814360755,0,0,0,0,0.05859375,,
0.4174300000006333,1000,,,,-0.0625,0.046875,-0.953125,0.0007347869624964224,0.010064514160308052,15.322075246532794,-0.02355600038848308,0,0,0.3609268104596935,0,0,0,0,0.05859375,,
0.4243400000007823,1000,,,,-0.0625,0.048828125,-0.955078125,0.0007347869624964224,0.010064514160308052,15.322244343597172,-0.023810880682749704,0,0,0.3648361318573288,0,0,0,0,0.05859375,,
0.432855000000447,1000,,,,-0.0625,0.0546875,-0.953125,0.0007347869624964224,0.010064514160308052,15.322003681434552,-0.024725987128784536,0,0,0.37885166581434,0,0,0,0,0.05859375,,
0.4418350000008941,1000,,,,-0.0625,0.05078125,-0.95703125,0.0007347869624964224,0.010064514160308052,15.32211437045262,-0.02571045672014203,0,0,0.39393855838258834,0,0,0,0,0.05859375,,
0.44884500000067057,1000,,,,-0.0625,0.05078125,-0.94921875,0.0007347869624964224,0.010064514160308052,15.322196020022517,-0.025873308949834424,0,0,0.39643591141596596,0,0,0,0,0.05859375,,
0.4569500000011176,1000,,,,-0.0625,0.048828125,-0.955078125,0.0007347869624964224,0.010064514160308052,15.321989146940346,-0.026050878785235085,0,0,0.3991512820156305,0,0,0,0,0.05859375,,
0.4650850000008941,1000,,,,-0.0625,0.05078125,-0.95703125,0.0007347869624964224,0.010064514160308052,15.321956932772581,-0.025578940427032133,0,0,0.39191942360894183,0,0,0,0,0.05859375,,
0.476125,1000,,,,-0.0625,0.05078125,-0.958984375,0.0007347869624964224,0.010064514160308052,15.322055866617449,-0.025452224575551866,0,0,0.38998040687629926,0,0,0,0,0.05859375,,
0.4984850000003353,1000,,,,-0.0625,0.048828125,-0.953125,0.0007347869624964224,0.010064514160308052,15.322238481861513,-0.025028668262289312,0,0,0.38349522399819524,0,0,0,0,0.05859375,,
0.5062700000004843,1000,,,,-0.0625,0.05078125,-0.955078125,0.0007347869624964224,0.010064514160308052,15.321943386245579,-0.026060232643666054,0,0,0.3992934091986402,0,0,0,0,0.05859375,,
0.5150250000003725,1000,,,,-0.0625,0.05078125,-0.95703125,0.0007347869624964224,0.010285719393862951,15.321946517240573,-0.026247261301260934,0,0,0.40215913388195823,0,0,0,0,0.05859375,,
0.5230600000005216,1000,,,,-0.0625,0.05078125,-0.953125,0.0007347869624964224,0.010285719393862951,15.322049572258967,-0.025538371363266733,0,0,0.3913001920227317,0,0,0,0,0.05859375,,
0.5309050000002608,1000,,,,-0.0625,0.05078125,-0.955078125,0.0007347869624964224,0.010285719393862951,15.32214418369169,-0.025413388755180087,0,0,0.38938760670307837,0,0,0,0,0.05859375,,
0.5389500000001862,1000,,,,-0.0625,0.052734375,-0.95703125,0.0008066114534661336,0.010285719393862951,15.32223554831835,-0.02561316710192886,0,0,0.3924509794741925,0,0,0,0,0.05859375,,
0.5469850000012666,1000,,,,-0.0625,0.05078125,-0.953125,0.0008066114534661336,0.010285719393862951,15.32232246847573,-0.025161926993300263,0,0,0.3855391593195906,0,0,0,0,0.05859375,,
0.5556700000008569,1000,,,,-0.0625,0.048828125,-0.955078125,0.0008066114534661336,0.010285719393862951,15.322339185993757,-0.02558152013094947,0,0,0.39196872833973523,0,0,0,0,0.05859375,,
0.5639300000006333,1000,,,,-0.0625,0.048828125,-0.95703125,0.0008066114534661336,0.010285719393862951,15.322284078485508,-0.025081299140504436,0,0,0.38430279048828336,0,0,0,0,0.05859375,,
0.571464999999851,1000,,,,-0.0625,0.05078125,-0.95703125,0.0008066114534661336,0.010285719393862951,15.322357968406907,-0.025270465719123114,0,0,0.38720312177675964,0,0,0,0,0.05859375,,
0.5792850000010803,1000,,,,-0.0625,0.048828125,-0.95703125,0.0008066114534661336,0.010285719393862951,15.322307469286638,-0.025049737373638317,0,0,0.38381977806376705,0,0,0,0,0.05859375,,
0.5867550000008196,1000,,,,-0.0625,0.05078125,-0.953125,0.0008066114534661336,0.010285719393862951,15.322324968061166,-0.024420207247034656,0,0,0.3741743512264673,0,0,0,0,0.05859375,,
0.5944900000002236,1000,,,,-0.0625,0.05078125,-0.955078125,0.0008066114534661336,0.010285719393862951,15.322406333482093,-0.024032957588880945,0,0,0.3682427415721759,0,0,0,0,0.05859375,,
0.6029050000011921,1000,,,,-0.0625,0.05078125,-0.955078125,0.0008066114534661336,0.010285719393862951,15.322490256443134,-0.02454782940591243,0,0,0.3761338768889214,0,0,0,0,0.05859375,,
0.6108300000010058,1000,,,,-0.0625,0.0546875,-0.953125,0.0008066114534661336,0.010285719393862951,15.3222526519183,-0.02417472065945167,0,0,0.37041117773366744,0,0,0,0,0.05859375,,
0.6184500000011176,1000,,,,-0.0625,0.048828125,-0.95703125,0.0008066114534661336,0.010285719393862951,15.322144225272575,-0.024429772739604602,0,0,0.37431650130685407,0,0,0,0,0.05859375,,
0.6291200000010431,1000,,,,-0.0625,0.05078125,-0.95703125,0.0008066114534661336,0.010285719393862951,15.322169916457346,-0.024464245571521853,0,0,0.374845327524797,0,0,0,0,0.05859375,,
0.6375350000010803,1000,,,,-0.0625,0.048828125,-0.955078125,0.0008066114534661336,0.010285719393862951,15.322091444062757,-0.024144830066227266,0,0,0.36994929417609,0,0,0,0,0.05859375,,
0.6450250000003726,1000,,,,-0.0625,0.05078125,-0.955078125,0.0008066114534661336,0.010285719393862951,15.322174143523624,-0.024375782608539502,0,0,0.37348998601271677,0,0,0,0,0.05859375,,
0.653730000000447,1000,,,,-0.0625,0.048828125,-0.955078125,0.0008066114534661336,0.010285719393862951,15.322200771991385,-0.024182178746122537,0,0,0.3705241978522724,0,0,0,0,0.05859375,,
0.6618400000007824,1000,,,,-0.0625,0.046875,-0.95703125,0.0008066114534661336,0.010378405151102315,15.322157739898783,-0.023798418327180625,0,0,0.3646431195691597,0,0,0,0,0.05859375,,
0.6699350000005215,1000,,,,-0.0625,0.046875,-0.953125,0.0008066114534661336,0.010378405151102315,15.322149953483535,-0.023434803691692797,0,0,0.3590715762945666,0,0,0,0,0.05859375,,
0.677195000000298,1000,,,,-0.0625,0.05078125,-0.95703125,0.0008066114534661336,0.010378405151102315,15.322314096192038,-0.022581985807235083,0,0,0.34600827945420665,0,0,0,0,0.05859375,,
0.6861100000003353,1000,,,,-0.0625,0.05078125,-0.953125,0.0007215946006655727,0.010378405151102315,15.322333500345987,-0.022960703164122263,0,0,0.3518115512831307,0,0,0,0,0.05859375,,
0.6941500000003725,1000,,,,-0.0625,0.05078125,-0.95703125,0.0007215946006655727,0.010378405151102315,15.322611451901544,-0.02200288288748059,0,0,0.3371416253065586,0,0,0,0,0.05859375,,
0.702730000000447,1000,,,,-0.0625,0.046875,-0.95703125,0.0007215946006655727,0.010378405151102315,15.322614202058881,-0.021943005783912124,0,0,0.33622421206043207,0,0,0,0,0.05859375,,
0.7095950000006706,1000,,,,-0.0625,0.05078125,-0.95703125,0.0007215946006655727,0.010378405151102315,15.322680858136836,-0.021887670362815942,0,0,0.3353777876975288,0,0,0,0,0.05859375,,
0.717640000000596,1000,,,,-0.0625,0.048828125,-0.95703125,0.0007215946006655727,0.010378405151102315,15.322647126067487,-0.02290928241337898,0,0,0.35103085033162984,0,0,0,0,0.05859375,,
0.725820000000298,1000,,,,-0.0625,0.046875,-0.95703125,0.0007215946006655727,0.010378405151102315,15.322517335206866,-0.024083295294358258,0,0,0.36901670963671035,0,0,0,0,0.05859375,,
0.7349000000003725,1000,,,,-0.0625,0.048828125,-0.955078125,0.0007215946006655727,0.010378405151102315,15.322591438853735,-0.025002638612153155,0,0,0.38310521634733175,0,0,0,0,0.05859375,,
0.7433700000001118,1000,,,,-0.0625,0.05078125,-0.953125,0.0007215946006655727,0.010378405151102315,15.322668880512166,-0.024532357054826315,0,0,0.37590118400960026,0,0,0,0,0.05859375,,
0.7521800000006333,1000,,,,-0.0625,0.046875,-0.95703125,0.0007215946006655727,0.010378405151102315,15.322668783901037,-0.024326964744713776,0,0,0.3727540233008868,0,0,0,0,0.05859375,,
0.7597050000000745,1000,,,,-0.0625,0.05078125,-0.953125,0.0007215946006655727,0.010378405151102315,15.322732894894344,-0.02415664055392109,0,0,0.3701457508457054,0,0,0,0,0.05859375,,
0.7683800000008195,1000,,,,-0.0625,0.05078125,-0.955078125,0.0007215946006655727,0.010378405151102315,15.322390090788732,-0.024095827096425458,0,0,0.36920566233162805,0,0,0,0,0.05859375,,
0.7802650000005961,1000,,,,-0.0625,0.05078125,-0.958984375,0.0007215946006655727,0.010378405151102315,15.322476400580213,-0.02415135649824241,0,0,0.3700585899863189,0,0,0,0,0.05859375,,
0.7886550000002608,1000,,,,-0.0625,0.05078125,-0.95703125,0.0007215946006655727,0.010378405151102315,15.322233238941612,-0.024979534311868647,0,0,0.38274225092659625,0,0,0,0,0.05859375,,
0.7961850000005215,1000,,,,-0.0625,0.05078125,-0.953125,0.0007215946006655727,0.010378405151102315,15.322131158438175,-0.023994892899563157,0,0,0.3676528961397836,0,0,0,0,0.05859375,,
0.8033600000012666,1000,,,,-0.0625,0.046875,-0.95703125,0.0007215946006655727,0.010378405151102315,15.32215693130066,-0.023214236485827308,0,0,0.3556921744761716,0,0,0,0,0.05859375,,
0.8189400000004098,1000,,,,-0.0625,0.05078125,-0.95703125,0.0007215946006655727,0.00946728787565285,15.32207809259682,-0.023074490359727327,0,0,0.3535491432386146,0,0,0,0,0.05859375,,
0.8265100000007078,1000,,,,-0.0625,0.052734375,-0.95703125,0.0007215946006655727,0.00946728787565285,15.322074561275834,-0.023365666067112108,0,0,0.3580104776541644,0,0,0,0,0.05859375,,
0.8345050000008196,1000,,,,-0.0625,0.05078125,-0.955078125,0.0007215946006655727,0.00946728787565285,15.322070993423349,-0.02366003646876587,0,0,0.3625207584814161,0,0,0,0,0.05859375,,
0.8428450000006705,1000,,,,-0.0625,0.046875,-0.953125,0.0006634557818234407,0.00946728787565285,15.321820480405897,-0.02373787426010368,0,0,0.3637074479997566,0,0,0,0,0.05859375,,
0.8513650000002235,1000,,,,-0.0625,0.046875,-0.958984375,0.0006634557818234407,0.00946728787565285,15.321922109283639,-0.024005212109041343,0,0,0.3678059901515639,0,0,0,0,0.05859375,,
0.8591250000009313,1000,,,,-0.0625,0.046875,-0.95703125,0.0006634557818234407,0.00946728787565285,15.322032514565873,-0.024065029275343673,0,0,0.36872516102079533,0,0,0,0,0.05859375,,
0.8669900000002235,1000,,,,-0.0625,0.05078125,-0.95703125,0.0006634557818234407,0.00946728787565285,15.322126554011785,-0.024738671166373676,0,0,0.3790490503892598,0,0,0,0,0.05859375,,
0.8745400000009685,1000,,,,-0.0625,0.05078125,-0.955078125,0.0006634557818234407,0.00946728787565285,15.322213969412758,-0.023744614611730663,0,0,0.36382006570218184,0,0,0,0,0.05859375,,
0.8824050000002608,1000,,,,-0.0625,0.0546875,-0.95703125,0.0006634557818234407,0.00946728787565285,15.322171648822401,-0.023811321614417173,0,0,0.36484115696141484,0,0,0,0,0.05859375,,
0.8985300000002607,1000,,,,-0.0625,0.052734375,-0.953125,0.0006634557818234407,0.00946728787565285,15.322345997245769,-0.02401487511563985,0,0,0.36796422560248127,0,0,0,0,0.05859375,,
0.9145650000004097,1000,,,,-0.0625,0.046875,-0.95703125,0.0006634557818234407,0.00946728787565285,15.32237416258564,-0.026396915441435465,0,0,0.40446341513180867,0,0,0,0,0.05859375,,
0.9225250000013039,1000,,,,-0.0625,0.05078125,-0.95703125,0.0006634557818234407,0.00946728787565285,15.32232035314465,-0.02576985315531371,0,0,0.39485394549921216,0,0,0,0,0.05859375,,
0.9333100000005216,1000,,,,-0.0625,0.05078125,-0.955078125,0.0006634557818234407,0.00946728787565285,15.322011374345186,-0.024995916855168797,0,0,0.38298772236708284,0,0,0,0,0.05859375,,
0.9604850000003353,1000,,,,-0.0625,0.048828125,-0.95703125,0.0006634557818234407,0.00946728787565285,15.322193237781507,-0.024038348764279627,0,0,0.36832022488347876,0,0,0,0,0.05859375,,
0.9709300000006333,1000,,,,-0.0625,0.05078125,-0.95703125,0.0006634557818234407,0.0091105355799425,15.322308677821287,-0.023220969950489674,0,0,0.35579886937981525,0,0,0,0,0.05859375,,
0.9789600000008941,1000,,,,-0.0625,0.05078125,-0.95703125,0.0006634557818234407,0.0091105355799425,15.322294337994423,-0.023057435172637634,0,0,0.3532928083943791,0,0,0,0,0.05859375,,
0.987515000000596,1000,,,,-0.0625,0.048828125,-0.95703125,0.000736359332681916,0.0091105355799425,15.322379329912325,-0.022728521157629,0,0,0.34825502278512954,0,0,0,0,0.05859375,,
0.9954300000006333,1000,,,,-0.0625,0.05078125,-0.95703125,0.000736359332681916,0.0091105355799425,15.322458442580443,-0.022633989431691072,0,0,0.3468083624568914,0,0,0,0,0.05859375,,
1.0043700000010432,1000,,,,-0.0625,0.046875,-0.951171875,0.000736359332681916,0.0091105355799425,15.322760573057543,-0.02253353951321531,0,0,0.3452760308245298,0,0,0,0,0.05859375,,
1.0135950000006706,1000,,,,-0.0625,0.046875,-0.955078125,0.000736359332681916,0.0091105355799425,15.322682154768607,-0.023392512311285647,0,0,0.35843603094734156,0,0,0,0,0.05859375,,
1.022120000001043,1000,,,,-0.0625,0.05078125,-0.95703125,0.000736359332681916,0.0091105355799425,15.322972561896712,-0.023013662914524016,0,0,0.35263772538799143,0,0,0,0,0.05859375,,
1.0304900000002235,1000,,,,-0.0625,0.048828125,-0.955078125,0.000736359332681916,0.0091105355799425,15.323089833581125,-0.023118871524229513,0,0,0.35425254521678945,0,0,0,0,0.05859375,,
1.0395650000004097,1000,,,,-0.0625,0.05078125,-0.958984375,0.000736359332681916,0.0091105355799425,15.323140609819163,-0.023110106272809114,0,0,0.3541194079261179,0,0,0,0,0.05859375,,
1.0479400000004098,1000,,,,-0.0625,0.052734375,-0.958984375,0.000736359332681916,0.0091105355799425,15.323043716334013,-0.022752799749082682,0,0,0.3486421452241875,0,0,0,0,0.05859375,,
1.0557999999998138,1000,,,,-0.0625,0.05078125,-0.95703125,0.000736359332681916,0.0091105355799425,15.322829481791093,-0.02350621398280866,0,0,0.3601817086210705,0,0,0,0,0.05859375,,
1.0625800000010057,1000,,,,-0.0625,0.05078125,-0.95703125,0.000736359332681916,0.0091105355799425,15.322708969175032,-0.02431564837517665,0,0,0.37258160344962554,0,0,0,0,0.05859375,,
1.0701500000003725,1000,,,,-0.0625,0.046875,-0.953125,0.000736359332681916,0.0091105355799425,15.322764450126453,-0.023698507597195974,0,0,0.36312664973136616,0,0,0,0,0.05859375,,
1.0782700000004843,1000,,,,-0.0625,0.046875,-0.953125,0.000736359332681916,0.0091105355799425,15.322924203760982,-0.02591345941473191,0,0,0.39706997446917347,0,0,0,0,0.05859375,,
1.0898450000006705,1000,,,,-0.0625,0.044921875,-0.953125,0.000736359332681916,0.0091105355799425,15.322911112660037,-0.025652794805188367,0,0,0.3930754945912085,0,0,0,0,0.05859375,,
1.1084900000002236,1000,,,,-0.0625,0.05078125,-0.955078125,0.000736359332681916,0.0091105355799425,15.323373526489812,-0.02677548286195805,0,0,0.41029072524590965,0,0,0,0,0.05859375,,
1.116675000000745,1000,,,,-0.0625,0.05078125,-0.95703125,0.000736359332681916,0.00909219510654509,15.32340409967738,-0.026272236941455994,0,0,0.40258010325640226,0,0,0,0,0.05859375,,
1.1244950000001117,1000,,,,-0.0625,0.0546875,-0.95703125,0.000736359332681916,0.00909219510654509,15.323433608893435,-0.026000830688015106,0,0,0.39842200282387846,0,0,0,0,0.05859375,,
1.1332550000008195,1000,,,,-0.0625,0.05078125,-0.955078125,0.000736359332681916,0.00909219510654509,15.323572626364676,-0.025483588908555073,0,0,0.39049962542066496,0,0,0,0,0.05859375,,
1.1414500000001864,1000,,,,-0.0625,0.05078125,-0.95703125,0.0007270609171785508,0.00909219510654509,15.32339669987288,-0.02525263760235888,0,0,0.38695618369907187,0,0,0,0,0.05859375,,
1.1504200000008569,1000,,,,-0.0625,0.05078125,-0.95703125,0.0007270609171785508,0.00909219510654509,15.323135631034148,-0.025485688239691454,0,0,0.39052065754704407,0,0,0,0,0.05859375,,
1.1576300000008195,1000,,,,-0.0625,0.046875,-0.955078125,0.0007270609171785508,0.00909219510654509,15.323113283914042,-0.02505476164156547,0,0,0.3839169509351718,0,0,0,0,0.05859375,,
1.1645350000010803,1000,,,,-0.0625,0.046875,-0.955078125,0.0007270609171785508,0.00909219510654509,15.323065275775988,-0.024121834065199313,0,0,0.36962043795248595,0,0,0,0,0.05859375,,
1.1716900000004098,1000,,,,-0.0625,0.046875,-0.953125,0.0007270609171785508,0.00909219510654509,15.322933244229215,-0.02266943000878273,0,0,0.34736216270930426,0,0,0,0,0.05859375,,
1.1795400000000373,1000,,,,-0.0625,0.048828125,-0.955078125,0.0007270609171785508,0.00909219510654509,15.322788195797342,-0.023649916105447817,0,0,0.36238265533215325,0,0,0,0,0.05859375,,
1.1867400000002235,1000,,,,-0.0625,0.05078125,-0.953125,0.0007270609171785508,0.00909219510654509,15.322668185286656,-0.024087434498921548,0,0,0.3690837662618014,0,0,0,0,0.05859375,,
1.1954000000003726,1000,,,,-0.0625,0.05078125,-0.95703125,0.0007270609171785508,0.00909219510654509,15.322734632055273,-0.023706782274708627,0,0,0.36325273377527195,0,0,0,0,0.05859375,,
1.2032500000009314,1000,,,,-0.0625,0.0546875,-0.95703125,0.0007270609171785508,0.00909219510654509,15.32259916237584,-0.024207819426844947,0,0,0.37092671367271995,0,0,0,0,0.05859375,,
1.211265000000596,1000,,,,-0.0625,0.05078125,-0.955078125,0.0007270609171785508,0.00909219510654509,15.322668006559581,-0.023186976068887616,0,0,0.35528633637960694,0,0,0,0,0.05859375,,
1.2194699999997392,1000,,,,-0.0625,0.048828125,-0.955078125,0.0007270609171785508,0.00909219510654509,15.32253886461203,-0.02286106374109164,0,0,0.35028953765924953,0,0,0,0,0.05859375,,
1.2274500000001862,1000,,,,-0.0625,0.05078125,-0.95703125,0.0007270609171785508,0.00909219510654509,15.322414534772545,-0.02169598018472415,0,0,0.3324348021285544,0,0,0,0,0.05859375,,
1.2355250000003726,1000,,,,-0.0625,0.046875,-0.955078125,0.0007270609171785508,0.00909219510654509,15.322098079032083,-0.02165138153807604,0,0,0.3317445914729456,0,0,0,0,0.05859375,,
1.2457250000005589,1000,,,,-0.0625,0.05078125,-0.95703125,0.0007270609171785508,0.00909219510654509,15.32228688693785,-0.022660439811327267,0,0,0.3472097597733442,0,0,0,0,0.05859375,,
1.2539750000005587,1000,,,,-0.0625,0.048828125,-0.95703125,0.0007270609171785508,0.00909219510654509,15.322201326581125,-0.022680470505587517,0,0,0.34751473526819715,0,0,0,0,0.05859375,,
1.2622000000001863,1000,,,,-0.0625,0.0546875,-0.95703125,0.0007270609171785508,0.00925270359312283,15.322158292841147,-0.02280208238028801,0,0,0.34937711563717694,0,0,0,0,0.05859375,,undefined,0,
1.2723800000008196,1000,,,,-0.0625,0.05078125,-0.955078125,0.0007270609171785508,0.00925270359312283,15.322031648781131,-0.022429506017627977,0,0,0.3436656010686227,0,0,0,0,0.05859375,,
1.282155000001192,1180,,,,-0.0625,0.05078125,-0.955078125,0.0007270609171785508,0.00925270359312283,15.321915440872177,-0.02208727212931888,0,0,0.3384193158849566,0,0,0,0,0.05859375,,
1.2910250000003725,1180,,,,-0.0625,0.048828125,-0.953125,0.0007045765203725854,0.00925270359312283,15.322270299385847,-0.021758629440523793,0,0,0.3333916016318802,0,0,0,0,0.05859375,,
1.2996000000005588,1180,,,,-0.0625,0.052734375,-0.955078125,0.0007045765203725854,0.00925270359312283,15.322148916628784,-0.021474945708207842,0,0,0.32904231611767876,0,0,0,0,0.05859375,,
1.3070450000008569,1180,,,,-0.0625,0.05078125,-0.955078125,0.0007045765203725854,0.00925270359312283,15.32217302952249,-0.02124118666040862,0,0,0.32546113736316584,0,0,0,0,0.05859375,,
1.315625,1180,,,,-0.0625,0.046875,-0.95703125,0.0007045765203725854,0.00925270359312283,15.322395745994026,-0.020788782978168295,0,0,0.3185339598690789,0,0,0,0,0.05859375,,
1.3235449999999256,1180,,,,-0.0625,0.05078125,-0.95703125,0.0007045765203725854,0.00925270359312283,15.322376338568747,-0.020895478244406497,0,0,0.3201683814351721,0,0,0,0,0.05859375,,
1.3317700000004842,1180,,,,-0.09375,0.09765625,-0.953125,0.0007045765203725854,0.00925270359312283,15.322457196868044,0.030216879368456337,0,0,0.4629968407460973,0,0,0,0,0.05859375,,
1.3392800000002607,1180,,,,0.125,-0.1171875,-1.00390625,0.0007045765203725854,0.00925270359312283,15.318360617162472,0.163825057176266,0,0,2.5095313039533034,0,0,0,0,0.060546875,,
1.3477550000008196,1180,,,,-0.3125,-0.1953125,-0.8984375,0.0007045765203725854,0.00925270359312283,15.315632600075558,0.2554482900602677,0,0,3.912352158880593,0,0,0,0,0.0625,,
1.3567200000006705,1180,,,,-0.03125,0.0859375,-1.0546875,0.0007045765203725854,0.00925270359312283,15.31403963153419,0.2983551658681682,0,0,4.569022834378084,0.000005419471735480581,0.00011861336508768523,0,0.002025094627127699,0.064453125,,
1.3656550000002607,1180,,,,-0.0625,0.1015625,-0.97265625,0.0007045765203725854,0.00925270359312283,15.31348963440711,0.31748995183609857,0,0,4.861879086470508,0.000012362593610876104,0.00025427604000433416,0,0.0019031126501831313,0.064453125,,
1.3735100000007079,1180,,,,-0.03125,0.017578125,-0.92578125,0.0007045765203725854,0.00925270359312283,15.313153012339983,0.32564562186780405,0,0,4.98666123546029,0.000014729899649146303,0.0002953860098697214,0,0.0018554907093601208,0.064453125,,
1.381570000000298,1180,,,,-0.03125,0.068359375,-0.96484375,0.0007045765203725854,0.00925270359312283,15.312902783467315,0.33242889417137533,1492,0,5.090451338861815,0.11008114217043033,2.1625025924527077,0.08405348464496823,0.0018176587844942766,0.064453125,,
1.3895650000004098,1180,,,,0,-0.10546875,-1.015625,0.0007045765203725854,0.00925270359312283,15.312792021117449,0.33567824684452624,2162,0,5.140171179943555,0.1595189677004191,3.103378508537741,0.058003783039140874,0.001800076936975557,0.064453125,,
1.4009350000005216,1180,,,,-0.09375,0.01171875,-0.9765625,0.0007045765203725854,0.00925270359312283,15.312458647076735,0.3374192296029189,2586,0,5.166718000023186,0.19082217346562402,3.693295694960857,0.048488618618473464,0.001790828063982069,0.064453125,,
1.418265000000596,1180,,,,-0.0625,0.013671875,-0.927734375,0.0007045765203725854,0.00946482334310756,15.310477682189118,0.3982533877933923,3030,0,6.097449605666941,0.22354160761680023,3.6661493259254114,0.042340320641034136,0.001552259379775931,0.06640625,,
1.435320000000298,1180,,,,0.0625,-0.21875,-0.9140625,0.0007045765203725854,0.00946482334310756,15.308479256899693,0.46446703637804587,3529,0,7.11028399190699,0.26039149263002304,3.662181326743119,0.036348435379014644,0.001331145613013564,0.068359375,,
1.4466350000007078,1180,,,,-0.0625,0.1640625,-1,0.000696950278199215,0.00946482334310756,15.307457733198019,0.49300596711400335,3970,0,7.546668003812019,0.28975543947082577,3.8395148603921987,0.03266486855395352,0.001254172482256624,0.0703125,,
1.454140000000596,1180,,,,-0.125,-0.017578125,-0.94140625,0.000696950278199215,0.00946482334310756,15.30711478584413,0.5016138068371998,4182,0,7.678260119421262,0.3052215597895198,3.975139615516509,0.031009681457740024,0.001232678132272101,0.0703125,,
1.461670000000857,1180,,,,-0.09375,0.13671875,-0.994140625,0.000696950278199215,0.00946482334310756,15.307065851848682,0.5060217761443689,4388,0,7.745708649911288,0.320265715376566,4.134750348249079,0.029553033274195124,0.001221944146222949,0.072265625,,
1.4695200000004842,1180,,,,-0.125,0.1796875,-0.984375,0.000696950278199215,0.00946482334310756,15.307014600540336,0.5065697397885872,4512,0,7.754070403135823,0.3293068786345424,4.246890491236285,0.028741650895216846,0.001220626438893293,0.07421875,,
1.4775300000002607,1180,,,,-0.03125,-0.0234375,-0.935546875,0.000696950278199215,0.00946482334310756,15.306802626769969,0.5168360105633455,4593,0,7.911106804100328,0.3352270709253243,4.237423147309502,0.0282340662911915,0.001196396860449658,0.07421875,,
1.4850050000008195,1180,,,,-0.0625,0.037109375,-0.947265625,0.000696950278199215,0.00946482334310756,15.30686041097851,0.5184335520546054,4657,0,7.935590013667606,0.3399212524673062,4.283503203691898,0.027844164712878292,0.0011927056875173905,0.076171875,,
1.4926000000005588,1180,,,,0,0.0703125,-0.97265625,0.000696950278199215,0.00946482334310756,15.306998278359002,0.5118157407026698,4726,0,7.834362661772803,0.3449274686852151,4.40275085002464,0.027440039435494393,0.001208116569493326,0.076171875,,
1.5018250000001863,1180,,,,-0.03125,0.078125,-0.9921875,0.000696950278199215,0.00946482334310756,15.307053272894466,0.5005828567570105,4774,0,7.66244845587726,0.3484014253214681,4.546868110469792,0.027166431177410997,0.0012352217959584238,0.076171875,,
1.5099100000010803,1180,,,,-0.0625,-0.0234375,-0.98828125,0.000696950278199215,0.00946482334310756,15.307166409835387,0.49313192335310696,4776,0,7.548452412768198,0.34854044578587495,4.617376208086299,0.02715559544823172,0.0012538760033908175,0.076171875,,
1.5171800000006332,1180,,,,-0.0625,0.05859375,-0.970703125,0.000696950278199215,0.00946482334310756,15.307402177368433,0.48700855511954333,4759,0,7.454835817033952,0.3473201807929869,4.658991684288694,0.027251003156504965,0.0012696219709468156,0.078125,,
1.5237599999997764,1180,,,,0,0.001953125,-0.958984375,0.000696950278199215,0.00946482334310756,15.30742774153017,0.4835787347039696,4746,0,7.402346538821603,0.3464121809875474,4.679761737319225,0.027322432242784776,0.0012786247298028131,0.078125,,
1.531905000001192,1180,,,,-0.1875,0.03125,-0.94140625,0.000696950278199215,0.00946482334310756,15.30745221354562,0.4808536345769737,4737,0,7.360644032996753,0.3457571867957344,4.697376822540971,0.027374191208639043,0.0012858689131926583,0.078125,,
1.5389350000005215,1180,,,,0.0625,-0.12109375,-0.994140625,0.000696950278199215,0.00946482334310756,15.307479136625414,0.47945321874622815,4733,0,7.339220142945789,0.3454461150368017,4.706850432451367,0.02739884147227777,0.001289622488324571,0.080078125,,
1.5462549999998882,1180,,,,-0.0625,0.23828125,-1.0234375,0.000696950278199215,0.00946482334310756,15.307590106955024,0.4762522362652001,4732,0,7.290274020268384,0.34533055960127435,4.736866661543695,0.027408009745896328,0.0012982808762460102,0.08203125,,
1.557085000000894,1180,,,,-0.09375,0.109375,-0.90234375,0.000696950278199215,0.00946482334310756,15.307779975115647,0.47102030406280104,4733,0,7.210275178405429,0.34545333868271666,4.791125583075382,0.027398268545323207,0.0013126854535946753,0.08203125,,
1.5662750000003725,1180,,,,-0.09375,0.041015625,-0.984375,0.000696950278199215,0.015562829068746075,15.30794109414133,0.46753451123706324,4728,0,7.156990757495122,0.3450464225601937,4.821110355617626,0.04510358042049001,0.0021744933864065678,0.08203125,,
1.5735200000004843,1180,,,,0.0625,-0.0234375,-1.0234375,0.000696950278199215,0.015562829068746075,15.307943975219414,0.46300880896180996,4722,0,7.087712907620456,0.34461666391010404,4.862170186656185,0.045159827421478844,0.002195747665232529,0.083984375,,
1.581585000000894,1180,,,,-0.25,0.30859375,-0.953125,0.000696950278199215,0.015562829068746075,15.308142544457525,0.4598305694342103,4727,0,7.039151903197965,0.3449956987515961,4.901097511404189,0.045110211881080955,0.0022108954718928157,0.0859375,,
1.5906100000003354,1180,,,,-0.03125,0.05859375,-0.94921875,0.0011472918350178389,0.015562829068746075,15.307912316044842,0.45506907576118105,4716,0,6.966157509495726,0.5665698044781228,8.13317533670203,0.027468511286232886,0.0022340621852911064,0.0859375,,
1.5985450000008568,1180,,,,-0.125,0.15625,-1.02734375,0.0011472918350178389,0.015562829068746075,15.307592072393494,0.45704724584862244,4712,0,6.996292797261653,0.5661223196895951,8.091747102282158,0.027490223450789174,0.0022244393594901234,0.087890625,,
1.6066100000012666,1180,,,,-0.03125,-0.0390625,-0.994140625,0.0011472918350178389,0.015562829068746075,15.307744115377263,0.45326798926514766,4712,0,6.9385103953624485,0.5660945928240911,8.158733799728205,0.02749156990019526,0.002242964005523136,0.087890625,,
1.614745000001043,1180,,,,0,0.0703125,-1.0078125,0.0011472918350178389,0.015562829068746075,15.307560311600104,0.4506629696228026,4732,0,6.898550587705857,0.5685148909098398,8.241077363743763,0.027374531991307453,0.0022559563593664337,0.087890625,,
1.6223500000005588,1180,,,,-0.0625,0.0859375,-0.96484375,0.0011472918350178389,0.015562829068746075,15.307678232366586,0.44885428496908697,4736,0,6.870916967525761,0.5690559582110004,8.282096274784692,0.027348503858342046,0.0022650294192610946,0.087890625,,
1.6296699999999256,1180,,,,-0.125,0.0078125,-0.92578125,0.0011472918350178389,0.015562829068746075,15.307750552881927,0.4454995098415915,4728,0,6.81959536808625,0.5680267247745111,8.329331787523834,0.02739805785533072,0.002282075142108233,0.087890625,,
1.6377200000006706,1180,,,,0.0625,-0.10546875,-0.984375,0.0011472918350178389,0.015562829068746075,15.307566656903825,0.4426383277189929,4719,0,6.775715706458924,0.5669213808778069,8.366959380208224,0.02745147668385514,0.002296853903405491,0.087890625,,
1.6449300000006333,1180,,,,-0.125,0.14453125,-0.98828125,0.0011472918350178389,0.015562829068746075,15.307651316616491,0.43904645107142604,4714,0,6.720769984799313,0.5664161411582508,8.427845952760492,0.027475963232477838,0.002315631855270344,0.08984375,,
1.6541500000003726,1180,,,,-0.09375,0.115234375,-0.99609375,0.0011472918350178389,0.015562829068746075,15.306876294532898,0.4440550948298275,4711,0,6.797096404517245,0.5660582350768673,8.327941835585467,0.027493335675317466,0.0022896290037027075,0.08984375,,
1.6622050000010058,1180,,,,-0.03125,0.0703125,-1,0.0011472918350178389,0.015562829068746075,15.30671696597669,0.4589416013590085,4736,0,7.024889195914446,0.5689799035257076,8.099485809066092,0.02735215949159251,0.002215384276494659,0.091796875,,
1.6698650000011548,1180,,,,-0.125,0.14453125,-0.94140625,0.0011472918350178389,0.015562829068746075,15.306772767803094,0.4657284923702003,4788,0,7.128800204202173,0.5752821963823638,8.069831947923795,0.02705251295209938,0.0021830923329247383,0.091796875,,
1.6775000000009312,1180,,,,0,-0.03515625,-0.921875,0.0011472918350178389,0.015562829068746075,15.307124890818525,0.4498510215451442,4836,0,6.885925769053817,0.5809599377979441,8.43691839387593,0.026788127814346425,0.0022600924829435875,0.091796875,,
1.6843750000009314,1180,,,,-0.0625,0.0703125,-1.01953125,0.0011472918350178389,0.015562829068746075,15.307443050696838,0.4404343537003218,4821,0,6.741923786838144,0.5791815142797855,8.590745499236984,0.026870382919763097,0.0023083662113072916,0.091796875,,
1.6928800000008195,1180,,,,-0.09375,0.0078125,-0.986328125,0.0011472918350178389,0.015562829068746075,15.30767171723977,0.43482291431169706,4799,0,6.656126427416938,0.5766298284443667,8.663144168494124,0.026989288970241984,0.0023381210135435464,0.091796875,,
1.7004900000002234,1180,,,,0.125,0.0859375,-1.046875,0.0011472918350178389,0.015562829068746075,15.307751393443507,0.4334760107406186,4773,0,6.635543007439037,0.573403690871377,8.641398152774237,0.02714113863671842,0.00234537385279528,0.09375,,
1.7104400000004099,1180,,,,-0.125,0.158203125,-0.978515625,0.0011472918350178389,0.015562829068746075,15.30766610993709,0.4340757977482149,4750,0,6.644687378334256,0.5706431416085187,8.587960713835301,0.02727243689440979,0.0023421461661974367,0.09375,,
1.7192000000001864,1180,,,,-0.0625,0.0078125,-0.966796875,0.0011472918350178389,0.025813725336470018,15.307854487451632,0.4333126558869055,4738,0,6.6330870838879505,0.569234912483186,8.581749422013193,0.045348106327249386,0.0038916608526326528,0.095703125,,
1.7272800000002608,1180,,,,0.0625,-0.08984375,-0.96875,0.0011472918350178389,0.025813725336470018,15.307934173645286,0.4316457878317542,4732,0,6.607605306459753,0.5684979541175449,8.603691167233727,0.04540689223154648,0.003906668776240903,0.095703125,,
1.735660000000149,1180,,,,-0.125,0.1875,-1.0390625,0.0011472918350178389,0.025813725336470018,15.308035631658953,0.4307418326201127,4732,0,6.593811321794761,0.5685458599645249,8.622416266071943,0.045403066233004837,0.003914841368170027,0.09765625,,
1.743875,1180,,,,-0.0625,0.05859375,-0.9296875,0.0023079320110994304,0.025813725336470018,15.307967709324709,0.42847242966925514,4719,0,6.55904211771286,1.1405789956418293,17.3894141121867,0.02263212406602671,0.00393559377622525,0.09765625,,
1.7520200000004842,1180,,,,-0.03125,0.08203125,-0.998046875,0.0023079320110994304,0.025813725336470018,15.308169809711057,0.42509857262627115,4713,0,6.507481135628747,1.139145406976398,17.50516648814434,0.022660606080997747,0.003966776821701216,0.09765625,,
1.7601150000002235,1180,,,,-0.125,0.0546875,-0.97265625,0.0023079320110994304,0.025813725336470018,15.307974199620094,0.4242365128259544,4711,0,6.49420159287651,1.1386096971829722,17.5327125420916,0.022671267775371675,0.00397488820870376,0.09765625,,
1.768445000000298,1180,,,,0.03125,-0.013671875,-0.943359375,0.0023079320110994304,0.025813725336470018,15.30797570767855,0.420875740779761,4711,0,6.442755615807795,1.1386931967094136,17.674008834287346,0.022669605308142975,0.004006628044859262,0.09765625,,
1.7767099999999627,1180,,,,-0.0625,0.109375,-1.017578125,0.0023079320110994304,0.025813725336470018,15.307976920051965,0.4268575891025271,4711,0,6.53432612213051,1.1385197420446098,17.423674924773984,0.02267305904604909,0.003950480103685654,0.099609375,,
1.784855000000447,1180,,,,-0.0625,0.00390625,-0.88671875,0.0023079320110994304,0.025813725336470018,15.307910935682788,0.4239844042481553,4716,0,6.490315498349289,1.139890471456455,17.56294392385653,0.022645794471364812,0.003977268184117604,0.099609375,,
1.793565000001341,1180,,,,-0.03125,-0.0234375,-0.982421875,0.0023079320110994304,0.025813725336470018,15.308241525438188,0.42587478547690905,4725,0,6.5193940756746995,1.1420425425839318,17.517617884845237,0.022603120614110482,0.003959528299230558,0.099609375,,
1.8019300000006333,1180,,,,0,0.001953125,-0.962890625,0.0023079320110994304,0.025813725336470018,15.308295322035553,0.4240765975783242,4723,0,6.491889794893014,1.1414112449310965,17.58211061791302,0.0226156220653217,0.003976303688454007,0.099609375,,
1.8096950000012293,1180,,,,-0.09375,0.158203125,-0.994140625,0.0023079320110994304,0.025813725336470018,15.308084452587874,0.4238641162113401,4716,0,6.488547687384716,1.1396913515873135,17.56466017508271,0.022649751005408406,0.003978351794602366,0.099609375,,
1.8179850000003352,1180,,,,-0.0625,-0.03515625,-0.87890625,0.0023079320110994304,0.025813725336470018,15.30821052361408,0.42482878333315444,4712,0,6.503368451754761,1.1388139308030711,17.511139638655912,0.022667201935496734,0.003969285383100949,0.099609375,,
1.8255600000005214,1180,,,,-0.03125,0.087890625,-1.0234375,0.0023079320110994304,0.025813725336470018,15.308005200680944,0.42648716034458506,4722,0,6.528667668578556,1.1411969607891594,17.47978329914938,0.02261986863215911,0.003953904019453677,0.1015625,,
1.8336350000007078,1180,,,,-0.0625,-0.12109375,-0.91015625,0.0023079320110994304,0.025813725336470018,15.308070597049253,0.426155579713984,4717,0,6.523619699588117,1.1400104122092087,17.475120634042874,0.022643411902217626,0.003956963545575752,0.1015625,,
1.8415499999998137,1180,,,,-0.03125,0.1171875,-1.021484375,0.0023079320110994304,0.025813725336470018,15.308067189643133,0.429963999711961,4735,0,6.5819177967183995,1.1444171726463668,17.387290573834697,0.022556219841387025,0.003921915486294918,0.1015625,,
1.8500550000006333,1180,,,,-0.09375,0.095703125,-0.94921875,0.0023079320110994304,0.025813725336470018,15.30799649007541,0.4281338306290654,4736,0,6.553871176552273,1.1446405993773263,17.465106782576026,0.022551817007462813,0.003938698921764522,0.103515625,,
1.861905000001192,1180,,,,-0.0625,-0.0859375,-0.94140625,0.0023079320110994304,0.03009823362513143,15.308070154428556,0.42456379911775166,4742,0,6.499252421925255,1.1460340532139932,17.63332117010631,0.02626294876729229,0.0046310301048771265,0.103515625,,
1.878160000000149,1180,,,,-0.03125,0.05078125,-0.994140625,0.0023079320110994304,0.03009823362513143,15.308441059318763,0.4209981778214756,4730,0,6.444825791260659,1.143263998531438,17.739253713913133,0.026326582192558894,0.004670139209339897,0.103515625,,
1.8917350000003352,1180,,,,-0.125,0.09765625,-0.9453125,0.0023079320110994304,0.03009823362513143,15.308731782084159,0.41664169641259186,4715,0,6.378255979612905,1.1394892113099153,17.865216055174233,0.02641379429168232,0.004718881418578325,0.103515625,,
1.8997900000009686,1180,,,,0.0625,-0.08203125,-1.02734375,0.002749947271805508,0.03009823362513143,15.30858643817983,0.4187182875411647,4708,0,6.409985098070556,1.3557997474742745,21.15137128606396,0.022199615895490146,0.004695523182135194,0.10546875,,
1.907960000000894,1180,,,,-0.125,0.08984375,-0.96484375,0.002749947271805508,0.03009823362513143,15.308753760599014,0.42291948577909966,4699,0,6.474370268351393,1.3531862435762192,20.900661956128573,0.022242491577203302,0.004648827975171633,0.10546875,,
1.917995000001043,1180,,,,0,0.03125,-1.03515625,0.002749947271805508,0.03009823362513143,15.308848687976232,0.4210383826087547,4707,0,6.445612891187669,1.355407351899684,21.028370378133843,0.022206042768579473,0.0046695689197036976,0.10546875,,
1.9269550000010058,1180,,,,-0.0625,0.158203125,-0.974609375,0.002749947271805508,0.03009823362513143,15.308792667782743,0.4203080220599491,4718,0,6.434408366321616,1.3587960229623897,21.117652868824333,0.022150663614331555,0.004677700250215516,0.10546875,,
1.9350449999999255,1180,,,,0.03125,-0.115234375,-0.953125,0.002749947271805508,0.03009823362513143,15.309054474904034,0.4189707905971375,4713,0,6.414046656645189,1.3572248289959161,21.160195764865243,0.022176306373202958,0.0046925498419860346,0.107421875,,
1.9428950000004843,1180,,,,-0.03125,0.087890625,-0.9765625,0.002749947271805508,0.03009823362513143,15.308907537289793,0.4215142106374911,4711,0,6.452922076303045,1.3566311091297358,21.023516061222388,0.02218601167449206,0.0046642797277315125,0.107421875,,
1.9511550000011921,1180,,,,-0.125,0.25,-0.97265625,0.002749947271805508,0.03009823362513143,15.308928773254616,0.41969742322851833,4713,0,6.4251179585238845,1.3571174547490563,21.12206287121369,0.022178060948082695,0.004684463977070117,0.107421875,,
1.9596800000006334,1180,,,,-0.03125,0.052734375,-0.962890625,0.002749947271805508,0.03009823362513143,15.309094043354476,0.41829806054240865,4711,0,6.4037643469965175,1.3565568855638732,21.183741500421128,0.022187225574857222,0.004700084511893079,0.109375,,
1.966945000000298,1180,,,,0,0.03125,-1.015625,0.002749947271805508,0.03009823362513143,15.309047007562166,0.4185472851219248,4721,0,6.407560062819071,1.3594078498330364,21.215686415820365,0.022140694294819706,0.004697300271874379,0.109375,,
1.9746750000007451,1180,,,,0,-0.029296875,-0.98828125,0.002749947271805508,0.03009823362513143,15.309190785973882,0.4179717630022497,4718,0,6.3988094629513,1.358576318861026,21.23170453389957,0.022154245740397226,0.0047037239973151705,0.109375,,
1.982115000001155,1180,,,,-0.09375,0.107421875,-0.994140625,0.002749947271805508,0.03009823362513143,15.30913327783593,0.41679832048146326,4712,0,6.380821038228894,1.3569899223951352,21.26669772220709,0.02218014528214549,0.004716984451500259,0.109375,,
1.9901100000003353,1180,,,,-0.0625,0.140625,-1,0.002749947271805508,0.03009823362513143,15.30907725297014,0.4182313232353596,4706,0,6.402735637022046,1.35532595416304,21.167919948564535,0.022207376412058836,0.0047008396615810175,0.109375,,
1.997070000000298,1180,,,,-0.03125,0.09375,-0.92578125,0.002749947271805508,0.03009823362513143,15.309201602398534,0.41635572846291874,4699,0,6.374073785352325,1.3531753100397745,21.22936375712159,0.02224267129456178,0.004721977598423386,0.111328125,,
2.0044000000003726,1180,,,,0.0625,0,-0.9453125,0.002749947271805508,0.03009823362513143,15.309149575381197,0.4180080418317083,4705,0,6.399347636113823,1.3549052168108835,21.172552170234752,0.022214272446286196,0.004703328422928028,0.111328125,,
2.015725000000559,1180,,,,0,-0.0625,-0.98828125,0.002749947271805508,0.032317742439570925,15.309092915888991,0.4171311898489307,4707,0,6.385900143512611,1.3555313339415884,21.226942223934753,0.023841383544855436,0.0050607967104531505,0.111328125,,
2.0318950000004845,1180,,,,-0.03125,0.107421875,-0.978515625,0.002749947271805508,0.032317742439570925,15.30893685437053,0.41426482466433706,4698,0,6.341954041773215,1.3527588488404299,21.330316175898957,0.023890246563364446,0.005095865127167472,0.111328125,,
2.0406000000005586,1180,,,,-0.125,0.16015625,-0.9453125,0.002887290702577352,0.032317742439570925,15.308886248408438,0.41503107513755394,4705,0,6.353663518835469,1.4226444681834667,22.39093184532089,0.022716668262757533,0.005086473708241679,0.111328125,,
2.048100000000559,1180,,,,-0.0625,0.009765625,-0.994140625,0.002887290702577352,0.032317742439570925,15.308673278989582,0.4146687742693059,4708,0,6.3480287842878855,1.4233969289542372,22.42266028278434,0.022704659383601885,0.005090988641948367,0.111328125,,
2.055885000000708,1180,,,,0.0625,-0.109375,-1.01171875,0.002887290702577352,0.032317742439570925,15.308834655921327,0.4142834991859525,4710,0,6.342197589714264,1.4239934213176098,22.452681443211944,0.02269514869645084,0.0050956694398773756,0.111328125,,
2.0640950000006706,1180,,,,-0.125,0.17578125,-0.984375,0.002887290702577352,0.032317742439570925,15.308792926342694,0.4159701861235214,4711,0,6.368001442897218,1.4243626344021998,22.36749861278556,0.022689265822488085,0.005075021218096251,0.11328125,,
2.0719000000013037,1180,,,,-0.0625,0.080078125,-0.978515625,0.002887290702577352,0.032317742439570925,15.308754800378969,0.4148988543770691,4723,0,6.351584828616691,1.4278971829587332,22.480959028137775,0.02263310189645841,0.005088138364139489,0.111328125,,
2.080945000000298,1180,,,,0,0.01953125,-0.98046875,0.002887290702577352,0.032317742439570925,15.308195884170601,0.43199300043897526,4749,0,6.6130334713104295,1.4359003216088906,21.713186963869312,0.022506953966943678,0.004886976994714482,0.11328125,,
2.090070000000298,1180,,,,-0.1875,0.23828125,-0.984375,0.002887290702577352,0.032317742439570925,15.30840476780995,0.43978050188398177,4796,0,6.7323379318306,1.4500302604400368,21.538286923837717,0.022287633107576352,0.004800374367242044,0.11328125,,
2.0980750000011175,1180,,,,-0.03125,0.01171875,-0.9921875,0.002887290702577352,0.032317742439570925,15.308775944939189,0.4290988176370601,4841,0,6.568977657444074,1.463618434991709,22.280764394640805,0.022080715620225157,0.004919752223993018,0.115234375,,
2.111459999999963,1180,,,,0,-0.0234375,-0.97265625,0.002887290702577352,0.032317742439570925,15.30919746943834,0.4132140319077328,4830,0,6.325975211618276,1.4604806394836325,23.08704335106018,0.02212815532494644,0.005108736812660317,0.115234375,,
2.1203950000004843,1180,,,,-0.0625,0.099609375,-1,0.002887290702577352,0.032317742439570925,15.309123791702788,0.4098073017284488,4788,0,6.2737907129045185,1.4475870151571875,23.073562402705836,0.02232525029665431,0.005151230558758802,0.115234375,,
2.128959999999963,1180,,,,-0.0625,0.1796875,-0.8828125,0.002887290702577352,0.032317742439570925,15.309356980878983,0.40987701722393294,4749,0,6.274953574939072,1.436024493532606,22.88502179948876,0.022505007808097756,0.005150275942859819,0.115234375,,
2.1370250000003725,1180,,,,-0.0625,-0.033203125,-0.955078125,0.002887290702577352,0.032317742439570925,15.309225554436605,0.40993511962990853,4735,0,6.275789209099222,1.4317794379367395,22.814332831013708,0.022571732477274776,0.005149590173091483,0.1171875,,
2.1448800000008195,1180,,,,0.0625,-0.05078125,-0.986328125,0.002887290702577352,0.032317742439570925,15.30906672488289,0.4097770560316481,4733,0,6.273304293114575,1.4311112169690168,22.812717988823998,0.022582271773410743,0.005151629975137997,0.1171875,,
2.1530550000006334,1180,,,,-0.1875,0.19921875,-1.046875,0.002887290702577352,0.032317742439570925,15.308818582556006,0.4098401583869459,4731,0,6.274168632591774,1.4304671781612022,22.799310345764418,0.022592438982846047,0.005150920278376532,0.1171875,,
2.160895000000484,1180,,,,-0.03125,0.02734375,-0.931640625,0.002887290702577352,0.033202896144502655,15.308876719651982,0.41160852576332296,4729,0,6.301264177668408,1.4299570033731621,22.69317652862278,0.023219506646828886,0.005269243632440178,0.1171875,,
2.1724850000003353,1180,,,,0,-0.0234375,-1.015625,0.002887290702577352,0.033202896144502655,15.308833718874562,0.4109421301704947,4720,0,6.291044738860208,1.4270879535710956,22.68443498352312,0.023266187666581357,0.0052778032143701225,0.1171875,,
2.181339999999851,1180,,,,0,-0.00390625,-1.00390625,0.002887290702577352,0.033202896144502655,15.308846177346988,0.41355372797414197,4726,0,6.33103040762454,1.428940945349596,22.570432510144077,0.023236017032445967,0.005244469542353799,0.1171875,,
2.1898850000007077,1180,,,,-0.09375,0.125,-0.951171875,0.003066505166289081,0.033202896144502655,15.308872052976241,0.412961424494812,4722,0,6.321973610405886,1.516269875199853,23.984122184630642,0.021897748341222125,0.005251982717841644,0.119140625,,
2.197655000001192,1180,,,,-0.03125,0.060546875,-0.970703125,0.003066505166289081,0.033202896144502655,15.30863388265126,0.41695626923266393,4727,0,6.38303087075902,1.517806497070996,23.778774187418435,0.02187557913909073,0.005201744565674398,0.1171875,,
2.2054599999999627,1180,,,,0.125,-0.08984375,-1.04296875,0.003066505166289081,0.033202896144502655,15.308603625373935,0.41667443671049353,4728,0,6.378703792426903,1.5181390589234376,23.800118461776567,0.02187078709907373,0.005205273238102495,0.1171875,,
2.213795000000857,1180,,,,-0.125,0.1171875,-0.962890625,0.003066505166289081,0.033202896144502655,15.308974798266588,0.4196052972029401,4720,0,6.4237269200989715,1.515819078204397,23.597190494845048,0.021904260621811153,0.0051687901054161085,0.119140625,,
2.221839999999851,1180,,,,0.0625,-0.109375,-0.95703125,0.003066505166289081,0.033202896144502655,15.30886197778239,0.4196122094154677,4726,0,6.423785398133715,1.5177622983287409,23.62722607093463,0.021876216177634324,0.005168743052056036,0.119140625,,
2.2324900000002237,1180,,,,-0.09375,0.111328125,-0.955078125,0.003066505166289081,0.033202896144502655,15.3087039435744,0.4196196343158753,4729,0,6.4238327506526876,1.5185795815235485,23.639774578023605,0.021864442633418735,0.005168704951281477,0.119140625,,
2.241340000000782,1180,,,,0,-0.033203125,-0.947265625,0.003066505166289081,0.033202896144502655,15.308660811504502,0.41583658743846597,4719,0,6.365901270109009,1.5152776373848533,23.8030339003185,0.02191208747844123,0.005215741610760811,0.119140625,,
2.2511250000009313,1180,,,,-0.0625,0.0703125,-0.984375,0.003066505166289081,0.033202896144502655,15.308443841683811,0.4177894901198476,4716,0,6.395706947145401,1.5142944491038397,23.676732871253826,0.02192631437310765,0.005191434882632032,0.119140625,,
2.2583550000013783,1180,,,,0,0.0546875,-0.943359375,0.003066505166289081,0.033202896144502655,15.308079856207918,0.4196982900303558,4723,0,6.424774939298598,1.5165876757435395,23.605304311392853,0.021893159673887122,0.005167946964400197,0.119140625,,
2.2654550000010056,1180,,,,-0.1875,0.1796875,-0.96484375,0.003066505166289081,0.033202896144502655,15.308162079264639,0.4208160394255805,4718,0,6.441920137081004,1.5149594408331277,23.517203079136493,0.021916689813321507,0.00515419245162324,0.119140625,,
2.2739500000011175,1180,,,,0,-0.091796875,-0.9921875,0.003066505166289081,0.033202896144502655,15.308286975209576,0.4183813489138831,4720,0,6.40470175424901,1.515815275859913,23.66722657857238,0.021904315567519827,0.00518414399585042,0.12109375,,
2.282015000000596,1180,,,,0,0.12890625,-1.05859375,0.003066505166289081,0.033202896144502655,15.30827293297039,0.4154611789891961,4726,0,6.359993121020277,1.5177664630012,23.86427837452941,0.021876156150431692,0.005220586801385756,0.12109375,,
2.290080000001006,1180,,,,-0.09375,0.078125,-0.9296875,0.003066505166289081,0.033202896144502655,15.308454953431054,0.4159883842765859,4725,0,6.368139441848682,1.517187339007777,23.824656367250256,0.021884506475131123,0.005213908465368622,0.12109375,,
2.299675000000745,1180,,,,-0.03125,0.099609375,-0.998046875,0.003066505166289081,0.033202896144502655,15.308354576245836,0.42107632873005596,4710,0,6.445985743863548,1.5123373406137435,23.461692295138242,0.02195468911124558,0.00515094160363466,0.12109375,,
2.307964999999851,1180,,,,0.03125,-0.044921875,-1.009765625,0.003066505166289081,0.03385659966639681,15.308335495160971,0.42194275278835813,4707,0,6.459241219435953,1.5113753909582097,23.398652250522222,0.022401184953085528,0.005241575367168793,0.12109375,,
2.3150650000004096,1180,,,,-0.0625,-0.05859375,-1,0.003066505166289081,0.03385659966639681,15.308234135382982,0.41930369081065705,4715,0,6.4187990727597715,1.514196721249771,23.590031469839108,0.022359445897130608,0.005274600323614759,0.12109375,,
2.3255900000007825,1180,,,,-0.0625,0.111328125,-1.005859375,0.003066505166289081,0.03385659966639681,15.308222805960265,0.41979886079135537,4712,0,6.426374494682364,1.5130892840268526,23.544990807474562,0.02237581088162406,0.005268382615176278,0.12109375,,
2.3352350000003352,1180,,,,0,0.052734375,-0.958984375,0.003066505166289081,0.03385659966639681,15.307939362587309,0.4216521431166587,4712,0,6.454625438934797,1.5130417997608867,23.441202190201498,0.022376513108723982,0.005245323680932931,0.12109375,,
2.344295000000857,1180,,,,-0.0625,0.080078125,-0.9921875,0.0031226123675659155,0.03385659966639681,15.308105720683871,0.4207421188787912,4710,0,6.440764836941077,1.5402557617175445,23.9141748023991,0.0219811543692219,0.005256611679440912,0.12109375,,
2.355180000000633,1180,,,,0,-0.0859375,-0.955078125,0.0031226123675659155,0.03385659966639681,15.30809890444168,0.421099761494922,4713,0,6.446236797601069,1.5410345142621045,23.905955717227016,0.02197004632476282,0.005252149545452062,0.123046875,,
2.3628100000005214,1180,,,,-0.09375,0.080078125,-1.0078125,0.0031226123675659155,0.03385659966639681,15.308093885067795,0.4197015037004674,4723,0,6.424830022350883,1.5444048570207363,24.03806562427358,0.021922101262818176,0.0052696490877759405,0.123046875,,
2.3804400000013413,1180,,,,-0.125,0.03125,-0.94140625,0.0031226123675659155,0.03385659966639681,15.308083848357505,0.41601173032654815,4716,0,6.36834244973909,1.5421092041542726,24.215236795525225,0.021954735485133513,0.005316391185556284,0.123046875,,
2.3955950000006707,1180,,,,-0.09375,0.1015625,-1,0.0031226123675659155,0.03385659966639681,15.30779516162024,0.41419342635705103,4711,0,6.340388127963375,1.5403831755066508,24.294777297828364,0.02197933618384332,0.0053398307774057425,0.125,,
2.403570000000298,1180,,,,-0.0625,0.0703125,-0.86328125,0.0031226123675659155,0.03385659966639681,15.30780534970153,0.4138249660943315,4711,0,6.334752029818862,1.5405787029861822,24.319479211410176,0.021976546606006453,0.005344581683233608,0.125,,
2.411719999999739,1180,,,,-0.03125,-0.03125,-0.984375,0.0031226123675659155,0.03385659966639681,15.307815069250893,0.41379563612491566,4720,0,6.334307074263243,1.5434247299261576,24.366117900996723,0.02193602254125902,0.0053449571151923895,0.123046875,,
2.4193450000006704,1180,,,,0,-0.0546875,-0.9765625,0.0031226123675659155,0.03385659966639681,15.30769891250131,0.4152929242537881,4726,0,6.357179044969201,1.5454334072843736,24.310050045033154,0.02190751119188592,0.005325726934368707,0.123046875,,
2.4268500000005586,1180,,,,-0.0625,0.04296875,-0.958984375,0.0031226123675659155,0.03385659966639681,15.307712822383099,0.41834831143535794,4735,0,6.403955811181347,1.5484596867619935,24.1797372189604,0.021864695578349108,0.005286825934570469,0.123046875,,
2.4353150000004096,1180,,,,-0.0625,0.0859375,-0.978515625,0.0031226123675659155,0.03385659966639681,15.30772609084774,0.4139096351944813,4746,0,6.336015321919832,1.5519227919768743,24.49367170259047,0.021815904658033604,0.005343516065888893,0.123046875,,
2.443070000000298,1180,,,,-0.0625,-0.07421875,-0.953125,0.0031226123675659155,0.03385659966639681,15.308026364491017,0.41166597577799513,4751,0,6.30179361057347,1.5534768416215836,24.65134432544857,0.02179408070934349,0.005372533878226428,0.123046875,,
2.458260000000708,1180,,,,-0.0625,0.19140625,-0.9765625,0.0031226123675659155,0.03413605619971557,15.307928873620792,0.41442787132879966,4724,0,6.344032377547335,1.5446624648797485,24.348275244410562,0.02209936279015691,0.0053808136794082535,0.123046875,,
2.472640000000596,1180,,,,-0.0625,0.05859375,-0.94140625,0.0031226123675659155,0.03413605619971557,15.308090069689047,0.41484159417661304,4729,0,6.350432488308984,1.5462630939774842,24.348941537826327,0.02207648642244102,0.00537539077260633,0.123046875,,
2.49744000000041,1180,,,,0.03125,0.00390625,-0.974609375,0.0031226123675659155,0.03413605619971557,15.30798898363266,0.41114547163136766,4715,0,6.29381035040343,1.5419238715682997,24.499052016549292,0.02213861321505814,0.005423750367299749,0.125,,
2.5055200000004842,1180,,,,-0.078125,0.083984375,-0.974609375,0.0029795170477019,0.03413605619971557,15.307989703679773,0.41607507508539304,4711,0,6.369272965364985,1.4698487899418085,23.0771831876981,0.023224195871921642,0.005359490225233177,0.125,,
2.52675,1180,,,,-0.03125,0.10546875,-0.953125,0.0029795170477019,0.03413605619971557,15.307991192467659,0.4112124354151222,4715,0,6.294836339567866,1.4712545824421235,23.37240403208201,0.023202005014695288,0.00542286635557851,0.125,,
2.533990000001155,1180,,,,-0.03125,0.076171875,-0.990234375,0.0029795170477019,0.03413605619971557,15.308082836018489,0.409374912981522,4720,0,6.266745078909,1.4726608446240668,23.499613053997845,0.023179849131134904,0.005447174852317184,0.125,,
2.542075000000186,1180,,,,-0.0625,0.00390625,-0.94140625,0.0029795170477019,0.03413605619971557,15.307979790311556,0.4079541344678344,4713,0,6.244953645807652,1.4705139448386324,23.547235547950212,0.023213690913663185,0.0054661824788133865,0.125,,
2.55066000000108,1180,,,,0,-0.01171875,-0.966796875,0.0029795170477019,0.03413605619971557,15.307981013578132,0.40690756451994436,4711,0,6.228933271952627,1.469826601204279,23.596762672391293,0.023224546468098163,0.005480241111816358,0.125,,
2.558120000001043,1180,,,,0,0.029296875,-0.998046875,0.0029795170477019,0.03413605619971557,15.307813248009223,0.4041557334921764,4711,0,6.186740491410423,1.4699794327732498,23.760159890561873,0.023222131846644137,0.005517615656759735,0.125,,
2.566379999999888,1180,,,,-0.125,0.07421875,-0.97265625,0.0029795170477019,0.03413605619971557,15.307757048795064,0.404494640035126,4706,0,6.191905677197522,1.468490115516748,23.716286908643475,0.02324568333080227,0.005513012952607777,0.125,,
2.574385000000708,1180,,,,0,0.07421875,-0.982421875,0.0029795170477019,0.03413605619971557,15.308060290633717,0.40270592552962314,4702,0,6.164646587402923,1.4671305542884348,23.799102405747412,0.023267224651504662,0.005537390621786901,0.126953125,,
2.5827250000005586,1180,,,,-0.125,0.0859375,-0.88671875,0.0029795170477019,0.03413605619971557,15.307860355923646,0.4031174323067814,4702,0,6.170865360790713,1.4672370861817132,23.776844905812474,0.023265535284791673,0.005531810241171993,0.126953125,,
2.5904000000003724,1180,,,,0,-0.005859375,-1.001953125,0.0029795170477019,0.03413605619971557,15.307940469760533,0.40378596890979646,4711,0,6.181131574595741,1.4698916767045094,23.780300725933717,0.023223518263773325,0.005522622482267437,0.126953125,,
2.598885000000708,1180,,,,0,0.056640625,-1.005859375,0.0029795170477019,0.03413605619971557,15.308048800410397,0.40428266910999866,4712,0,6.188778827896028,1.4702267006678147,23.75632966621367,0.02321822626688122,0.005515798374607718,0.126953125,,
2.607070000000298,1180,,,,-0.1875,0.1796875,-0.93359375,0.0029795170477019,0.03378472006997371,15.30792040474764,0.404192974656868,4710,0,6.187353884205515,1.4696410829480355,23.752335981615577,0.022988415649216234,0.005460285721852133,0.126953125,,
2.615375,1180,,,,0,0.09375,-1.01953125,0.0029795170477019,0.03378472006997371,15.308121224074092,0.40303582297215157,4709,0,6.169721235702162,1.4691365941246217,23.812041711434354,0.022996309672691926,0.005475890851352014,0.126953125,,
2.6240700000012294,1180,,,,-0.09375,0.076171875,-0.970703125,0.0029795170477019,0.03378472006997371,15.308114731676786,0.40183247040229053,4709,0,6.15129755983138,1.4693388359583812,23.886648656916197,0.022993144428757654,0.005492291624874642,0.12890625,,
2.632360000000335,1180,,,,-0.03125,-0.03515625,-0.986328125,0.0029795170477019,0.03378472006997371,15.30837087823075,0.39823879241299087,4709,0,6.096387132356811,1.4694092887093932,24.102952401274628,0.022992041992362384,0.00554176093750018,0.12890625,,
2.6400849999999627,1180,,,,0.125,-0.078125,-1.04296875,0.0029416759557992006,0.03378472006997371,15.30835267554601,0.4011151099763239,4696,0,6.140411567007989,1.4465379723091036,23.557671281860863,0.023355570829601713,0.005502028602039756,0.12890625,,
2.6512099999999625,1180,,,,-0.0625,0.123046875,-0.9921875,0.0029416759557992006,0.03378472006997371,15.30814067921892,0.4010712552441121,4692,0,6.1396551976677864,1.445274104202292,23.539988121015245,0.023375994886880594,0.0055027064195408235,0.12890625,,
2.659379999999888,1180,,,,-0.0625,0.076171875,-0.9921875,0.0029416759557992006,0.03378472006997371,15.308131362796031,0.4031778562496995,4690,0,6.171899586040895,1.4446940717439254,23.40760816996145,0.023385380151239463,0.005473958154858072,0.12890625,,
2.668725000000559,1180,,,,-0.0625,0.080078125,-0.96484375,0.0029416759557992006,0.03378472006997371,15.308012797641144,0.40700020019399596,4701,0,6.2303642732121975,1.4482194827283452,23.244539471874003,0.023328452954054755,0.005422591455082814,0.126953125,,
2.676125000000931,1180,,,,0,0.0234375,-0.9921875,0.0029416759557992006,0.03378472006997371,15.307947575417936,0.41056144907495107,4695,0,6.284853138926971,1.4463282320658895,23.01292011276535,0.023358957753121287,0.0053755782869004095,0.126953125,,
2.684170000000857,1180,,,,-0.0625,-0.0390625,-0.95703125,0.0029416759557992006,0.03378472006997371,15.308148871541306,0.4103708191545044,4708,0,6.282017592153508,1.450218551284463,23.0852354360778,0.023296295610099927,0.005378004689476225,0.126953125,,
2.692135000000708,1180,,,,-0.0625,0.115234375,-0.97265625,0.0029416759557992006,0.03378472006997371,15.308141686728248,0.41665995157737673,4708,0,6.378289573931814,1.4503741462345379,22.73923329166872,0.0232937964025942,0.00529683070647223,0.126953125,,
2.7037050000010057,1180,,,,-0.0625,0.06640625,-0.9921875,0.0029416759557992006,0.03378472006997371,15.307722063109265,0.4351113345634555,4725,0,6.660563376005925,1.4555137250693468,21.852711893902292,0.023211543448938665,0.0050723517160245184,0.126953125,,
2.712670000000857,1180,,,,-0.03125,0.083984375,-1.005859375,0.0029416759557992006,0.03378472006997371,15.307683819913548,0.4390396591740091,4757,0,6.720680287038338,1.465381509480406,21.804065167429183,0.023055238414979782,0.005026979208508359,0.126953125,,
2.721480000000447,1180,,,,-0.09375,0.08203125,-0.94140625,0.0029416759557992006,0.03378472006997371,15.30777534346777,0.43099195871382945,4782,0,6.597528078832437,1.4731382345777455,22.32863910506382,0.022933842376073845,0.0051208148970777224,0.125,,
2.729180000000633,1180,,,,0.125,-0.1796875,-1.0078125,0.0029416759557992006,0.03378472006997371,15.307786415469423,0.43022852779846055,4767,0,6.5858464133806836,1.4685840094651006,22.299092892317223,0.02300496250281184,0.005129897958344757,0.126953125,,
2.7373100000005217,1180,,,,-0.03125,0,-0.943359375,0.0029416759557992006,0.03378472006997371,15.307697933221576,0.42648321733510935,4750,0,6.5284762645543415,1.4633572552502758,22.414989286174116,0.023087130602428018,0.005174977851019266,0.126953125,,
2.7451850000005216,1180,,,,-0.0625,-0.0390625,-1.01953125,0.0029416759557992006,0.03378472006997371,15.307712840030511,0.4255130769565,4739,0,6.513631991727906,1.459820192132177,22.411769562451482,0.023143069435577947,0.00518677139157987,0.126953125,,
2.753260000000708,1180,,,,-0.09375,0.138671875,-0.9765625,0.0029416759557992006,0.03378472006997371,15.30772693368718,0.4255495204052351,4735,0,6.514195855124879,1.4584928899159328,22.389454083860564,0.023164130798005503,0.005186322428944846,0.12890625,,
2.761530000001192,1180,,,,0.03125,-0.111328125,-0.94921875,0.0029416759557992006,0.03363451982355107,15.307740336992046,0.4214409752643161,4732,0,6.451309016714839,1.4577094161844968,22.595560256184992,0.023073542264402905,0.005213596145589469,0.12890625,,
2.7693250000001863,1180,,,,-0.09375,0.05859375,-0.98046875,0.0029416759557992006,0.03363451982355107,15.307818960729778,0.42125018402529535,4723,0,6.448421554233324,1.4548004252646876,22.560566380925046,0.023119679675259634,0.005215930680194185,0.12890625,,
2.7783500000005588,1180,,,,0.0625,0.00390625,-1.0390625,0.0029416759557992006,0.03363451982355107,15.307901640033037,0.42306324680635965,4722,0,6.476210569624775,1.4546907434172782,22.462066787021744,0.023121422869948793,0.005193549447157618,0.12890625,,
2.7859199999999253,1180,,,,-0.125,0.07421875,-0.966796875,0.0029416759557992006,0.03363451982355107,15.308003128456003,0.42368991319556726,4721,0,6.4858465166929955,1.4542682192275984,22.422180597161294,0.023128140585658458,0.0051858334508816965,0.12890625,,
2.7947050000000746,1180,,,,0.0625,-0.08984375,-0.953125,0.0030563516989931838,0.03363451982355107,15.308003049871502,0.4213792377718898,4738,0,6.450474656964618,1.516444261252,23.509033705212463,0.022179858952271602,0.005214270516858115,0.12890625,,
2.8051300000008195,1180,,,,0,0.099609375,-1.013671875,0.0030563516989931838,0.03363451982355107,15.308002966049017,0.4217647501504816,4722,0,6.4563760462784945,1.5114689110251553,23.410484460495105,0.022252869098537013,0.005209504462327325,0.12890625,,
2.8134000000003727,1180,,,,-0.041015625,0.07421875,-0.9765625,0.0030563516989931838,0.03363451982355107,15.308002876202291,0.4192153946243426,4728,0,6.417350466657715,1.5131875938070896,23.579631526579035,0.022227594226389754,0.005241184815805861,0.12890625,,
2.821055000000633,1180,,,,-0.1875,0.05859375,-0.9140625,0.0030563516989931838,0.03363451982355107,15.308134282583401,0.4183849875020152,4729,0,6.404693570497827,1.5136835985180965,23.633973770277354,0.022220310675546345,0.005251542396732763,0.12890625,,
2.829665000000037,1180,,,,0.09375,-0.1171875,-1.013671875,0.0030563516989931838,0.03363451982355107,15.308127071652969,0.4121354785949276,4717,0,6.309022277067664,1.5096559393487448,23.928524469411283,0.022279592950206106,0.005331177850775299,0.130859375,,
2.8385050000008194,1180,,,,-0.1875,0.17578125,-0.95703125,0.0030563516989931838,0.03363451982355107,15.30825333500731,0.4130535741695963,4701,0,6.323128754318412,1.504627255319214,23.79561311781958,0.022354054603653542,0.005319284349631534,0.130859375,,
2.84769000000041,1180,,,,-0.09375,0.080078125,-1.015625,0.0030563516989931838,0.03363451982355107,15.30823885972964,0.4119419242407832,4700,0,6.30610537261456,1.5042460328516558,23.85380427330195,0.02235971981244906,0.005333643800120317,0.130859375,,
2.855054999999702,1180,,,,0,0.123046875,-0.970703125,0.0030563516989931838,0.03363451982355107,15.307946175267343,0.41078076258740354,4705,0,6.288209803523246,1.5059493444974377,23.9487770216201,0.022334429737924228,0.005348822776985884,0.1328125,,
2.863820000000298,1180,,,,-0.1875,0.13671875,-0.984375,0.0030563516989931838,0.03363451982355107,15.307741981955646,0.4112450673684436,4709,0,6.295233382628101,1.5070282128325785,23.93919528053195,0.022318440714744373,0.005342855106272407,0.1328125,,
2.871555000000633,1180,,,,0.0625,-0.146484375,-0.994140625,0.0030563516989931838,0.03363451982355107,15.307754068388032,0.40981753115705055,4709,0,6.27338597986608,1.5072173255657937,24.025579334717882,0.022315640387775545,0.005361461885415359,0.1328125,,
2.880135000000708,1180,,,,-0.03125,0.138671875,-1.029296875,0.0030563516989931838,0.03363451982355107,15.307839961266751,0.4098854576990152,4709,0,6.274460988907097,1.5073012727677506,24.022800929555167,0.02231439754694188,0.00536054330133139,0.134765625,,
2.8883400000007824,1180,,,,-0.09375,0.119140625,-0.92578125,0.0030563516989931838,0.03363451982355107,15.308041882808446,0.4103637773310934,4706,0,6.281865890571857,1.5061376453707087,23.9759598757305,0.022331637434952062,0.005354224430997717,0.134765625,,
2.8962600000007077,1180,,,,0,0.1171875,-0.98828125,0.0030563516989931838,0.03363451982355107,15.308039902009432,0.4146606393940298,4703,0,6.3476416136365525,1.5051428579029562,23.711843697499845,0.022346396986138873,0.005298742725376065,0.1328125,,
2.904339999999851,1180,,,,-0.03125,0.0390625,-1.01171875,0.0030563516989931838,0.03363451982355107,15.30823519408332,0.41715870959437984,4713,0,6.385963639731068,1.5084975577276063,23.62208184748032,0.0222967015433674,0.005266945087862655,0.1328125,,
2.912395000000484,1180,,,,0,-0.10546875,-0.9765625,0.0030563516989931838,0.03371695013693074,15.308223671168117,0.4189985329608552,4715,0,6.414123260456078,1.5090086871206798,23.526343754943387,0.022343774707662963,0.005256673245554886,0.134765625,,
2.919980000000447,1180,,,,0,0.078125,-1,0.0030563516989931838,0.03371695013693074,15.308212829321272,0.4201414921862948,4714,0,6.431615380816422,1.5088077255840586,23.45923436411293,0.022346750725894465,0.005242376625551689,0.1328125,,
2.927780000000261,1180,,,,-0.0625,0.08984375,-0.9375,0.0030563516989931838,0.03371695013693074,15.308203117602094,0.4171447252111971,4722,0,6.385736182969317,1.5114476803860557,23.669121884757296,0.022307718999786164,0.005280041199768548,0.1328125,,
2.9391250000009315,1180,,,,-0.125,0.02734375,-0.9453125,0.0030563516989931838,0.03371695013693074,15.30818928828695,0.42208907006276847,4719,0,6.461419381037873,1.510273519443424,23.373711415104502,0.022325062118123035,0.005218195592732895,0.1328125,,
2.946464999999851,1180,,,,0,-0.05859375,-0.9921875,0.003102880924603316,0.03371695013693074,15.308080534993518,0.42100261514958065,4717,0,6.444741938152663,1.5326876363863995,23.781986169421906,0.02199857905582433,0.005231699028525485,0.1328125,,
2.956790000000037,1180,,,,-0.09375,0.109375,-0.953125,0.003102880924603316,0.03371695013693074,15.307902321573515,0.42037895961480914,4720,0,6.4351200518281955,1.533628126748853,23.832160307765424,0.02198508852886488,0.005239521542003225,0.134765625,,
2.964800000000745,1180,,,,-0.0625,0.068359375,-0.9375,0.003102880924603316,0.03371695013693074,15.307841607418124,0.41726612408494945,4725,0,6.387443735633683,1.5354367513405835,24.038360491143436,0.02195919181138045,0.005278629688561282,0.134765625,,0.08815499999932945,29404,
2.9746250000009313,1180,,,,-0.09375,0.05859375,-1.00390625,0.003102880924603316,0.03371695013693074,15.307748578588116,0.4200218557355226,4721,0,6.429588965111389,1.5341445650014707,23.860694257846582,0.02197768770044068,0.005244028867146504,0.134765625,,
2.9842750000003724,1450,,,,0.0625,-0.146484375,-0.990234375,0.003102880924603316,0.03371695013693074,15.30767804754548,0.41802206087905297,4713,0,6.398947124707999,1.5314790234728508,23.933297050688417,0.022015939898721346,0.00526914029446201,0.134765625,,
2.9965400000000373,1450,,,,-0.09375,0.099609375,-0.994140625,0.003102880924603316,0.03371695013693074,15.307702468760208,0.4161854805036942,4709,0,6.370843507368553,1.53012094060365,24.017556526602853,0.022035480491907407,0.0052923839830524054,0.134765625,,
3.0044900000002235,1450,,,,-0.09375,0.12109375,-0.95703125,0.003102880924603316,0.03371695013693074,15.307572933711153,0.4183054549794132,4699,0,6.4032412606665945,1.5270214404308977,23.847632445320833,0.022080207418316556,0.005265606708284597,0.134765625,,
3.0123700000001117,1450,,,,-0.21875,-0.234375,-0.880859375,0.003102880924603316,0.03371695013693074,15.306939361769052,1.2646218862856629,4707,0,19.357490528940637,1.5293506900642229,7.900562770663634,0.022046578561725986,0.0017418037780528332,0.13671875,,
3.020589999999851,1450,,,,0.3125,-0.0625,-1.1796875,0.003102880924603316,0.03371695013693074,15.266371020825085,2.5662868040344544,5069,0,39.17788649623742,1.6471674673598868,4.204329571269951,0.020469655214216283,0.0008606117673082967,0.140625,,
3.028140000000596,1450,,,,-0.40625,0.09375,-1.080078125,0.003102880924603316,0.03371695013693074,15.245107162343425,3.163043103131584,6784,0,48.220931066352286,2.20424501519291,4.571137401224908,0.015296371276575132,0.0006992181484537497,0.1484375,,
3.0374300000006333,1450,,,,0.09375,-0.193359375,-0.984375,0.003102880924603316,0.03371695013693074,15.22976450040284,3.5279596341755926,8687,0,53.72999439542163,2.822796139103283,5.253669148612112,0.011944521841255457,0.0006275256589232733,0.15234375,,
3.045305000000633,1450,,,,0.125,0.3125,-1.1640625,0.003102880924603316,0.03371695013693074,15.221966127581902,3.6993556171743887,9895,0,56.31146589850839,3.2151885301323846,5.709651629256468,0.010486772337279536,0.0005987581676118976,0.154296875,,
3.0548300000000745,1450,,,,-0.0625,0.4375,-0.978515625,0.003102880924603316,0.03371695013693074,15.217505593767989,3.82177338351655,10787,0,58.15785784177671,3.5051541866008997,6.026965773287185,0.009619248781072176,0.0005797488316825649,0.158203125,,
3.0639350000005217,1450,,,,-0.03125,-0.0703125,-0.912109375,0.003102880924603316,0.03415627405240117,15.213483879294737,3.9030397993335324,11498,0,59.37883306740646,3.7360122851622197,6.291825036239973,0.009142441578164694,0.0005752264281385791,0.169921875,,
3.0724100000010806,1450,,,,-0.09375,-0.0859375,-1.205078125,0.003102880924603316,0.03415627405240117,15.210800777569856,3.945884006446032,11860,0,60.02005551344976,3.853609946816847,6.42053712521692,0.008863448694545455,0.0005690810140078455,0.173828125,,
3.0803650000011547,1450,,,,0.0625,-0.224609375,-0.90234375,0.003102880924603316,0.03415627405240117,15.209159855671665,3.967167355742244,12118,0,60.337282487686046,3.937681683303282,6.526117055581522,0.00867420903960622,0.0005660890355705358,0.17578125,,
3.088515000000596,1450,,,,0.125,-0.0390625,-0.8359375,0.003102880924603316,0.03415627405240117,15.208322917683024,3.9649814832255896,12280,0,60.300718759528564,3.9902593360615324,6.6172666232622674,0.008559913322855378,0.000566432287293489,0.177734375,,
3.0966400000005962,1450,,,,-0.03125,0.056640625,-1.0078125,0.00306085193907734,0.03415627405240117,15.207709424606527,3.9459919420192517,12374,0,60.009498846067586,3.966415576712797,6.609646227653367,0.008611370491013574,0.0005691811248085339,0.17578125,,
3.1066500000003727,1450,,,,0.0625,-0.10546875,-0.83203125,0.00306085193907734,0.03415627405240117,15.207659309712374,3.9144681036283533,12434,0,59.52989729871587,3.985424037546716,6.694827672132883,0.0085702986007548,0.0005737667223077497,0.17578125,,
3.1150500000007453,1450,,,,-0.041015625,0.08984375,-0.974609375,0.00306085193907734,0.03415627405240117,15.20759304104897,3.8727830383209203,12505,0,58.89570838306171,4.008117414062376,6.805449028634322,0.008521774819411418,0.0005799450416700386,0.17578125,,
3.1240750000011177,1450,,,,-0.25,-0.00390625,-0.82421875,0.00306085193907734,0.03415627405240117,15.207811843674937,3.840037103059599,12525,0,58.39856173606097,4.014770926021765,6.874777060721094,0.00850765203838083,0.0005848821107405759,0.177734375,,
3.132635000000708,1450,,,,0,0.23046875,-1.037109375,0.00306085193907734,0.03415627405240117,15.207749000438586,3.811997436426055,12532,0,57.97190020348279,4.017006472211921,6.929230296250649,0.008502917356165818,0.0005891867255085966,0.177734375,,
3.1400250000003727,1450,,,,-0.03125,-0.048828125,-0.943359375,0.00306085193907734,0.03415627405240117,15.20805093363646,3.7973699566668047,12536,0,57.750595714849645,4.018226830910743,6.957896764825095,0.008500334971049791,0.0005914445319499695,0.17578125,,
3.1484050000011923,1450,,,,-0.125,0,-1.04296875,0.00306085193907734,0.03415627405240117,15.208245120414201,3.771027501992098,12539,0,57.35071060611907,4.019194526405688,7.008098912686981,0.008498288358027465,0.0005955684540159271,0.17578125,,
3.1560600000005214,1450,,,,-0.09375,0.19921875,-0.974609375,0.00306085193907734,0.03415627405240117,15.208629635965623,3.746774802900466,12543,0,56.98331030668128,4.020532502567749,7.055631694489926,0.00849546024825989,0.0005994083858690174,0.177734375,,
3.1646349999997763,1450,,,,-0.03125,0.0546875,-1.01953125,0.00306085193907734,0.03415627405240117,15.208892888102023,3.7185420472051867,12545,0,56.5549076958473,4.021054113793987,7.110000312296936,0.00849435821697353,0.0006039488957544384,0.17578125,,
3.173340000000782,1450,,,,0,-0.12109375,-1.00390625,0.00306085193907734,0.03415627405240117,15.208978918514727,3.696848879694243,12541,0,56.22529667620453,4.01984117464461,7.149524168444048,0.008496921288294651,0.0006074894410802934,0.17578125,,
3.182230000000447,1450,,,,-0.125,0.029296875,-0.96875,0.00306085193907734,0.03415627405240117,15.208514911731735,3.683532216949791,12568,0,56.02105464932515,4.02836912008686,7.190812713725638,0.008478933542133965,0.0006097042311361167,0.177734375,,
3.189785000000149,1450,,,,0,-0.0859375,-0.9609375,0.00306085193907734,0.03415627405240117,15.208684622834774,3.6718698549782722,12558,0,55.8443106004586,4.025108910706033,7.207733191486436,0.00848580120690695,0.0006116339101537887,0.177734375,,
3.1970200000004843,1450,,,,-0.0625,-0.01171875,-1.07421875,0.00306085193907734,0.03415627405240117,15.208832671020977,3.644686634868722,12542,0,55.43142916802492,4.020264330541334,7.25268027702303,0.00849602693855754,0.0006161896701033262,0.177734375,,
3.2055100000007077,1450,,,,0,-0.064453125,-0.9453125,0.00306085193907734,0.03415627405240117,15.20908303913753,3.624705751041745,12585,0,55.12845076003327,4.03382058512367,7.31713031930164,0.008467474775245612,0.0006195761640587151,0.177734375,,
3.2135750000011174,1450,,,,-0.125,-0.1015625,-0.9375,0.00306085193907734,0.08429611083852158,15.209225701198301,3.607586092690943,10057,0,54.868591120240644,3.223619167250377,5.875163005709483,0.026149525258724316,0.0015363272341692282,0.177734375,,
3.221705000001006,1450,,,,-0.125,0.1640625,-1.02734375,0.00306085193907734,0.08429611083852158,15.209494360642132,3.587340848606787,11561,0,54.561640406586086,3.7055291694935537,6.791454842413907,0.022748737624980725,0.0015449702430197878,0.177734375,,
3.2295550000006332,1450,,,,0.09375,0.083984375,-0.990234375,0.00306085193907734,0.08429611083852158,15.209129083695595,3.5698626844157766,12182,0,54.294502378347616,3.904785255343622,7.191861209323528,0.02158789928925387,0.0015525717548916787,0.177734375,,
3.2379450000012295,1450,,,,-0.125,0.00390625,-0.9375,0.00306085193907734,0.08429611083852158,15.208876537139922,3.568198150029937,12403,0,54.26828512385639,3.9755503130252237,7.325734181487095,0.021203633258605612,0.0015533218093428372,0.17578125,,
3.245160000000149,1450,,,,0,0.0390625,-1.08203125,0.008065163619798754,0.08429611083852158,15.208641770499714,3.5656600746122438,12545,0,54.2288467501509,10.59540731108552,19.538323136211698,0.007955910364137316,0.0015544514753725058,0.177734375,,
3.253545000000857,1450,,,,-0.09375,0.216796875,-0.978515625,0.008065163619798754,0.08429611083852158,15.209413358743697,3.551036494062403,12591,0,54.00918189017909,10.634260337564806,19.68972675643975,0.007926842879777098,0.0015607737034404106,0.177734375,,
3.264290000000037,1450,,,,-0.0625,0.046875,-0.98828125,0.008065163619798754,0.08429611083852158,15.209666162897138,3.5340160428694682,12609,0,53.75120422636739,10.648953787513017,19.811563184084395,0.007915905404469625,0.0015682646007988512,0.17578125,,
3.2730300000002606,1450,,,,-0.041015625,0.05078125,-0.97265625,0.008065163619798754,0.08429611083852158,15.209551587902306,3.5161057010716132,12590,0,53.4783910489661,10.633699352200951,19.8841048573516,0.007927261063768374,0.0015762649022357093,0.17578125,,
3.2800700000012295,1450,,,,-0.0625,-0.09375,-0.9453125,0.008065163619798754,0.08429611083852158,15.209163845467605,3.5028044016582034,12593,0,53.27472606344474,10.636137072720405,19.9646959424134,0.007925444196721053,0.0015822908359610062,0.173828125,,
3.2901650000000373,1450,,,,0,-0.2109375,-1.0078125,0.008065163619798754,0.08429611083852158,15.209567553223307,3.4860674819417024,12562,0,53.021578861687395,10.609595754164761,20.009958175408276,0.007945270752227429,0.0015898453544436547,0.173828125,,
3.2989650000007824,1450,,,,0.041015625,0.12890625,-0.95703125,0.008065163619798754,0.08429611083852158,15.209704834127304,3.4737064411103655,12569,0,52.83404964969548,10.615149637747741,20.091493474623185,0.007941113758657012,0.0015954883526329774,0.173828125,,
3.3088650000002233,1450,,,,-0.0625,0.06640625,-0.96875,0.008065163619798754,0.08429611083852158,15.209819424222236,3.4607814182495766,12606,0,52.63786043827979,10.646877659528217,20.22665353583691,0.007917448996239983,0.0016014349773460586,0.173828125,,
3.3164750000005587,1450,,,,0.03125,-0.0078125,-0.974609375,0.008065163619798754,0.08429611083852158,15.210156053798158,3.454126417516386,12568,0,52.537801839971,10.614478639509567,20.20350731810409,0.00794161575913411,0.0016044849210723679,0.17578125,,
3.3250000000009314,1450,,,,-0.25,-0.0546875,-1.10546875,0.008065163619798754,0.08429611083852158,15.210148314918328,3.446144332684311,12591,0,52.41636641474362,10.63387472551035,20.287317593459253,0.007927130327790839,0.0016082021056463551,0.177734375,,
3.331800000000745,1450,,,,-0.125,0.296875,-1.017578125,0.008065163619798754,0.08429611083852158,15.210236733051461,3.438524796291628,12568,0,52.300776164063215,10.615054667825532,20.296170432589726,0.007941184805578531,0.0016117564025071376,0.177734375,,
3.3390650000004096,1450,,,,0.3125,-0.11328125,-0.984375,0.008065163619798754,0.08429611083852158,15.2102265342527,3.4453735102974155,12578,0,52.404911586737114,10.623200430381262,20.271383175217174,0.00793509558545496,0.0016085536314473174,0.1796875,,
3.346745000001043,1450,,,,-0.1875,0.01953125,-0.96484375,0.008065163619798754,0.08429611083852158,15.210701826322735,3.4391256442904243,12559,0,52.31151471856171,10.606911373269735,20.276437091021723,0.007947281529188084,0.001611425539712211,0.1796875,,
3.3541950000012295,1450,,,,-0.0625,0.27734375,-1.0390625,0.008065163619798754,0.15109824943917335,15.210848209253275,3.430951281547547,12551,0,52.18767915696273,10.600733385248983,20.31271280212633,0.01425356566833649,0.0028952858582716695,0.181640625,,
3.3623750000009314,1450,,,,-0.03125,0.03125,-1.033203125,0.008065163619798754,0.15109824943917335,15.211002345899846,3.41646113706386,12584,0,51.96779837055403,10.628244675300838,20.451596966869023,0.014216670208046038,0.002907536093058516,0.1796875,,
3.3706100000012666,1450,,,,-0.03125,-0.076171875,-0.93359375,0.008065163619798754,0.15109824943917335,15.211051196000831,3.4104215178336696,12561,0,51.87609630771081,10.608827960087083,20.450320504378812,0.014242690145192348,0.0029126757831374112,0.1796875,,
3.3794550000000747,1450,,,,-0.0625,0.14453125,-1.046875,0.008065163619798754,0.15109824943917335,15.210956117518162,3.4007996334629933,12551,0,51.72941398907744,10.600651537978505,20.492502660511118,0.014253675719632897,0.0029209348760663987,0.1796875,,
3.3874700000006706,1450,,,,-0.09375,0.146484375,-0.884765625,0.008065163619798754,0.15109824943917335,15.210812608736964,3.3930833741318094,12590,0,51.61155536973989,10.63310286963838,20.60217482977198,0.014210174705505509,0.0029276050364442805,0.1796875,,
3.395860000000335,1450,,,,0.0625,0.15234375,-1.1171875,0.016305342016437383,0.15109824943917335,15.210871557193,3.3942547095578757,12545,0,51.62957241948228,21.42093750599073,41.489666681623724,0.007053764542140892,0.0029265833970408177,0.1796875,,
3.4170800000000745,1450,,,,0.03125,0.03125,-1.0078125,0.016305342016437383,0.15109824943917335,15.211176471282352,3.3996486098679983,12568,0,51.71265494505185,21.45928918617131,41.497171647777975,0.00704115817296238,0.0029218814930257464,0.181640625,,
3.434265000000596,1450,,,,-0.125,0.0859375,-0.99609375,0.016305342016437383,0.15109824943917335,15.211193833680422,3.383174263597164,12548,0,51.462119496695486,21.424774658760203,41.632126442316356,0.007052501220935457,0.002936106225645754,0.181640625,,
3.4417550000008195,1450,,,,0,-0.05859375,-0.98046875,0.016305342016437383,0.15109824943917335,15.211229353104127,3.3898512434493093,12569,0,51.56380473701266,21.46180299920944,41.62183746655159,0.007040333444712877,0.0029303161434616667,0.181640625,,
3.450660000000149,1450,,,,-0.03125,-0.041015625,-1.037109375,0.016305342016437383,0.15109824943917335,15.211162236799634,3.3819470639541667,12564,0,51.443345466075016,21.452525237770317,41.70126387273445,0.007043378239366558,0.0029371777451530066,0.181640625,,
3.4597400000002234,1450,,,,-0.125,0.07421875,-0.828125,0.016305342016437383,0.15109824943917335,15.211263484404938,3.3837423351227978,12584,0,51.47099622288851,21.48701437800408,41.745868459505495,0.007032072803648806,0.002935599862587891,0.181640625,,
3.468820000000298,1450,,,,-0.0625,0.10546875,-1.005859375,0.016305342016437383,0.15109824943917335,15.211304144966538,3.3718047481620057,12560,0,51.28954754173457,21.44535949416468,41.81233900867322,0.007045731710876073,0.0029459852285930953,0.181640625,,
3.4765050000008197,1450,,,,-0.0625,-0.185546875,-0.970703125,0.016305342016437383,0.15109824943917335,15.211338125992775,3.372301640903427,12587,0,51.2972205226223,21.49253866035042,41.89805693443394,0.007030265331936819,0.0029455445714166592,0.185546875,,
3.4847550000008196,1450,,,,-0.0625,0.0390625,-0.923828125,0.016305342016437383,0.15109824943917335,15.211272748718338,3.375958342127801,12565,0,51.35262313041696,21.4550709350803,41.779892880237554,0.007042542525092231,0.0029423667230287116,0.18359375,,
3.492770000000484,1450,,,,0.125,-0.23046875,-1.03125,0.016305342016437383,0.15109824943917335,15.211438518729793,3.3743451304880168,12594,0,51.32864349339373,21.503984014503548,41.89470547233773,0.00702652351942151,0.0029437413334061813,0.185546875,,
3.5004400000004097,1450,,,,-0.03125,0.044921875,-0.87890625,0.016305342016437383,0.15109824943917335,15.21146628156324,3.361551611831111,12592,0,51.13412899710351,21.50025677732614,42.04678401492675,0.007027741622068411,0.002954939340958214,0.185546875,,
3.508820000000298,1450,,,,-0.125,0.09765625,-1.078125,0.016305342016437383,0.18208768579589182,15.21168879082496,3.3520056405432266,12568,0,50.98966662903344,21.460576738722406,42.08808991605132,0.008484752670572072,0.003571070333144939,0.185546875,,
3.517265000000596,1450,,,,-0.15625,0.09375,-0.94140625,0.016305342016437383,0.18208768579589182,15.211311733639207,3.349645945281947,12582,0,50.952508671004274,21.483144990973557,42.16307607087273,0.008475839355569146,0.003573674595133588,0.185546875,,
3.526765000000596,1450,,,,0,0.1171875,-1.0234375,0.016305342016437383,0.18208768579589182,15.211435627476144,3.344179486651538,12558,0,50.86977098792609,21.442032273026026,42.15083311091627,0.008492090837161795,0.0035794870363994803,0.18359375,,
3.5351100000012665,1450,,,,-0.09375,0.06640625,-0.908203125,0.016305342016437383,0.18208768579589182,15.211332011405597,3.3420855967555427,12581,0,50.837573622785165,21.4811555633344,42.25448626388937,0.008476624325866917,0.0035817540614149408,0.18359375,,
3.542235000001267,1450,,,,-0.09375,-0.00390625,-0.978515625,0.020058089262399607,0.18208768579589182,15.211364373544583,3.3336156146139375,12557,0,50.70884179523038,26.375339517612357,52.01329508593351,0.006903709644165954,0.0035908468690960876,0.181640625,,
3.550165000000969,1450,,,,-0.125,0.1796875,-0.9765625,0.020058089262399607,0.18208768579589182,15.211221195636583,3.3384464119154202,12617,0,50.781846821424736,26.501994392529525,52.18792944991595,0.006870716335492823,0.0035856845938708453,0.181640625,,
3.5586300000008197,1450,,,,-0.03125,0.01953125,-1,0.020058089262399607,0.18208768579589182,15.210967816918485,3.3493226571412893,12576,0,50.946439146252054,26.415523856906198,51.84959792984765,0.006893207448100105,0.0035741003463102164,0.181640625,,
3.569475000000559,1450,,,,0,0.046875,-0.91796875,0.020058089262399607,0.18208768579589182,15.210331061368134,3.34884890205189,12585,0,50.93710047470843,26.433962982320644,51.89530369017722,0.006888399061376998,0.00357475561229291,0.181640625,,
3.5859699999997394,1450,,,,0,-0.3203125,-1.00390625,0.020058089262399607,0.18208768579589182,15.210643738276918,3.3368762280930655,12565,0,50.756035504248885,26.3915211199222,51.996813497604464,0.006899476728472429,0.003587508046814431,0.18359375,,
3.593760000000708,1450,,,,-0.0625,0.115234375,-0.896484375,0.020058089262399607,0.18208768579589182,15.210776323043742,3.3290414662558865,12553,0,50.63730511335586,26.36789507227818,52.07207416202626,0.006905658767860058,0.003595919754976558,0.18359375,,
3.6019700000006707,1450,,,,0.03125,-0.04296875,-1.01171875,0.020058089262399607,0.18208768579589182,15.210841775178363,3.3290875230392145,12580,0,50.63822356866994,26.423836300669794,52.181602035933814,0.006891038974203615,0.0035958545336600267,0.181640625,,
3.6090449999999255,1450,,,,-0.1875,-0.046875,-0.98046875,0.020058089262399607,0.18208768579589182,15.211006818793694,3.3330549565842817,12561,0,50.699121672017625,26.38368970564937,52.03973724896171,0.006901524685415875,0.003591535312462652,0.181640625,,
3.616070000000298,1450,,,,-0.1875,0.203125,-0.94140625,0.020058089262399607,0.18208768579589182,15.210620474679452,3.324267264220541,12590,0,50.56416771245961,26.444929434492007,52.29974234891968,0.006885542510028242,0.0036011209920701072,0.18359375,,
3.624850000000559,1450,,,,-0.03125,-0.09375,-1.025390625,0.020058089262399607,0.18208768579589182,15.210390765387466,3.316448876589324,12604,0,50.44448336635389,26.47402773436674,52.48151228370935,0.006877974429237235,0.003609664994950528,0.18359375,,
3.6333200000012296,1450,,,,-0.125,0.0859375,-0.98046875,0.020058089262399607,0.18208768579589182,15.21007565023054,3.3323520352966547,12569,0,50.68532655006182,26.400290797774097,52.086654254261475,0.006897184852647315,0.003592512827475701,0.18359375,,
3.642195000000298,1450,,,,0.0625,-0.0859375,-0.94140625,0.020058089262399607,0.18208768579589182,15.208932498802783,3.3584103788168678,12589,0,51.07783675470443,26.443291981229738,51.770579298846734,0.006885968884855307,0.0035649059820279288,0.18359375,,
3.6511400000005962,1450,,,,-0.09375,0.126953125,-1.03515625,0.020058089262399607,0.18208768579589182,15.208367924819699,3.3629317499671503,12657,0,51.144703359558186,26.585505230928632,51.98095498575259,0.006849133925205885,0.0035602452225751806,0.18359375,,
3.6591200000001116,1450,,,,0.0625,-0.03515625,-0.99609375,0.020058089262399607,0.19472636846776847,15.20892637670767,3.3504326626615626,12638,0,50.956483696536345,26.546411488920885,52.0962389143922,0.007335317941147612,0.0038214247597505354,0.18359375,,
3.6664400000004096,1450,,,,0,0.03125,-0.919921875,0.020058089262399607,0.19472636846776847,15.209058555152122,3.339613684017362,12662,0,50.79238007180735,26.595295995064042,52.36079891799742,0.0073218349780317825,0.0038337712899548224,0.18359375,,
3.6755099999997767,1450,,,,0,0.1015625,-1.1171875,0.020058089262399607,0.19472636846776847,15.209302112504988,3.3397768161880124,12624,0,50.79567458574352,26.51739732017278,52.20404598704796,0.007343343923109408,0.003833522638607127,0.18359375,,
3.682770000000484,1450,,,,-0.03125,-0.064453125,-0.962890625,0.020058089262399607,0.19472636846776847,15.209698406792825,3.333400365890255,12607,0,50.700014234283636,26.48027798331443,52.229330471091494,0.007353637623837186,0.003840755696200444,0.18359375,,
3.6910400000009687,1450,,,,-0.125,0.185546875,-0.998046875,0.020058089262399607,0.19472636846776847,15.209513889562379,3.330628084008377,12570,0,50.657234104691945,26.402302148458446,52.119509908285785,0.00737535565545893,0.0038439992216182336,0.18359375,,
3.7003650000011548,1450,,,,0.0625,-0.03125,-0.95703125,0.021607815718970417,0.19472636846776847,15.209794396674459,3.326570219854754,12602,0,50.596449090090964,28.514885082618004,56.3574827787717,0.006828937514690145,0.003848617283814578,0.18359375,,
3.708735000000335,1450,,,,0,0.19921875,-0.93359375,0.021607815718970417,0.19472636846776847,15.209622362442076,3.3289030103639043,12591,0,50.63135766883158,28.491308628528863,56.272061308101115,0.006834588435604022,0.0038459637946394844,0.181640625,,
3.7208700000001116,1450,,,,-0.125,0.171875,-1.056640625,0.021607815718970417,0.19472636846776847,15.209738868118908,3.325286842275304,12567,0,50.57674453259908,28.435937127966902,56.223344129313446,0.00684789699708029,0.0038501166942893727,0.18359375,,
3.7287800000002607,1450,,,,-0.09375,-0.05078125,-0.9609375,0.021607815718970417,0.19472636846776847,15.209978634506125,3.331965942605671,12576,0,50.67913079793432,28.456351558753948,56.150038705702954,0.0068429843532722785,0.0038423383629875812,0.18359375,,
3.736875000000931,1450,,,,0,-0.150390625,-0.984375,0.021607815718970417,0.19472636846776847,15.210359820947916,3.3310939472345753,12558,0,50.66713753481958,28.41603617888051,56.08376072035327,0.006852692868278857,0.0038432478711462274,0.18359375,,
3.7456900000004096,1450,,,,0.0625,0.115234375,-0.86328125,0.021607815718970417,0.19472636846776847,15.209933117529163,3.340898755458784,12579,0,50.814846622964524,28.463103842729307,56.01336171280719,0.006841360996457521,0.0038320762810246617,0.18359375,,
3.753625,1450,,,,-0.125,-0.140625,-1.07421875,0.021607815718970417,0.19472636846776847,15.209968766258505,3.33499334136137,12559,0,50.72514455778653,28.41827394262953,56.02403736918913,0.006852153260992548,0.0038388529035325763,0.185546875,,
3.7616900000004097,1450,,,,-0.09375,-0.14453125,-0.9921875,0.021607815718970417,0.19472636846776847,15.210069638345715,3.322783154853663,12551,0,50.539763178446286,28.400230476281166,56.19383370674959,0.006856506626958426,0.003852933932045283,0.185546875,,
3.7713849999997766,1450,,,,-0.1875,0.1171875,-1.07421875,0.021607815718970417,0.19472636846776847,15.209969320616116,3.3228126879758513,12610,0,50.53987904226667,28.53449358387931,56.45936263522875,0.006824244765212165,0.0038529250991067503,0.185546875,,
3.7790250000013037,1450,,,,0.0625,-0.041015625,-0.927734375,0.021607815718970417,0.19472636846776847,15.21057141889863,3.321154109466389,12567,0,50.51665177520718,28.437013144802417,56.292355382822265,0.006847637882228135,0.003854696651992626,0.1875,,
3.7864200000008568,1450,,,,-0.0625,0.158203125,-0.9921875,0.021607815718970417,0.19472636846776847,15.210546569350505,3.319833561519245,12551,0,50.49648298998122,28.400178543978893,56.2418942119467,0.006856519164702657,0.0038562362552339194,0.1875,,
3.7948100000005214,1450,,,,0,-0.068359375,-1.017578125,0.021607815718970417,0.19472636846776847,15.210619410118444,3.316750932654192,12548,0,50.449836114758305,28.393123465941734,56.279912191103776,0.006858222861649852,0.003859801804406741,0.1875,,
3.802850000000559,1450,,,,-0.1875,-0.17578125,-0.89453125,0.021607815718970417,0.19472636846776847,15.2102324998169,3.3205584615247385,12542,0,50.506466229025584,28.38041968549696,56.19165585017113,0.0068612927724701015,0.0038554740215790643,0.1875,,
3.8106850000005217,1450,,,,-0.03125,-0.05859375,-1.080078125,0.021607815718970417,0.1999473889024418,15.21022109071122,3.3306443129400143,12545,0,50.65983637433759,28.38541947468105,56.03140773083914,0.00704401740762679,0.003946862114298652,0.1875,,
3.8187549999998884,1450,,,,0.0625,0.169921875,-0.841796875,0.021607815718970417,0.1999473889024418,15.210308268786974,3.343196927309199,12581,0,50.851055867634315,28.468573987421625,55.98423376207868,0.007023442375118097,0.003932020397431006,0.1875,,
3.8266300000008195,1450,,,,0,-0.1171875,-1.02734375,0.021607815718970417,0.1999473889024418,15.210325784616984,3.3370445040546732,12560,0,50.757534064437195,28.420323830643266,55.99232577879647,0.007035366313696088,0.003939265226096418,0.189453125,,
3.834959999999963,1450,,,,-0.1875,0.072265625,-0.96875,0.021607815718970417,0.1999473889024418,15.210012929858895,3.3421654555587046,12549,0,50.83437979277564,28.394345828034098,55.85657962934245,0.007041802974204505,0.003933310285627945,0.189453125,,
3.844045000000857,1450,,,,0,0.083984375,-1.01953125,0.022405233250349654,0.1999473889024418,15.20997553218131,3.3396969061896775,12550,0,50.79670822804662,29.44582902841977,57.967986618789816,0.006790346731602011,0.003936227284744485,0.1875,,
3.8527950000008566,1450,,,,0.125,-0.078125,-0.88671875,0.022405233250349654,0.1999473889024418,15.20882547869746,3.3613787320733604,12588,0,51.122622503909085,29.53492706755615,57.772715132714026,0.006769862286949142,0.0039111332539161665,0.1875,,
3.8619700000006705,1450,,,,0.0625,0.107421875,-0.97265625,0.022405233250349654,0.1999473889024418,15.2078081244702,3.3900639198462987,12633,0,51.55544162271183,29.640518552419806,57.49251217617773,0.006745745306339062,0.0038782984416209235,0.189453125,,
3.876850000000559,1450,,,,-0.125,0.060546875,-1.0234375,0.022405233250349654,0.1999473889024418,15.207421500413645,3.3959471450173786,12674,0,51.643599627405614,29.73565842593557,57.57859374727977,0.006724162150317372,0.0038716780074395914,0.189453125,,
3.8997200000006704,1450,,,,-0.0625,0.189453125,-0.953125,0.022405233250349654,0.1999473889024418,15.208461179009017,3.3392132531624137,12602,0,50.78429512915298,29.567318224972762,58.221381530999125,0.006762445866110537,0.003937189408535494,0.189453125,,
3.9079750000005586,1450,,,,-0.03125,0.099609375,-1.041015625,0.022405233250349654,0.1999473889024418,15.208594917522094,3.3375243638156267,12609,0,50.7590560766325,29.583492745215977,58.282196383937624,0.006758748556989634,0.003939147107081249,0.189453125,,
3.917135000000708,1450,,,,-0.15625,-0.015625,-1.01171875,0.022405233250349654,0.1999473889024418,15.208488426915695,3.341542612593931,12568,0,50.81981215168044,29.48879572870701,58.026180106082734,0.006780452845274901,0.003934437780007225,0.189453125,,
3.9250600000005216,1450,,,,0.0625,0.130859375,-0.99609375,0.022405233250349654,0.1999473889024418,15.208072167497827,3.3438439710528605,12591,0,50.85342042862442,29.541275802114306,58.091030166942495,0.006768407371496505,0.003931837567997594,0.189453125,,
3.932945000000298,1450,,,,-0.1875,0,-0.94921875,0.022405233250349654,0.1999473889024418,15.208361680682854,3.3221666413564575,12567,0,50.524711845248405,29.48482932898211,58.35724391519713,0.006781364974899263,0.0039574176991817095,0.189453125,,
3.9410350000010803,1450,,,,0,0.1796875,-1.0390625,0.022405233250349654,0.1999473889024418,15.208409761785202,3.3225490512667855,12550,0,50.53068742529594,29.444863288989175,58.27125018340621,0.006790569442963301,0.003956949708987079,0.189453125,,
3.949915000000037,1450,,,,-0.09375,0.056640625,-1.04296875,0.022405233250349654,0.1999473889024418,15.208532726066629,3.333586426892676,12573,0,50.69895826856878,29.49868127992247,58.18399881839468,0.006778180590687318,0.003943816514794166,0.189453125,,
3.9580849999999628,1450,,,,0.09375,-0.0078125,-0.947265625,0.022405233250349654,0.20250136740190836,15.208899415849883,3.3306882982046147,12556,0,50.65610331294221,29.460905151871863,58.15864866246996,0.006873562314464123,0.0039975709570651274,0.1875,,
3.96619000000041,1450,,,,-0.0625,-0.015625,-1.00390625,0.022405233250349654,0.20250136740190836,15.208660866706303,3.3437429346919254,12550,0,50.85385231917478,29.446170761323234,57.903520418688835,0.006877001734564704,0.003982026103567259,0.1875,,
3.9743150000004097,1450,,,,-0.0625,0.0859375,-0.90625,0.022405233250349654,0.20250136740190836,15.208825865328471,3.3382348974766733,12572,0,50.77063325328537,29.49657969177509,58.09771870408247,0.006865249107454123,0.0039885531147832295,0.1875,,
3.983,1450,,,,-0.0625,-0.037109375,-1.078125,0.022405233250349654,0.20250136740190836,15.208854041839729,3.3256214603410412,12555,0,50.578891388736785,29.457763887753824,58.241220949958695,0.006874295285056996,0.004003673505722638,0.185546875,,
3.991214999999851,1450,,,,-0.03125,-0.021484375,-0.994140625,0.022405233250349654,0.20250136740190836,15.208614994632072,3.337215419909296,12574,0,50.75442447554988,29.500939014688214,58.124861663833485,0.006864234636771562,0.003989826886904414,0.185546875,,
4.000025000000372,1450,,,,0,0.24609375,-0.96484375,0.023224985200962615,0.20250136740190836,15.208436098372742,3.343320824510798,12551,0,50.84668111593134,30.526106868708098,60.035593668558285,0.006633710884681786,0.0039825877118744805,0.185546875,,
4.010475000000559,1450,,,,-0.09375,-0.048828125,-0.916015625,0.023224985200962615,0.20250136740190836,15.208266126986713,3.3374700061869795,12551,0,50.75713204492757,30.52556815049251,60.14045104729886,0.0066338279570610096,0.003989614055078303,0.185546875,,
4.018295000000856,1450,,,,-0.0625,0.068359375,-1.04296875,0.023224985200962615,0.20250136740190836,15.208410061238476,3.3259606569341273,12574,0,50.58257351820031,30.581643391872667,60.45885225841459,0.006621664009584417,0.004003382060603254,0.1875,,
4.0269850000003355,1450,,,,0.03125,-0.044921875,-0.93359375,0.023224985200962615,0.20250136740190836,15.208218628296033,3.325001263683589,12558,0,50.567346157460605,30.542975824883857,60.400590787930064,0.006630047070820363,0.004004587600293351,0.1875,,
4.034830000001006,1450,,,,-0.0625,-0.01953125,-0.9453125,0.023224985200962615,0.20250136740190836,15.208362444918091,3.3101235738509063,12545,0,50.34155904859218,30.511535520200255,60.60903972153305,0.006636878936094243,0.00402254859064742,0.185546875,,
4.04263000000082,1450,,,,-0.03125,0.04296875,-0.94921875,0.023224985200962615,0.20250136740190836,15.20850780714715,3.3064920095811923,12543,0,50.286809541985235,30.50608584820543,60.66419032357865,0.006638064562249333,0.004026928119844963,0.1875,,
4.050875000000931,1450,,,,-0.03125,0.037109375,-0.9375,0.023224985200962615,0.20250136740190836,15.20825551658054,3.3249296641780917,12535,0,50.56637990747874,30.48766791295551,60.29236810849178,0.00664207469000464,0.004004664122138562,0.185546875,,
4.058890000000596,1450,,,,-0.1875,0.0703125,-1.12109375,0.023224985200962615,0.20250136740190836,15.207278496110298,3.3479897335083444,12572,0,50.913812279579496,30.575577119985276,60.05359989954735,0.00662297776448335,0.0039773365681188165,0.1875,,
4.067365000001155,1450,,,,-0.0625,-0.029296875,-1.046875,0.023224985200962615,0.20250136740190836,15.206453416603116,3.356248579352212,12606,0,51.0366376764598,30.65848467915005,60.07152131279801,0.00660506771685372,0.003967764661254524,0.1875,,
4.076145000000484,1450,,,,0.09375,0.0234375,-0.951171875,0.023224985200962615,0.20250136740190836,15.20675421679372,3.3445761785243246,12653,0,50.8601479061626,30.773169182815714,60.505465378497256,0.006580452152942009,0.003981533199146905,0.1875,,
4.084085000000894,1450,,,,-0.25,0.04296875,-0.9453125,0.023224985200962615,0.20250136740190836,15.20701215314035,3.3361783008874757,12642,0,50.73330396663897,30.746750717222607,60.60466855744493,0.006586106260928522,0.00399148787027686,0.1875,,
4.0921150000002235,1450,,,,0.0625,-0.060546875,-1.013671875,0.023224985200962615,0.20250136740190836,15.207647235133575,3.3274360658206565,12614,0,50.60247388646125,30.678330328730045,60.626147246405814,0.006600794933493079,0.004001807655812809,0.1875,,
4.101650000000372,1450,,,,0.03125,-0.0078125,-0.96484375,0.023224985200962615,0.20250136740190836,15.208000313767236,3.318557641050436,12591,0,50.46862564634969,30.623723944396307,60.67873565447738,0.006612565074371471,0.00401242088145816,0.1875,,
4.110120000000112,1450,,,,0.125,0.078125,-0.8828125,0.023224985200962615,0.2035974032774,15.20761994428724,3.3160014623043486,12569,0,50.428489973425265,30.568641698863804,60.617800998944894,0.006660335296643797,0.004037348795982023,0.1875,,
4.118165000000968,1450,,,,-0.03125,-0.06640625,-0.9453125,0.023224985200962615,0.2035974032774,15.207341672719682,3.3171727591465014,12582,0,50.44537953577912,30.60090302380807,60.661458602177696,0.006653313567870773,0.004035997055647001,0.1875,,
4.126970000000671,1450,,,,-0.125,-0.00390625,-1.056640625,0.023224985200962615,0.2035974032774,15.20760011453526,3.312098109640757,12559,0,50.3690635915248,30.544460975128708,60.64131194265081,0.0066656079949547085,0.004042112137094756,0.1875,,
4.135280000000261,1450,,,,-0.03125,0.01953125,-0.94140625,0.023224985200962615,0.2035974032774,15.20776389322211,3.319884919620535,12579,0,50.488026010257755,30.593151848743585,60.59486628082451,0.006654999271863564,0.0040325879097755715,0.1875,,
4.143790000000037,1450,,,,0,0.13671875,-0.962890625,0.02343287604751389,0.2035974032774,15.207976868668533,3.31122538811918,12559,0,50.35703910946448,30.817634219902065,61.19826495936685,0.0066065228052423495,0.004043077330953208,0.1875,,
4.1514650000007824,1450,,,,0.125,-0.05078125,-0.9140625,0.02343287604751389,0.2035974032774,15.207138807028997,3.345541525077399,12591,0,50.876114356531495,30.89752732927448,60.7309102121079,0.006589440025658544,0.00400182690546339,0.1875,,
4.159669999999926,1450,,,,-0.125,0.205078125,-0.958984375,0.02343287604751389,0.2035974032774,15.206204790007202,3.366066500228963,12624,0,51.18509653926444,30.977305081351187,60.520165391479296,0.006572469836957146,0.003977669615631554,0.189453125,,
4.167334999999963,1450,,,,-0.1875,-0.09375,-0.9609375,0.02343287604751389,0.2035974032774,15.206227557558963,3.385306360973356,12635,0,51.4777388770127,31.00506779586562,60.230049866683025,0.0065665846827965575,0.003955057228986336,0.189453125,,
4.175110000000335,1450,,,,-0.03125,0.0546875,-0.94921875,0.02343287604751389,0.2035974032774,15.206677920678773,3.3728527354933178,12670,0,51.28988522252724,31.090618701504887,60.61744643532454,0.006548515654580564,0.003969542969224216,0.189453125,,
4.186550000000745,1450,,,,0,0.048828125,-0.953125,0.02343287604751389,0.2035974032774,15.206740046435106,3.369307891472868,12655,0,51.23618924203029,31.05425647909894,60.61000425383779,0.006556183478887385,0.003973703085443054,0.1875,,
4.195765000000596,1450,,,,-0.03125,-0.076171875,-1.025390625,0.02343287604751389,0.2035974032774,15.20683437750263,3.36404921514974,12612,0,51.156539252549805,30.947573258704896,60.495830466409764,0.00657878411258409,0.0039798900834999715,0.1875,,
4.203990000000224,1450,,,,-0.03125,-0.142578125,-0.984375,0.02343287604751389,0.2035974032774,15.207036761244659,3.372104565886799,12626,0,51.27971809620151,30.983735114624828,60.42103245672856,0.006571105856804808,0.003970330002506025,0.1875,,
4.212500000000931,1450,,,,-0.125,0.171875,-1.0390625,0.02343287604751389,0.2035974032774,15.207348043698227,3.3702341785275256,12611,0,51.25232414163547,30.944895068430256,60.37754499271924,0.006579353487131663,0.003972452111922962,0.1875,,
4.220345000000671,1450,,,,-0.15625,0.2109375,-0.904296875,0.02343287604751389,0.2035974032774,15.2075733123155,3.3600861651930845,10060,0,51.09875669287088,24.685515383021205,48.30942469186387,0.008247646448468931,0.003984390549874283,0.1875,,
4.229110000000335,1450,,,,0,-0.26953125,-1.10546875,0.02343287604751389,0.2035974032774,15.208250463345257,3.350099271837831,11643,0,50.9491488031803,28.57178437736153,56.07902202200884,0.007125820375388163,0.0039960903775627206,0.189453125,,
4.237070000000298,1450,,,,0,0.03515625,-0.9609375,0.02343287604751389,0.2035974032774,15.208304042023244,3.3537136576944326,12195,0,51.00429697610279,29.926149897966987,58.6737817638941,0.006803327657301859,0.003991769622327941,0.189453125,,
4.256799999999814,1450,,,,-0.041015625,0.048828125,-0.939453125,0.02343287604751389,0.2040384392105624,15.20849530871669,3.34795325530222,12502,0,50.91733137706659,30.679346817013748,60.253249703561394,0.006650677422421831,0.0040072492743102065,0.189453125,,
4.27266000000108,1450,,,,-0.125,-0.029296875,-0.9453125,0.02343287604751389,0.2040384392105624,15.20800254682725,3.3448492655500046,12560,0,50.86847614923773,30.821107811632732,60.5897997046538,0.006620087780671942,0.0040110979265813905,0.1875,,
4.280580000001006,1450,,,,-0.0625,0.0703125,-0.96875,0.02343287604751389,0.2040384392105624,15.208190987104032,3.3427129385868244,12552,0,50.836616785092176,30.800588926092544,60.58740898573095,0.006624497982819815,0.004013611686102538,0.1875,,
4.287334999999962,1450,,,,0.15625,0.015625,-0.955078125,0.02343287604751389,0.2040384392105624,15.208012464807954,3.3428606087252386,12553,0,50.838265805608934,30.802772805136023,60.5897394748221,0.006624028313988058,0.0040134814981838155,0.1875,,
4.294590000000782,1450,,,,0.0625,0.0859375,-0.8984375,0.024437652990062352,0.2040384392105624,15.207658158996784,3.3421436297693883,12587,0,50.82617783980157,32.211414947839835,63.375638926394615,0.006334351953832616,0.0040144360225879815,0.1875,,
4.301490000001155,1450,,,,-0.15625,0,-1.05859375,0.024437652990062352,0.2040384392105624,15.207502775868196,3.338719634903622,12564,0,50.77358811564248,32.15283106590913,63.32589887615878,0.006345893423577851,0.004018594052203721,0.1875,,
4.309385000000708,1450,,,,-0.25,0.2265625,-0.90234375,0.024437652990062352,0.2040384392105624,15.207431381541967,3.3420131017309975,12589,0,50.82343492078838,32.21564512757645,63.38738256827116,0.006333520201211379,0.004014652679980594,0.1875,,
4.324445000000298,1450,,,,0.0625,-0.08203125,-0.8828125,0.024437652990062352,0.2040384392105624,15.207483631633561,3.3410458889123107,12589,0,50.808900668170565,32.21588725172248,63.40599152522945,0.006333472600530445,0.004015801100345063,0.1875,,
4.340660000001081,1450,,,,0,0,-1.03515625,0.024437652990062352,0.2040384392105624,15.207702294698223,3.3424230330585103,12550,0,50.8305744296961,32.11700092291218,63.184414662347145,0.006352972984628895,0.0040140887939948125,0.185546875,,
4.364515000000596,1450,,,,0.03125,0.052734375,-0.908203125,0.024437652990062352,0.2040384392105624,15.206879625388739,3.3440932087677666,12561,0,50.8532228818114,32.14405915470746,63.20948276850391,0.0063476251779072896,0.0040123010430385235,0.1875,,
4.373465000000782,1450,,,,-0.078125,0.20703125,-0.998046875,0.024437652990062352,0.2040384392105624,15.206703385073395,3.3441544586360594,12579,0,50.85356492634925,32.19130338667444,63.301960114884395,0.006338309348947452,0.004012274056028705,0.189453125,,
4.395780000001192,1450,,,,0.041015625,-0.0234375,-0.978515625,0.024437652990062352,0.2040384392105624,15.205786465387131,3.3542939618189545,12666,0,51.004677725556434,32.41280239687376,63.54868581128782,0.00629499531426638,0.004000386794098432,0.189453125,,
4.403375000000931,1450,,,,0,-0.09765625,-0.83203125,0.024437652990062352,0.20455535014466775,15.20636204945437,3.3426728785897444,12641,0,50.829894004727485,32.34957664904832,63.64281744526089,0.006323277499542964,0.0040243119555913864,0.189453125,,
4.410865000001155,1450,,,,-0.1875,0.146484375,-1.00390625,0.024437652990062352,0.20455535014466775,15.206443414967561,3.3428471433981604,12583,0,50.83281593097008,32.20142283338169,63.347706090314894,0.006352369931076924,0.004024080633708149,0.189453125,,
4.41934500000067,1450,,,,-0.15625,0.064453125,-0.958984375,0.024437652990062352,0.20455535014466775,15.20622818120856,3.3595670963611446,12588,0,51.08634385734785,32.212914468746,63.05582282164581,0.006350103786577085,0.004004110192654669,0.189453125,,
4.427530000001192,1450,,,,0.125,0.16015625,-0.9609375,0.024437652990062352,0.20455535014466775,15.206108629486568,3.3573919023896486,12608,0,51.052865979495564,32.265840109726824,63.20083993459995,0.0063396877145933265,0.004006735884853626,0.189453125,,
4.4345900000007825,1450,,,,0.0625,0.111328125,-0.880859375,0.024437652990062352,0.20455535014466775,15.20619069046671,3.3474437050851407,12606,0,50.90186730512706,32.26124402448122,63.37929379111742,0.0063405908956716715,0.004018621731860592,0.189453125,,
4.443180000000633,1450,,,,-0.25,-0.06640625,-0.953125,0.02402404991968964,0.20455535014466775,15.206632685128037,3.3378160180122354,12615,0,50.75694215644877,31.736792160711293,62.52699790875616,0.006445369434592636,0.0040300960115793455,0.19140625,,
4.4514950000001114,1450,,,,-0.09375,-0.177734375,-1.06640625,0.02402404991968964,0.20455535014466775,15.206414236765243,3.3593819021347224,12583,0,51.08415278335294,31.655830716692876,61.968005715871875,0.0064618538042914425,0.004004281934794606,0.19140625,,
4.459830000001006,1450,,,,0.03125,0.015625,-0.955078125,0.02402404991968964,0.20455535014466775,15.20546780708245,3.3638926131375255,12588,0,51.1495608355451,31.667855746935796,61.91227300807833,0.006459400086299202,0.003999161416113609,0.19140625,,
4.467485000000336,1450,,,,0.0625,0.17578125,-0.85546875,0.02402404991968964,0.20455535014466775,15.204895558893408,3.3660763972947563,12651,0,51.18084006412296,31.827461566394756,62.186282066724715,0.006427008001186275,0.003996717324068663,0.19140625,,
4.476185000000521,1450,,,,-0.0625,0.064453125,-1.01953125,0.02402404991968964,0.20455535014466775,15.205503641848786,3.344844920159092,12650,0,50.86005161489849,31.8257490240283,62.57514102621467,0.006427353838246803,0.004021925728536759,0.19140625,,
4.484070000000298,1450,,,,-0.25,0.04296875,-0.9921875,0.02402404991968964,0.20455535014466775,15.20606615201742,3.328449934511424,12632,0,50.61262988785876,31.780475517732953,62.79159092927639,0.006436510052548755,0.004041587062318167,0.19140625,,
4.494680000000633,1450,,,,-0.09375,0.01171875,-1.01953125,0.02402404991968964,0.20455535014466775,15.20635720649698,3.3128760123910204,12634,0,50.37677602525317,31.784581492816844,63.09371897257514,0.006435678575503542,0.0040605089544064315,0.19140625,,
4.502910000000149,1450,,,,0.0625,0.02734375,-0.890625,0.02402404991968964,0.20455535014466775,15.206946305796093,3.3076044974852343,12572,0,50.29856399406763,31.628494207240525,62.881505346695164,0.006467438784924516,0.004066822865336547,0.19140625,,
4.51144000000041,1450,,,,-0.125,0.162109375,-1.0078125,0.02402404991968964,0.20455535014466775,15.206900862445195,3.3057014520969648,12583,0,50.26947426287967,31.65623223228882,62.97307202129351,0.0064617718445982575,0.004069176237550527,0.19140625,,0.060379999999888245,156072,
4.5202900000000374,1450,,,,-0.0625,-0.01953125,-0.974609375,0.02402404991968964,0.20455535014466775,15.206819382973041,3.3000736892402966,12555,0,50.183624542778695,31.586566821473774,62.94197979770875,0.006476023535600048,0.004076137425472246,0.193359375,,
4.5307700000004845,1540,,,,0.03125,-0.033203125,-0.94921875,0.02402404991968964,0.20455535014466775,15.206277290958761,3.3003255542163235,12576,0,50.18566552785057,31.639655853869574,63.045205281398786,0.0064651572409454745,0.004075971654319292,0.193359375,,
4.539275000000372,1540,,,,-0.0625,0.095703125,-0.93359375,0.02402404991968964,0.20455535014466775,15.206227332285456,3.2900568859951003,12562,0,50.02935294459267,31.603125296413857,63.16916657190072,0.006472630419494604,0.004088706691274062,0.19140625,,
4.546320000000298,1540,,,,-0.0625,0.09765625,-1.03125,0.02402404991968964,0.20455535014466775,15.206057308646596,3.2904052454210704,12588,0,50.034090730544165,31.66836465851191,63.29357483292769,0.006459296283544809,0.004088319526905951,0.19140625,,
4.555270000000484,1540,,,,-0.03125,-0.341796875,-0.966796875,0.02402404991968964,0.20330618699861008,15.195576804387043,3.625670525820375,12701,0,55.09415494250587,31.95261677418826,57.99638238853609,0.006362739816754021,0.003690158914512303,0.193359375,,
4.56341000000108,1540,,,,-0.125,-0.123046875,-0.921875,0.02402404991968964,0.20330618699861008,15.18726985146555,3.8657221657630387,13149,0,58.70976570223511,33.07899824492634,56.34326393448204,0.0061460805279916,0.0034629023735121144,0.193359375,,
4.571429999999702,1540,,,,-0.625,0.8515625,-1.3515625,0.02402404991968964,0.20330618699861008,15.181014645644975,4.047035160805125,13683,0,61.43810004762277,34.42241599123073,56.02780028117527,0.005906214922578453,0.0033091223009992254,0.201171875,,
4.578930000000633,1540,,,,-0.28125,-0.1484375,-1.091796875,0.02402404991968964,0.20330618699861008,15.176817365666357,4.194834464024528,14022,0,63.66423653970319,35.277016152315205,55.411040907268635,0.005763134447675423,0.00319341278634232,0.21484375,,
4.5874900000011545,1540,,,,0,0.23046875,-1.140625,0.02402404991968964,0.20330618699861008,15.173784176809908,4.309936292286747,14275,0,65.3980431149594,35.91180723824257,54.91266332712019,0.005661263039474907,0.0031087503129295473,0.21875,,
4.597470000000671,1540,,,,-0.1875,0.373046875,-0.94921875,0.024842019399692675,0.20330618699861008,15.170885682092534,4.394102890990108,14450,0,66.66243263456323,37.59029854029771,56.38902910483924,0.005408474922875671,0.0030497864983882934,0.220703125,,
