Time (s),ESC signal (µs),Servo 1 (µs),Servo 2 (µs),Servo 3 (µs),AccX (g),AccY (g),AccZ (g),Torque (N·m),Thrust (kgf),Voltage (V),Current (A),Motor Electrical Speed (RPM),Motor Optical Speed (RPM),Electrical Power (W),Mechanical Power (W),Motor Efficiency (%),Propeller Mech. Efficiency (kgf/W),Overall Efficiency (kgf/W),Vibration (g),App message,90% settling time (s),Max acceleration (RPM/s),
0,1000,,,,-0.0625,0.046875,-0.955078125,0.00009997184864325434,0.007566067551329096,15.313772940215525,-0.024895052816993418,0,0,0.38123718617411007,0,0,0,0,0.05859375,,
0,1000,,,,-0.0625,0.052734375,-0.95703125,0.00008525369971040387,0.007566067551329096,15.313704103714617,-0.025548640011043837,0,0,0.39124431338144944,0,0,0,0,0.05859375,,
0.009909999999217689,1000,,,,-0.0625,0.0546875,-0.955078125,0.00008525369971040387,0.007566067551329096,15.313758613484973,-0.02552502579503893,0,0,0.39088408362820354,0,0,0,0,0.05859375,,
0.017484999999403953,1000,,,,-0.0625,0.052734375,-0.955078125,0.00008525369971040387,0.007566067551329096,15.313867244157308,-0.025716126550534582,0,0,0.3938133480288356,0,0,0,0,0.05859375,,
0.025054999999701975,1000,,,,-0.0625,0.046875,-0.953125,0.00008525369971040387,0.007566067551329096,15.313971440671693,-0.02696006834225094,0,0,0.41286571663178795,0,0,0,0,0.05859375,,
0.03272999999951571,1000,,,,-0.0625,0.05078125,-0.955078125,0.00008525369971040387,0.007566067551329096,15.313886577308098,-0.02622735096971284,0,0,0.401642677973434,0,0,0,0,0.05859375,,
0.04158000000007451,1000,,,,-0.0625,0.046875,-0.955078125,0.00008525369971040387,0.007566067551329096,15.313990965923637,-0.025744985780550046,0,0,0.3942584796611759,0,0,0,0,0.05859375,,
0.06768999999947846,1000,,,,-0.0625,0.048828125,-0.955078125,0.00008525369971040387,0.007432803031239497,15.314197085046146,-0.02723913612484842,0,0,0.41714549904232884,0,0,0,0,0.05859375,,
0.07553999999910593,1000,,,,-0.0625,0.048828125,-0.95703125,0.00008525369971040387,0.007432803031239497,15.314286143511705,-0.02734938079875566,0,0,0.41883624340000886,0,0,0,0,0.05859375,,
0.08357999999914319,1000,,,,-0.0625,0.05078125,-0.953125,0.00008525369971040387,0.007432803031239497,15.314239669383298,-0.027665187260262313,0,0,0.42367130820202653,0,0,0,0,0.05859375,,
0.0917749999994412,1000,,,,-0.0625,0.05078125,-0.955078125,0.00008525369971040387,0.007432803031239497,15.314227939948825,-0.027114220386627738,0,0,0.41523335141482454,0,0,0,0,0.05859375,,
0.09921999999973923,1000,,,,-0.0625,0.048828125,-0.95703125,0.00008525369971040387,0.007432803031239497,15.314377216572314,-0.026810371438645196,0,0,0.41058414152782907,0,0,0,0,0.05859375,,
0.10725999999977648,1000,,,,-0.0625,0.05078125,-0.95703125,0.00008525369971040387,0.007432803031239497,15.314456897032375,-0.026514831958912174,0,0,0.406060251166817,0,0,0,0,0.05859375,,
0.11525499999895691,1000,,,,-0.0625,0.05078125,-0.958984375,0.00008525369971040387,0.007432803031239497,15.314434651506824,-0.02570595580320354,0,0,0.39367218030268325,0,0,0,0,0.05859375,,
0.1228649999992922,1000,,,,-0.0625,0.046875,-0.95703125,0.00008525369971040387,0.007432803031239497,15.314511326417742,-0.02620872086955181,0,0,0.4013737526076723,0,0,0,0,0.05859375,,
0.13086999999918045,1000,,,,-0.0625,0.046875,-0.955078125,0.0000499110494310556,0.007432803031239497,15.31438802729108,-0.02604928337020991,0,0,0.39892883336425533,0,0,0,0,0.05859375,,
0.1385499999988824,1000,,,,-0.0625,0.046875,-0.95703125,0.0000499110494310556,0.007432803031239497,15.314459210705913,-0.026775493216255213,0,0,0.4100521987068733,0,0,0,0,0.05859375,,
0.14917999999877066,1000,,,,-0.0625,0.048828125,-0.95703125,0.0000499110494310556,0.007432803031239497,15.314534637327528,-0.02658890876691511,0,0,0.407196764279663,0,0,0,0,0.05859375,,
0.16868499999959022,1000,,,,-0.0625,0.046875,-0.95703125,0.0000499110494310556,0.007432803031239497,15.31432547803124,-0.025045001826279112,0,0,0.38354730956552513,0,0,0,0,0.05859375,,
0.17651999999955298,1000,,,,-0.0625,0.046875,-0.95703125,0.0000499110494310556,0.007432803031239497,15.314341995896688,-0.025467908892016944,0,0,0.3900242666926858,0,0,0,0,0.05859375,,
0.1858899999996647,1000,,,,-0.0625,0.048828125,-0.955078125,0.0000499110494310556,0.007432803031239497,15.314323186761378,-0.026407229485200863,0,0,0.40440884680334027,0,0,0,0,0.05859375,,
0.19381499999947846,1000,,,,-0.0625,0.048828125,-0.958984375,0.0000499110494310556,0.007432803031239497,15.314274815093873,-0.025283125845333314,0,0,0.38719273738003696,0,0,0,0,0.05859375,,
0.20186999999918043,1000,,,,-0.0625,0.05078125,-0.953125,0.0000499110494310556,0.007342675376348968,15.314425402889853,-0.02506190765684619,0,0,0.383808715264885,0,0,0,0,0.05859375,,
0.210714999999851,1000,,,,-0.0625,0.05078125,-0.955078125,0.0000499110494310556,0.007342675376348968,15.314402205948031,-0.024947154196499656,0,0,0.382050753259,0,0,0,0,0.05859375,,
0.21886499999929218,1000,,,,-0.0625,0.05078125,-0.955078125,0.0000499110494310556,0.007342675376348968,15.314415313801794,-0.023884205226836604,0,0,0.3657726382838513,0,0,0,0,0.05859375,,
0.22793999999947845,1000,,,,-0.0625,0.046875,-0.95703125,0.0000499110494310556,0.007342675376348968,15.314355808466225,-0.02347499087150548,0,0,0.35950436280673154,0,0,0,0,0.05859375,,
0.23652999999932944,1000,,,,-0.0625,0.05078125,-0.95703125,0.0000499110494310556,0.007342675376348968,15.314589982002646,-0.023800530783569626,0,0,0.364495370304401,0,0,0,0,0.05859375,,
0.24494999999925493,1000,,,,-0.0625,0.05078125,-0.95703125,0.0000499110494310556,0.007342675376348968,15.314666698205416,-0.023400720713207986,0,0,0.358374238220572,0,0,0,0,0.05859375,,
0.25213999999966474,1000,,,,-0.0625,0.048828125,-0.953125,0.0000499110494310556,0.007342675376348968,15.314637901920129,-0.02310006899155683,0,0,0.35376919211506613,0,0,0,0,0.05859375,,
0.26083999999985097,1000,,,,-0.0625,0.05078125,-0.95703125,0.0000499110494310556,0.007342675376348968,15.314903307512111,-0.023093224763795564,0,0,0.35367050431617325,0,0,0,0,0.05859375,,
0.26885999999940396,1000,,,,-0.0625,0.05078125,-0.95703125,0.0000499110494310556,0.007342675376348968,15.314825711360701,-0.022979313678128048,0,0,0.3519241839472181,0,0,0,0,0.05859375,,
0.27733499999903144,1000,,,,-0.0625,0.046875,-0.95703125,0.00007352015945653351,0.007342675376348968,15.31468680642342,-0.022018246209368264,0,0,0.33720254472319466,0,0,0,0,0.05859375,,
0.28482999999914316,1000,,,,-0.125,0.072265625,-0.962890625,0.00007352015945653351,0.007342675376348968,15.314459491813134,-0.018276837117877857,0,0,0.27989988168020713,0,0,0,0,0.05859375,,
0.2920099999997765,1000,,,,-0.09375,-0.1015625,-0.970703125,0.00007352015945653351,0.007342675376348968,15.314340280207693,-0.01377000872189029,0,0,0.21087859922845573,0,0,0,0,0.060546875,,
0.30320999999996273,1000,,,,-0.0625,-0.21875,-1.05078125,0.00007352015945653351,0.007342675376348968,15.314239115582723,-0.010883659561585463,0,0,0.166674964978718,0,0,0,0,0.0625,,
0.3223199999993667,1000,,,,0.166015625,-0.119140625,-1.00390625,0.00007352015945653351,0.007342675376348968,15.313940028962055,0.0008277408389759655,0,0,0.012675973567600673,0,0,0,0,0.0703125,,
0.3300699999993667,1000,,,,0,0.19921875,-0.84765625,0.00007352015945653351,0.007342675376348968,15.313779207440009,0.006470614875224975,0,0,0.09908956753557226,0,0,0,0,0.072265625,,
0.3378099999995902,1000,,,,-0.3125,0.43359375,-0.912109375,0.00007352015945653351,0.007342675376348968,15.313701230925247,0.010031842411222167,0,0,0.153624637481181,0,0,0,0,0.076171875,,
0.34583499999996276,1000,,,,-0.53125,0.55859375,-0.916015625,0.00007352015945653351,0.007342675376348968,15.313617760361335,0.013205018431414917,0,0,0.20221660477721426,0,0,0,0,0.0859375,,
0.35477999999932947,1000,,,,-0.5,0.45703125,-0.88671875,0.00007352015945653351,0.007343413256032026,15.313530295016001,0.016528232193428943,0,0,0.2531055844171329,0,0,0,0,0.091796875,,
0.36893499999959023,1000,,,,-0.1875,0.16015625,-1.0390625,0.00007352015945653351,0.007343413256032026,15.313328185085416,0.024906128472592187,0,0,0.3813957191207043,0,0,0,0,0.099609375,,
0.37667499999888243,1000,,,,0.03125,-0.091796875,-1.07421875,0.00007352015945653351,0.007343413256032026,15.313266435109878,0.027826861079195464,0,0,0.4261201377585093,0,0,0,0,0.099609375,,
0.38496999999973924,1000,,,,0.21875,-0.33203125,-1.001953125,0.00007352015945653351,0.007343413256032026,15.313331384217468,0.03161115289045112,0,0,0.48407205964864186,0,0,0,0,0.10546875,,
0.3929449999993667,1000,,,,0.25,-0.34375,-0.99609375,0.00007352015945653351,0.007343413256032026,15.31326578488648,0.03416216846000175,0,0,0.5231343654160729,0,0,0,0,0.109375,,
0.4018999999994412,1000,,,,0.21875,-0.31640625,-0.90625,0.00007352015945653351,0.007343413256032026,15.313050712278972,0.03804105853189299,0,0,0.58252465844765,0,0,0,0,0.11328125,,
0.409929999999702,1000,,,,0.125,-0.234375,-0.89453125,0.00007352015945653351,0.007343413256032026,15.312999070360503,0.04176343060038086,0,0,0.6395233739586975,0,0,0,0,0.115234375,,
0.417894999999553,1000,,,,-0.03125,-0.07421875,-0.927734375,0.00007352015945653351,0.007343413256032026,15.312950056730859,0.04497687031207122,0,0,0.6887285687968074,0,0,0,0,0.115234375,,
0.42590499999932946,1000,,,,-0.125,0.02734375,-1.0078125,0.00007352015945653351,0.007343413256032026,15.313001005697785,0.047048638369035195,0,0,0.7204558466617473,0,0,0,0,0.115234375,,
0.43395499999914317,1000,,,,-0.1875,-0.00390625,-1.08203125,0.00011512013248240274,0.007343413256032026,15.313050858212117,0.05037396269747982,0,0,0.7713790527161885,0,0,0,0,0.1171875,,
0.442109999999404,1000,,,,-0.1875,-0.04296875,-1.14453125,0.00011512013248240274,0.007343413256032026,15.312805485944907,0.052821312439835386,0,0,0.8088424829035212,0,0,0,0,0.119140625,,
0.453234999999404,1000,,,,-0.125,-0.06640625,-1.087890625,0.00011512013248240274,0.007343413256032026,15.312540294599094,0.05618331493525508,0,0,0.8603092738302445,0,0,0,0,0.12109375,,
0.4617299999995157,1000,,,,0,0.033203125,-1.029296875,0.00011512013248240274,0.007343413256032026,15.312637809585201,0.059157445957953456,0,0,0.9058565436942513,0,0,0,0,0.12109375,,
0.4710099999988452,1000,,,,0.09375,0.134765625,-0.958984375,0.00011512013248240274,0.007343413256032026,15.31270503471504,0.06185146673029236,0,0,0.9471132660054576,0,0,0,0,0.12109375,,
0.48003499999921767,1000,,,,0.125,0.1484375,-0.97265625,0.00011512013248240274,0.007343413256032026,15.312666475089024,0.06326848032036357,0,0,0.9688091375314609,0,0,0,0,0.12109375,,
0.4887399999992922,1000,,,,0.09375,0.025390625,-0.953125,0.00011512013248240274,0.007343413256032026,15.3126258584154,0.06661126773096919,0,0,1.0199934207190702,0,0,0,0,0.12109375,,
0.4967049999991432,1000,,,,0.0625,-0.126953125,-0.904296875,0.00011512013248240274,0.007343413256032026,15.312464504768508,0.06934581843344086,0,0,1.0618553833161848,0,0,0,0,0.12109375,,
0.5050649999994785,1000,,,,0.0625,-0.232421875,-0.89453125,0.00011512013248240274,0.007299661273604124,15.312441709871129,0.0721658822085086,0,0,1.105035864759214,0,0,0,0,0.123046875,,
0.5128149999994784,1000,,,,0.125,-0.296875,-0.93359375,0.00011512013248240274,0.007299661273604124,15.312226290774515,0.07292058030249617,0,0,1.116576426846416,0,0,0,0,0.126953125,,
0.5219449999993667,1000,,,,0.15625,-0.2109375,-0.8828125,0.00011512013248240274,0.007299661273604124,15.312361444508138,0.07614359228275648,0,0,1.1659382067168278,0,0,0,0,0.12890625,,
0.5299049999993295,1000,,,,0.1875,-0.109375,-0.830078125,0.00011512013248240274,0.007299661273604124,15.312277641287912,0.0777883169316209,0,0,1.1911163061054766,0,0,0,0,0.130859375,,
0.5376699999989941,1000,,,,0.25,-0.099609375,-0.84765625,0.00011512013248240274,0.007299661273604124,15.312166979884926,0.079851319681104,0,0,1.222696740521236,0,0,0,0,0.1328125,,
0.5460400000000373,1000,,,,0.3125,-0.1171875,-0.8671875,0.00011512013248240274,0.007299661273604124,15.312027271484592,0.08088118619617556,0,0,1.2384549287858633,0,0,0,0,0.134765625,,
0.5539299999997019,1000,,,,0.3125,-0.1171875,-0.875,0.00011512013248240274,0.007299661273604124,15.311895015140633,0.08292171558632551,0,0,1.269688603533167,0,0,0,0,0.138671875,,
0.5617499999990687,1000,,,,0.25,-0.0390625,-0.90625,0.00011512013248240274,0.007299661273604124,15.311900089335506,0.08472202502426547,0,0,1.2972551825377354,0,0,0,0,0.140625,,
0.5697749999994413,1000,,,,0.1875,0.01953125,-0.908203125,0.00011512013248240274,0.007299661273604124,15.311839607027451,0.08657170728181875,0,0,1.3255720964057391,0,0,0,0,0.140625,,
0.5778649999992922,1000,,,,0.1875,0.01171875,-0.9140625,0.00011108316921406348,0.007299661273604124,15.311945741098503,0.08726679921042176,0,0,1.3362244945093156,0,0,0,0,0.142578125,,
0.5858699999991804,1000,,,,0.1875,-0.03515625,-0.9609375,0.00011108316921406348,0.007299661273604124,15.311747079289153,0.08728940165206085,0,0,1.3365532407988405,0,0,0,0,0.142578125,,
0.5952449999991805,1000,,,,0.15625,-0.0390625,-0.9609375,0.00011108316921406348,0.007299661273604124,15.31168580388955,0.08977250570888225,0,0,1.3745684012422859,0,0,0,0,0.142578125,,
0.6061199999991804,1000,,,,0.125,-0.041015625,-0.962890625,0.00011108316921406348,0.007299661273604124,15.31183942422182,0.0912325783177265,0,0,1.3969385894587696,0,0,0,0,0.142578125,,
0.6197949999989941,1000,,,,0.125,-0.052734375,-1.029296875,0.00011108316921406348,0.007299661273604124,15.311755607613698,0.09348386049650877,0,0,1.4314020251787947,0,0,0,0,0.142578125,,
0.627519999999553,1000,,,,0.103515625,-0.04296875,-1,0.00011108316921406348,0.007299661273604124,15.311694926166222,0.09555569107714411,0,0,1.4631195902322145,0,0,0,0,0.14453125,,
0.6369899999992922,1000,,,,0.0625,0.05859375,-0.9921875,0.00011108316921406348,0.007299661273604124,15.31160012918094,0.09584550983434688,0,0,1.4675481207609988,0,0,0,0,0.142578125,,
0.6460899999989197,1000,,,,0.0625,0.056640625,-0.953125,0.00011108316921406348,0.007299661273604124,15.311622028310468,0.09540032486368862,0,0,1.4607337156908295,0,0,0,0,0.142578125,,
0.6562749999994412,1000,,,,0.0625,0.10546875,-0.97265625,0.00011108316921406348,0.007746793444855814,15.311275335233983,0.09894163832367033,0,0,1.5149226664928548,0,0,0,0,0.140625,,
0.6641299999998882,1000,,,,0.0625,0.115234375,-0.96875,0.00011108316921406348,0.007746793444855814,15.311309913658949,0.09944128571367152,0,0,1.5225763437747306,0,0,0,0,0.140625,,
0.6727199999988079,1000,,,,0,0.171875,-0.97265625,0.00011108316921406348,0.007746793444855814,15.311125908377512,0.09975453673302286,0,0,1.5273542718511826,0,0,0,0,0.140625,,
0.6808899999996647,1000,,,,0,0.13671875,-0.953125,0.00011108316921406348,0.007746793444855814,15.311103453395026,0.10128614436697587,0,0,1.5508026347982715,0,0,0,0,0.140625,,
0.6892649999996647,1000,,,,-0.03125,0.208984375,-0.99609375,0.00011108316921406348,0.007746793444855814,15.311049192801276,0.10157935391207616,0,0,1.5552864847207688,0,0,0,0,0.140625,,
0.6975899999998509,1000,,,,-0.0625,0.203125,-0.98828125,0.00011108316921406348,0.007746793444855814,15.311028555896053,0.10270292574870178,0,0,1.572487428912445,0,0,0,0,0.140625,,
0.7069999999990687,1000,,,,-0.125,0.2421875,-0.9765625,0.00011108316921406348,0.007746793444855814,15.3111591963656,0.1016073430716478,0,0,1.5557262052897347,0,0,0,0,0.142578125,,
0.7155400000000373,1000,,,,-0.125,0.2421875,-0.96875,0.00011108316921406348,0.007746793444855814,15.311201900368546,0.10310569455948494,0,0,1.5786721064780047,0,0,0,0,0.142578125,,
0.7221949999993666,1000,,,,-0.125,0.11328125,-0.962890625,0.00011108316921406348,0.007746793444855814,15.311238260809786,0.10062574495945527,0,0,1.540704756245699,0,0,0,0,0.14453125,,
0.7306949999993667,1000,,,,-0.0625,0.03515625,-0.9921875,0.00039362471323934684,0.007746793444855814,15.311476952288896,0.09508776746004231,0,0,1.4559341599090438,0,0,0,0,0.142578125,,
0.7389799999995157,1000,,,,-0.0625,0.033203125,-0.96484375,0.00039362471323934684,0.007746793444855814,15.311698281248374,0.08920262158682112,0,0,1.365843627633778,0,0,0,0,0.142578125,,
0.7469449999993667,1000,,,,-0.0625,0.044921875,-0.962890625,0.00039362471323934684,0.007746793444855814,15.311844838115258,0.08441782249101336,0,0,1.2925925995539531,0,0,0,0,0.140625,,
0.7592099999999627,1000,,,,-0.0625,0.046875,-0.958984375,0.00039362471323934684,0.007746793444855814,15.311852372968286,0.07889695920824909,0,0,1.2080585920728109,0,0,0,0,0.138671875,,
0.7765949999988079,1000,,,,-0.0625,0.052734375,-0.9609375,0.00039362471323934684,0.007746793444855814,15.312242126137143,0.06483229236969378,0,0,0.9927277583572647,0,0,0,0,0.13671875,,
0.7851849999995902,1000,,,,-0.0625,0.046875,-0.95703125,0.00039362471323934684,0.007746793444855814,15.312302393650402,0.06034764141096703,0,0,0.9240613340283066,0,0,0,0,0.13671875,,
0.7927799999993295,1000,,,,-0.0625,0.048828125,-0.955078125,0.00039362471323934684,0.007746793444855814,15.312483449617105,0.05626937472242384,0,0,0.8616238691574181,0,0,0,0,0.134765625,,
0.8008999999985099,1000,,,,-0.0625,0.048828125,-0.953125,0.00039362471323934684,0.007576422996693451,15.312459594673475,0.05203365289830121,0,0,0.7967632075685017,0,0,0,0,0.134765625,,
0.8083999999994412,1000,,,,-0.0625,0.05078125,-0.95703125,0.00039362471323934684,0.007576422996693451,15.312564851745979,0.04835760013245821,0,0,0.7404788881030663,0,0,0,0,0.1328125,,
0.8161799999997019,1000,,,,-0.0625,0.05078125,-0.958984375,0.00039362471323934684,0.007576422996693451,15.31262875486347,0.044894676037570636,0,0,0.687455507233184,0,0,0,0,0.1328125,,
0.8244599999990314,1000,,,,-0.0625,0.052734375,-0.955078125,0.00039362471323934684,0.007576422996693451,15.3127930829718,0.039997341521393656,0,0,0.6124710145860576,0,0,0,0,0.130859375,,
0.832609999999404,1000,,,,-0.0625,0.046875,-0.95703125,0.00039362471323934684,0.007576422996693451,15.312883909689239,0.03684017701479558,0,0,0.5641293538399667,0,0,0,0,0.130859375,,
0.8426650000000373,1000,,,,-0.0625,0.052734375,-0.95703125,0.00039362471323934684,0.007576422996693451,15.312891104523349,0.03195434078411169,0,0,0.48931334074393157,0,0,0,0,0.12890625,,
0.8507249999986961,1000,,,,-0.0625,0.05078125,-0.955078125,0.00039362471323934684,0.007576422996693451,15.312769663937466,0.029312384273281922,0,0,0.44885378867758907,0,0,0,0,0.12890625,,
0.8583799999989569,1000,,,,-0.0625,0.048828125,-0.955078125,0.00039362471323934684,0.007576422996693451,15.313090528633499,0.025837234068366105,0,0,0.39564790429838376,0,0,0,0,0.126953125,,
0.8659699999997392,1000,,,,-0.0625,0.046875,-0.953125,0.00039362471323934684,0.007576422996693451,15.313353534535528,0.023432007350636205,0,0,0.3588226125841274,0,0,0,0,0.126953125,,
0.8735499999988824,1000,,,,-0.0625,0.048828125,-0.95703125,0.00039362471323934684,0.007576422996693451,15.313482343067703,0.020859555786693643,0,0,0.3194324392237688,0,0,0,0,0.126953125,,
0.8805049999998883,1000,,,,-0.0625,0.046875,-0.95703125,0.0004338694446664901,0.007576422996693451,15.313677008826344,0.018970314009282327,0,0,0.29050526149416306,0,0,0,0,0.125,,
0.888109999999404,1000,,,,-0.0625,0.05078125,-0.95703125,0.0004338694446664901,0.007576422996693451,15.31360225397295,0.017391091922555932,0,0,0.2663202644643033,0,0,0,0,0.125,,
0.896074999999255,1000,,,,-0.0625,0.05078125,-0.95703125,0.0004338694446664901,0.007576422996693451,15.313849453888704,0.014893687021267435,0,0,0.2280796808570256,0,0,0,0,0.123046875,,
0.9046149999992922,1000,,,,-0.0625,0.052734375,-0.95703125,0.0004338694446664901,0.007576422996693451,15.313959908868444,0.011279040988718583,0,0,0.17272678151172027,0,0,0,0,0.123046875,,
0.9144799999995157,1000,,,,-0.0625,0.0546875,-0.953125,0.0004338694446664901,0.007576422996693451,15.31405482003265,0.008776947202535815,0,0,0.13441065061216567,0,0,0,0,0.123046875,,
0.9331849999995903,1000,,,,-0.0625,0.072265625,-0.966796875,0.0004338694446664901,0.007576422996693451,15.313743400877382,0.022517150640802466,0,0,0.3448218670321507,0,0,0,0,0.123046875,,
0.9419399999994784,1000,,,,0,0.0234375,-0.9921875,0.0004338694446664901,0.007576422996693451,15.313656456404768,0.0309648143840906,0,0,0.47418452971430425,0,0,0,0,0.12109375,,
0.950679999999702,1000,,,,-0.03125,0.017578125,-1.015625,0.0004338694446664901,0.007520684021691796,15.313399671997734,0.03871917563436231,0,0,0.5929222114592664,0,0,0,0,0.12109375,,
0.9592199999997393,1000,,,,-0.0625,0.05078125,-0.98828125,0.0004338694446664901,0.007520684021691796,15.313234079476647,0.04364320506897451,0,0,0.6683186151998084,0,0,0,0,0.12109375,,
0.9667149999989196,1000,,,,0,0.009765625,-0.96484375,0.0004338694446664901,0.007520684021691796,15.31277574397865,0.04906269898058954,0,0,0.7512861068840976,0,0,0,0,0.119140625,,
0.9738199999993667,1000,,,,-0.0625,0.03125,-0.96484375,0.0004338694446664901,0.007520684021691796,15.312570058800455,0.05409376402657211,0,0,0.8283145514011052,0,0,0,0,0.119140625,,
0.9823349999990314,1000,,,,-0.03125,0.009765625,-0.96484375,0.0004338694446664901,0.007520684021691796,15.31244326923882,0.059607498289725905,0,0,0.9127364359826778,0,0,0,0,0.119140625,,
0.9910899999989197,1000,,,,-0.0625,0.09375,-1.05859375,0.0004338694446664901,0.007520684021691796,15.31227697238796,0.06528891967841406,0,0,0.9997220213438667,0,0,0,0,0.119140625,,
0.9981049999995157,1000,,,,0,0.046875,-0.986328125,0.0004338694446664901,0.007520684021691796,15.31208776836485,0.06935453459658668,0,0,1.0619627208770317,0,0,0,0,0.119140625,,
1.0062099999990315,1000,,,,-0.03125,0.01953125,-1.009765625,0.0004338694446664901,0.007520684021691796,15.311887320152604,0.07280721717662568,0,0,1.1148159055023716,0,0,0,0,0.1171875,,
1.014669999998994,1000,,,,-0.0625,0.0078125,-0.9140625,0.0004338694446664901,0.007520684021691796,15.31149724951826,0.07762338330837541,0,0,1.1885302200244916,0,0,0,0,0.1171875,,
1.0234949999991805,1000,,,,-0.0625,0.080078125,-0.974609375,0.0004338694446664901,0.007520684021691796,15.311451595334649,0.08319695797237382,0,0,1.273866194873093,0,0,0,0,0.1171875,,
1.031109999999404,1000,,,,-0.03125,0.052734375,-0.982421875,0.0005108556594749454,0.007520684021691796,15.311478618802358,0.08534470003136353,0,0,1.3067535497583236,0,0,0,0,0.115234375,,
1.0393649999992922,1000,,,,-0.0625,0.046875,-1.0625,0.0005108556594749454,0.007520684021691796,15.31130887587616,0.08768310852260751,0,0,1.342543157786613,0,0,0,0,0.115234375,,
1.0471849999986589,1000,,,,-0.0625,0.068359375,-0.96875,0.0005108556594749454,0.007520684021691796,15.310952651775992,0.09169453561114178,0,0,1.4039306931687794,0,0,0,0,0.115234375,,
1.0553449999997393,1000,,,,-0.0625,0.0703125,-0.97265625,0.0005108556594749454,0.007520684021691796,15.310938495033078,0.09450823646445526,0,0,1.4470097957813168,0,0,0,0,0.115234375,,
1.067554999999702,1000,,,,0,0.017578125,-0.958984375,0.0005108556594749454,0.007520684021691796,15.310776627702237,0.09795933356181218,0,0,1.4998334747634812,0,0,0,0,0.11328125,,
1.0775299999993295,1000,,,,-0.0625,0.0703125,-0.9765625,0.0005108556594749454,0.007520684021691796,15.310868335508804,0.10280280185521219,0,0,1.5740001637265542,0,0,0,0,0.11328125,,
1.087254999998957,1000,,,,-0.0625,0.064453125,-0.970703125,0.0005108556594749454,0.007520684021691796,15.310685032945507,0.1062783588387964,0,0,1.6271944779991718,0,0,0,0,0.11328125,,
1.096160000000149,1000,,,,-0.03125,0.03125,-0.98046875,0.0005108556594749454,0.007520684021691796,15.310647159321594,0.10885445448533886,0,0,1.666632144345455,0,0,0,0,0.111328125,,
1.1055299999993295,1000,,,,-0.0625,0.05078125,-0.9765625,0.0005108556594749454,0.007497181649126228,15.310721694228974,0.11199346445864085,0,0,1.714700765898774,0,0,0,0,0.111328125,,
1.1133899999987333,1000,,,,-0.00390625,0.06640625,-1.03515625,0.0005108556594749454,0.007497181649126228,15.310784208601424,0.11526087290480179,0,0,1.764734352740455,0,0,0,0,0.111328125,,
1.1214899999992922,1000,,,,-0.03125,0.044921875,-0.96484375,0.0005108556594749454,0.007497181649126228,15.310844283576253,0.11711743428782749,0,0,1.793166799272901,0,0,0,0,0.111328125,,
1.1292399999992921,1000,,,,-0.03125,0.01953125,-1.01171875,0.0005108556594749454,0.007497181649126228,15.31070575352733,0.11885557619678296,0,0,1.8197627543148907,0,0,0,0,0.109375,,
1.136589999999851,1000,,,,-0.0625,0.0234375,-0.94140625,0.0005108556594749454,0.007497181649126228,15.310640395692547,0.12150905943485597,0,0,1.8603815138259123,0,0,0,0,0.109375,,
1.1434099999992178,1000,,,,-0.0625,0.083984375,-1.021484375,0.0005108556594749454,0.007497181649126228,15.310526506753023,0.12398337614959072,0,0,1.8982507669350392,0,0,0,0,0.109375,,
1.1603549999995157,1000,,,,-0.03125,0.01953125,-0.998046875,0.0005108556594749454,0.007497181649126228,15.310269776049452,0.12691532443955644,0,0,1.9431078558844515,0,0,0,0,0.109375,,
1.1681949999993666,1000,,,,-0.0625,0.01953125,-0.955078125,0.0005108556594749454,0.007497181649126228,15.31016092782547,0.12815788391219662,0,0,1.962117826865305,0,0,0,0,0.109375,,
1.1761399999996647,1000,,,,-0.125,0.1171875,-0.96484375,0.0005108556594749454,0.007497181649126228,15.310153209470796,0.13059605474775499,0,0,1.9994456067405648,0,0,0,0,0.109375,,
1.1840349999992177,1000,,,,0,0.029296875,-0.974609375,0.0006084787480340058,0.007497181649126228,15.309955514506704,0.13227293717631866,0,0,2.0250927839425787,0,0,0,0,0.109375,,
1.1994549999991433,1000,,,,-0.0625,0.05859375,-0.974609375,0.0006084787480340058,0.007497181649126228,15.309895015023692,0.13378295560768572,0,0,2.048203005153243,0,0,0,0,0.107421875,,
1.2067599999997765,1000,,,,-0.03125,0.0625,-0.939453125,0.0006084787480340058,0.007497181649126228,15.31010565039717,0.13558086624244087,0,0,2.075757386344137,0,0,0,0,0.107421875,,
1.226234999999404,1000,,,,-0.0625,0.041015625,-0.97265625,0.0006084787480340058,0.007497181649126228,15.309720137013022,0.13951758236132183,0,0,2.1359751401445015,0,0,0,0,0.10546875,,
1.2347599999988452,1000,,,,-0.0625,0.087890625,-0.98046875,0.0006084787480340058,0.007497181649126228,15.309699096850432,0.14047787126249212,0,0,2.1506739387948466,0,0,0,0,0.10546875,,
1.2499950000001117,1000,,,,-0.03125,0.0234375,-0.978515625,0.0006084787480340058,0.007780507801685936,15.309849291392236,0.14209128992695197,0,0,2.1753962344011546,0,0,0,0,0.103515625,,
1.2583499999996275,1000,,,,-0.0625,0.044921875,-0.95703125,0.0006084787480340058,0.007780507801685936,15.309754599930763,0.14297425275941233,0,0,2.1889007238550766,0,0,0,0,0.103515625,,
1.2783499999996275,1000,,,,-0.01953125,0.04296875,-0.98828125,0.0006084787480340058,0.007780507801685936,15.309771623325869,0.14427336192128642,0,0,2.208792222344334,0,0,0,0,0.103515625,,undefined,0,
1.2871749999988824,1000,,,,0,0,-0.984375,0.0006084787480340058,0.007780507801685936,15.309749172076089,0.14515622622965357,0,0,2.222305414341128,0,0,0,0,0.1015625,,
1.3075899999989196,1180,,,,-0.0625,0.05078125,-0.986328125,0.0006084787480340058,0.007780507801685936,15.30954150564384,0.14658289817292214,0,0,2.2441169635959164,0,0,0,0,0.1015625,,
1.3268499999986962,1180,,,,-0.0625,0.0234375,-0.94140625,0.0006084787480340058,0.007780507801685936,15.309293164904627,0.14676124596092138,0,0,2.2468109396624207,0,0,0,0,0.1015625,,
1.3353749999990687,1180,,,,-0.041015625,0.0546875,-0.978515625,0.0006504907756629364,0.007780507801685936,15.309221081895398,0.14637318160569412,0,0,2.240859397661996,0,0,0,0,0.1015625,,
1.3432999999988824,1180,,,,0,0.015625,-1.05078125,0.0006504907756629364,0.007780507801685936,15.309291653653835,0.1466877906769672,0,0,2.2456861695038146,0,0,0,0,0.1015625,,
1.3513549999995158,1180,,,,-0.0625,0.052734375,-0.955078125,0.0006504907756629364,0.007780507801685936,15.309228566242739,0.1482599046642808,0,0,2.269744767714833,0,0,0,0,0.1015625,,
1.359144999999553,1180,,,,-0.125,0.12109375,-0.9609375,0.0006504907756629364,0.007780507801685936,15.309100662790822,0.1489210959412856,0,0,2.279848048578271,0,0,0,0,0.1015625,,
1.3705699999993668,1180,,,,0,0.03125,-0.978515625,0.0006504907756629364,0.007780507801685936,15.30904705297622,0.14911112449626374,0,0,2.2827492210354965,0,0,0,0,0.1015625,,
1.386509999998845,1180,,,,-0.0625,0.0859375,-0.962890625,0.0006504907756629364,0.007780507801685936,15.3089243560215,0.14909755275462128,0,0,2.282523156788422,0,0,0,0,0.099609375,,
1.394234999999404,1180,,,,0,0.05078125,-0.9140625,0.0006504907756629364,0.007780507801685936,15.30861363343795,0.14971321348430855,0,0,2.291901741051692,0,0,0,0,0.099609375,,
1.4012649999987334,1180,,,,-0.0625,0.013671875,-0.962890625,0.0006504907756629364,0.00801502574402841,15.308757604067502,0.1506755685704349,0,0,2.3066557560998397,0,0,0,0,0.099609375,,
1.4100599999995902,1180,,,,-0.0625,0.0390625,-0.96484375,0.0006504907756629364,0.00801502574402841,15.308914406395411,0.15172369566575283,0,0,2.3227250703689966,0,0,0,0,0.099609375,,
1.4190199999986217,1180,,,,-0.09375,0.115234375,-0.982421875,0.0006504907756629364,0.00801502574402841,15.308778003410236,0.1517902496300783,0,0,2.3237232346690915,0,0,0,0,0.099609375,,
1.4277399999992921,1180,,,,0,-0.017578125,-0.978515625,0.0006504907756629364,0.00801502574402841,15.30888160677131,0.1451848932041817,0,0,2.222618341154554,0,0,0,0,0.099609375,,
1.4355799999991432,1180,,,,-0.0625,0.046875,-0.94921875,0.0006504907756629364,0.00801502574402841,15.309152010555545,0.1376346809819884,0,0,2.1070702530775787,0,0,0,0,0.09765625,,
1.4448199999993667,1180,,,,0,0.00390625,-0.96875,0.0006504907756629364,0.00801502574402841,15.309510355067818,0.12956812588930144,0,0,1.9836245649889912,0,0,0,0,0.09765625,,
1.4531899999994784,1180,,,,-0.0625,0.046875,-0.955078125,0.0006504907756629364,0.00801502574402841,15.309793830038078,0.12130356493251292,0,0,1.8571325699654095,0,0,0,0,0.09765625,,
1.462125,1180,,,,-0.0625,0.05078125,-0.9609375,0.0006504907756629364,0.00801502574402841,15.309805173033277,0.11231016359527544,0,0,1.7194467235951616,0,0,0,0,0.09765625,,
1.4694449999993666,1180,,,,-0.0625,0.048828125,-0.953125,0.0006504907756629364,0.00801502574402841,15.310073590739602,0.10692363232704995,0,0,1.6370086795163186,0,0,0,0,0.095703125,,
1.4784699999997393,1180,,,,-0.0625,0.046875,-0.953125,0.0006819901187272556,0.00801502574402841,15.31039863332648,0.10015327726353464,0,0,1.5333865993387887,0,0,0,0,0.095703125,,
1.4865249999994412,1180,,,,-0.0625,0.046875,-0.953125,0.0006819901187272556,0.00801502574402841,15.31054322844742,0.0939827548675252,0,0,1.438927031127822,0,0,0,0,0.095703125,,
1.4944150000000374,1180,,,,-0.0625,0.048828125,-0.953125,0.0006819901187272556,0.00801502574402841,15.310614686178218,0.08824746332579027,0,0,1.351122908013818,0,0,0,0,0.095703125,,
1.5015699999993668,1180,,,,-0.0625,0.046875,-0.95703125,0.0006819901187272556,0.00801502574402841,15.310673464406044,0.08343778567709352,0,0,1.2774886910950745,0,0,0,0,0.09375,,
1.5096599999992177,1180,,,,-0.0625,0.05078125,-0.95703125,0.0006819901187272556,0.00801502574402841,15.310935693292194,0.07660246078555875,0,0,1.1728553510356272,0,0,0,0,0.09375,,
1.5211899999994785,1180,,,,-0.0625,0.048828125,-0.95703125,0.0006819901187272556,0.00801502574402841,15.310847644858764,0.07053347850734552,0,0,1.0799273432878875,0,0,0,0,0.09375,,
1.5293299999991432,1180,,,,-0.0625,0.052734375,-0.955078125,0.0006819901187272556,0.00801502574402841,15.311059260634016,0.06381954028799929,0,0,0.9771447633359771,0,0,0,0,0.09375,,
1.5367599999997765,1180,,,,-0.0625,0.046875,-0.953125,0.0006819901187272556,0.00801502574402841,15.311232024655274,0.05893734111628675,0,0,0.9024033047477217,0,0,0,0,0.091796875,,
1.5451499999994411,1180,,,,-0.0625,0.052734375,-0.95703125,0.0006819901187272556,0.00801502574402841,15.311526689640388,0.055088610223182316,0,0,0.8434907257274523,0,0,0,0,0.091796875,,
1.5532199999997391,1180,,,,-0.0625,0.048828125,-0.95703125,0.0006819901187272556,0.008305251873069413,15.311882156402053,0.0500882638982625,0,0,0.7669455942289627,0,0,0,0,0.091796875,,
1.5621899999994784,1180,,,,-0.0625,0.05078125,-0.95703125,0.0006819901187272556,0.008305251873069413,15.312089683019085,0.045863394658335443,0,0,0.7022644121761308,0,0,0,0,0.091796875,,
1.5706849999995902,1180,,,,-0.0625,0.05078125,-0.955078125,0.0006819901187272556,0.008305251873069413,15.312157548763945,0.041990614806482654,0,0,0.6429669094863225,0,0,0,0,0.091796875,,
1.5786299999998883,1180,,,,-0.0625,0.048828125,-0.95703125,0.0006819901187272556,0.008305251873069413,15.312247630717032,0.03913492689419307,0,0,0.599243691613892,0,0,0,0,0.08984375,,
1.586324999999255,1180,,,,-0.0625,0.046875,-0.95703125,0.0006819901187272556,0.008305251873069413,15.312235484895698,0.03576819262944078,0,0,0.5476909884111079,0,0,0,0,0.08984375,,
1.5945750000001864,1180,,,,-0.0625,0.05078125,-0.95703125,0.0006819901187272556,0.008305251873069413,15.312223942487734,0.03277784422525232,0,0,0.5019016911290418,0,0,0,0,0.08984375,,
1.6035750000001863,1180,,,,-0.0625,0.05078125,-0.955078125,0.0006819901187272556,0.008305251873069413,15.312431322003,0.029836566009802487,0,0,0.4568703679095097,0,0,0,0,0.08984375,,
1.6126699999989942,1180,,,,-0.0625,0.05078125,-0.95703125,0.0006819901187272556,0.008305251873069413,15.31262821550458,0.027641929942767374,0,0,0.4232705963726206,0,0,0,0,0.087890625,,
1.6203499999996274,1180,,,,-0.0625,0.046875,-0.953125,0.0006819901187272556,0.008305251873069413,15.31272659297989,0.025097890705395337,0,0,0.38431713843221,0,0,0,0,0.087890625,,
1.6287449999991805,1180,,,,-0.0625,0.05078125,-0.955078125,0.0006978981004618007,0.008305251873069413,15.312789440063813,0.022405331177291585,0,0,0.3430881186527631,0,0,0,0,0.087890625,,
1.6374999999990687,1180,,,,-0.1875,0.134765625,-0.826171875,0.0006978981004618007,0.008305251873069413,15.311265720538438,0.019767061688860665,0,0,0.30265873403242094,0,0,0,0,0.08984375,,
1.645189999998547,1180,,,,0.4375,0.12890625,-1.0546875,0.0006978981004618007,0.008305251873069413,15.307882016397697,0.12826871489908837,0,0,1.963522354070198,0,0,0,0,0.09375,,
1.6545599999995901,1180,,,,-0.15625,0.193359375,-0.958984375,0.0006978981004618007,0.008305251873069413,15.305905880764865,0.18174529218134278,0,0,2.781776336399743,0,0,0,0,0.09765625,,
1.674879999998957,1180,,,,-0.0625,0.08984375,-1.04296875,0.0006978981004618007,0.008305251873069413,15.302150843713669,0.31056783236513824,1,0,4.752355818056525,0.00004216052596964997,0.0008871500279811014,0,0.001747607332244294,0.10546875,,
1.6943899999996648,1180,,,,0.03125,0.041015625,-0.96484375,0.0006978981004618007,0.008305251873069413,15.302036559639978,0.3298048587896163,2225,0,5.046686006745609,0.16257674022991006,3.2214554266424202,0.05108511747328942,0.001645684289049937,0.111328125,,
1.7025599999995902,1180,,,,-0.03125,0.005859375,-1.013671875,0.0006978981004618007,0.008652990546417083,15.30203479231712,0.33395135458244024,2495,0,5.110135246761931,0.1823651368601769,3.5686949181185312,0.04744871029297397,0.0016932997129381466,0.111328125,,
1.7107099999990314,1180,,,,-0.03125,0.0546875,-0.98046875,0.0006978981004618007,0.008652990546417083,15.301934752821374,0.335289457829318,2767,0,5.130577407013078,0.20223100863775187,3.941681268882498,0.04278765459710895,0.0016865529666483844,0.111328125,,
1.7187599999997765,1180,,,,-0.125,0.03515625,-0.9140625,0.0006978981004618007,0.008652990546417083,15.301313404950271,0.3594655872693505,2919,0,5.500295609102834,0.21332505998118814,3.878428999854865,0.04056246625305127,0.001573186454214684,0.111328125,,
1.7273849999997766,1180,,,,-0.09375,0.134765625,-1.009765625,0.0006978981004618007,0.008652990546417083,15.299748854625573,0.40955451371869694,3067,0,6.266081202174367,0.22416961634997298,3.577508958425001,0.0386001934040341,0.0013809253769986964,0.111328125,,
1.735464999999851,1180,,,,-0.03125,0.033203125,-0.998046875,0.0006978981004618007,0.008652990546417083,15.29886829413753,0.44409996839912813,3469,0,6.7942269259689,0.2535244885617565,3.731469250647708,0.03413078789944698,0.0012735798554716527,0.111328125,,
1.743859999999404,1180,,,,0.0625,-0.109375,-0.98046875,0.0006978981004618007,0.008652990546417083,15.298340851042216,0.4688286849919431,3764,0,7.172301023752645,0.27512091399225147,3.835880745678804,0.03145159130527164,0.0012064455350885037,0.111328125,,
1.751824999999255,1180,,,,-0.09375,0.140625,-1.001953125,0.0006978981004618007,0.008652990546417083,15.297773252550572,0.48816784066915375,4064,0,7.46788093574395,0.29702773690956413,3.9774032214129598,0.029131927665905673,0.0011586942294434255,0.11328125,,
1.7596849999995903,1180,,,,-0.03125,-0.029296875,-0.9921875,0.0006978981004618007,0.008652990546417083,15.297488602575012,0.49603024135484475,4287,0,7.58801696365827,0.31334376962515664,4.1294553125786635,0.027615007494064377,0.0011403493940326376,0.11328125,,
1.7675149999996647,1180,,,,-0.0625,-0.06640625,-0.94140625,0.0006978981004618007,0.008652990546417083,15.297350824759542,0.49855916475272355,4427,0,7.626634450121504,0.3235651326639557,4.242567737841439,0.026742654485592546,0.0011345752314481556,0.11328125,,
1.776394999999553,1180,,,,-0.0625,0.064453125,-1.01953125,0.0006978981004618007,0.008652990546417083,15.297604077100862,0.49710347315112524,4539,0,7.604492117617653,0.33173565444708997,4.362364367221103,0.02608399317474386,0.0011378788238034106,0.11328125,,
1.7848449999997393,1180,,,,-0.0625,-0.1015625,-0.98828125,0.0008945249693649081,0.008652990546417083,15.2979244741183,0.4947506316023066,4612,0,7.5686577957744126,0.4320376016418585,5.708245943991092,0.02002832742690313,0.0011432661879954534,0.11328125,,
1.7937699999986216,1180,,,,-0.01953125,-0.04296875,-0.97265625,0.0008945249693649081,0.008652990546417083,15.29803713976915,0.49032823030726713,4653,0,7.501059477917854,0.4358945132611199,5.811105945024656,0.01985111141152071,0.001153569115388348,0.11328125,,
1.8018299999991432,1180,,,,0,0.0078125,-1.015625,0.0008945249693649081,0.008652990546417083,15.298134058016391,0.4897363787895145,4686,0,7.492052775809488,0.4389795295689144,5.859269050884179,0.019711603761830242,0.001154955898649841,0.11328125,,
1.8107649999996647,1180,,,,-0.09375,0.111328125,-0.95703125,0.0008945249693649081,0.008652990546417083,15.298383702324715,0.48397464547565794,4701,0,7.404029828683187,0.4403839988329003,5.947896065016569,0.019648739666629854,0.0011686866134568267,0.11328125,,
1.818684999998659,1180,,,,0.0625,0.0390625,-0.98828125,0.0008945249693649081,0.008652990546417083,15.298397470812139,0.48086116538670376,4708,0,7.3564052363637265,0.4410106520717382,5.994920588275394,0.019620819827747656,0.0011762525674420647,0.11328125,,
1.8292999999988824,1180,,,,-0.125,0.11328125,-0.96484375,0.0008945249693649081,0.008652990546417083,15.29857548901358,0.4759153035656123,4711,0,7.280826197975333,0.4412628783601653,6.060615462608798,0.01960960454814054,0.0011884627254010436,0.11328125,,
1.848309999998659,1180,,,,-0.0625,0.111328125,-0.962890625,0.0008945249693649081,0.013613732305417386,15.298591029602049,0.4669850806160477,4719,0,7.144213765270657,0.44209460205253914,6.188149131282195,0.030793708500877627,0.00190556060508663,0.115234375,,
1.856824999999255,1180,,,,0,-0.01953125,-0.953125,0.0008945249693649081,0.013613732305417386,15.298759587558674,0.4640064100747665,4715,0,7.0987225148200155,0.44164834821315035,6.2215186928510064,0.03082482332492969,0.0019177721451987977,0.115234375,,
1.8647849999992177,1180,,,,-0.0625,-0.017578125,-0.99609375,0.0008945249693649081,0.013613732305417386,15.29875508584156,0.45991507288217515,4720,0,7.036128060311369,0.4421814582968856,6.284443013354106,0.030787659794357485,0.0019348329349217301,0.115234375,,
1.8728899999996647,1180,,,,-0.0625,0.06640625,-0.9921875,0.0008945249693649081,0.013613732305417386,15.29881604731193,0.45890543092376646,4719,0,7.020709770815115,0.44207720945462337,6.296759499905913,0.030794920014565363,0.0019390820515055717,0.115234375,,
1.8815349999992177,1180,,,,0,-0.03125,-0.97265625,0.0008945249693649081,0.013613732305417386,15.298939553633682,0.45655925214128557,4725,0,6.984872401161727,0.4425879484544266,6.336378433782343,0.03075938319820562,0.0019490309233355706,0.115234375,,
1.8890049999998881,1180,,,,-0.0625,0.083984375,-0.951171875,0.0008945249693649081,0.013613732305417386,15.298996623963992,0.45691385701709375,4739,0,6.990323555946883,0.4439206276113595,6.350501862445301,0.03066704149043473,0.001947511041006931,0.1171875,,
1.8964249999998137,1180,,,,-0.03125,-0.017578125,-0.9609375,0.0008945249693649081,0.013613732305417386,15.299128225486418,0.4547169632086867,4748,0,6.956773126433488,0.4447481641898051,6.393023836006753,0.03060997976285621,0.0019569033024362413,0.1171875,,
1.904484999999404,1180,,,,0.0625,0,-1.04296875,0.0008945249693649081,0.013613732305417386,15.299368938614824,0.45191562932432816,4753,0,6.914023942159197,0.44518982959367687,6.438939658265739,0.030579612112528694,0.0019690027716574438,0.1171875,,
1.9131699999999254,1180,,,,-0.09375,0.056640625,-0.97265625,0.0008945249693649081,0.013613732305417386,15.29959582447946,0.4468319832193629,4754,0,6.836348744706841,0.44536225286904524,6.514621613092435,0.03056777312786852,0.001991374754829184,0.1171875,,
1.9206549999993294,1180,,,,0.0625,-0.203125,-0.98828125,0.0008945249693649081,0.013613732305417386,15.299747438078244,0.4433540023735122,4741,0,6.783204261975879,0.4441158048935036,6.547286322823148,0.030653564127675843,0.0020069766115891436,0.119140625,,
1.928914999999106,1180,,,,-0.0625,0.1015625,-0.98046875,0.0017492126248602395,0.013613732305417386,15.299759842688626,0.44283670715851964,4737,0,6.775295269052382,0.8677325409676188,12.807302213545935,0.0156888576406695,0.0020093194118935356,0.119140625,,
1.937964999999851,1180,,,,-0.09375,0.09375,-0.94921875,0.0017492126248602395,0.013613732305417386,15.300211329293388,0.44175001169089345,4735,0,6.758868533588495,0.867267001866593,12.831541219609043,0.015697279241706365,0.0020142028562566863,0.1171875,,
1.9467649999996648,1180,,,,-0.0625,-0.041015625,-0.943359375,0.0017492126248602395,0.013613732305417386,15.300272858229288,0.4381665886263676,4729,0,6.70406836334293,0.8662830504115773,12.92175144197981,0.015715108703730732,0.0020306672855330203,0.119140625,,
1.9539949999991804,1180,,,,0.0625,-0.0546875,-1.00390625,0.0017492126248602395,0.013613732305417386,15.300131176654194,0.4362312822507094,4734,0,6.674395841795914,0.8671004820520062,12.991445257443571,0.01570029378048584,0.0020396950717496355,0.119140625,,
1.9609299999987706,1180,,,,-0.09375,0.142578125,-0.96484375,0.0017492126248602395,0.013613732305417386,15.300125597996358,0.43580306801142765,4735,0,6.667841676566992,0.8672625943755401,13.0066464748764,0.01569735901641158,0.00204169999315679,0.119140625,,
1.9697299999995157,1180,,,,0,0.0078125,-1.01171875,0.0017492126248602395,0.013613732305417386,15.300185168872847,0.4353329088737171,4738,0,6.660674115871921,0.8678446549533102,13.029381709057,0.015686830848949344,0.002043897069363717,0.119140625,,
1.9805799999991431,1180,,,,0,-0.00390625,-0.970703125,0.0017492126248602395,0.013613732305417386,15.300176028443484,0.4326168950476851,4741,0,6.619114647108242,0.8684252217591193,13.119960418551093,0.015676343759156174,0.0020567300962772944,0.119140625,,
1.989160000000149,1180,,,,-0.09375,0.095703125,-0.970703125,0.0017492126248602395,0.013613732305417386,15.300231740184087,0.4324074642851675,4738,0,6.615934409748437,0.8678773307918306,13.11798571510975,0.015686240235122332,0.0020577187532811454,0.119140625,,
1.9971849999995903,1180,,,,-0.03125,0.052734375,-0.955078125,0.0017492126248602395,0.024450557016423968,15.300220396684088,0.4353075279000209,4735,0,6.660301117206028,0.8673487506844896,13.022665723683366,0.0281899950822875,0.0036710888270890803,0.119140625,,
2.0057099999990315,1180,,,,-0.125,0.1171875,-1.078125,0.0017492126248602395,0.024450557016423968,15.300136999334661,0.4337721639152996,4734,0,6.636773534401935,0.8671716561973432,13.066163124330373,0.02819575206556305,0.0036841029590182184,0.119140625,,
2.013535000000149,1180,,,,0,-0.037109375,-0.95703125,0.0017492126248602395,0.024450557016423968,15.300326493888514,0.43180715430432304,4729,0,6.60679044325304,0.8663010933342439,13.112283502482274,0.028224086526680903,0.0037008222413643026,0.12109375,,
2.021719999999739,1180,,,,-0.0625,0.068359375,-0.966796875,0.0017492126248602395,0.024450557016423968,15.30040931621667,0.4299225917301864,4720,0,6.57799162776056,0.8645643322286954,13.14328720912391,0.02828078386416279,0.003717024648258487,0.12109375,,
2.03030999999959,1180,,,,0,0.115234375,-0.984375,0.0017492126248602395,0.024450557016423968,15.300322821078542,0.4266146170474858,4726,0,6.52734136101733,0.8657411045347475,13.26330364312088,0.028242342760846254,0.0037458676763020074,0.12109375,,
2.038044999998994,1180,,,,-0.1875,0.09765625,-0.921875,0.0017492126248602395,0.024450557016423968,15.300306979095412,0.4283030369425739,4716,0,6.553167945300223,0.8638891865182994,13.182771962037998,0.02830288583072343,0.003731104897740234,0.12109375,,
2.0468899999996646,1180,,,,0.0625,-0.0859375,-1.005859375,0.0017492126248602395,0.024450557016423968,15.300217227493073,0.4348420289688727,4712,0,6.653177502867588,0.8631192498419321,12.973038062939382,0.028328133129809974,0.003675019493450389,0.12109375,,
2.055054999999702,1180,,,,-0.125,0.06640625,-0.9609375,0.0017492126248602395,0.024450557016423968,15.300272082620614,0.43633946514285016,4730,0,6.676112537070761,0.8664160750900626,12.977853058633654,0.028220340918631237,0.0036623943770654286,0.12109375,,
2.0624449999993666,1180,,,,-0.09375,-0.01171875,-0.9375,0.0017492126248602395,0.024450557016423968,15.300258786943509,0.42977450112262217,4753,0,6.5756610872056624,0.8705542102623994,13.239037090221187,0.028086196963029064,0.0037183420331679943,0.12109375,,
2.069944999999367,1180,,,,0.03125,0.0390625,-0.9921875,0.0017492126248602395,0.024450557016423968,15.300420229128914,0.427377415062625,4758,0,6.539054046897012,0.871597438391703,13.329105894227983,0.028052580169970264,0.0037391581169185367,0.123046875,,
2.079004999998957,1180,,,,-0.1875,0.17578125,-0.93359375,0.003257751544746289,0.024450557016423968,15.300506225338848,0.4248372344517982,4757,0,6.500224750485478,1.6226930888221847,24.963645890874645,0.01506788756595442,0.0037614940951999918,0.123046875,,
2.0881149999992923,1180,,,,-0.03125,-0.013671875,-0.966796875,0.003257751544746289,0.024450557016423968,15.300402674983824,0.4278525949335724,4749,0,6.5463169880204015,1.6201532996260157,24.74908108774531,0.015091508329531505,0.00373500963383959,0.123046875,,
2.0970299999993296,1180,,,,0.0625,-0.046875,-1.01953125,0.003257751544746289,0.024450557016423968,15.300308404107138,0.4262328028736209,4742,0,6.521493335913403,1.6179030078953176,24.80878112664227,0.015112498646152453,0.003749226711890738,0.123046875,,
2.105074999999255,1180,,,,-0.03125,0.080078125,-0.98828125,0.003257751544746289,0.024450557016423968,15.300293353556981,0.4233638849936201,4740,0,6.477591635703948,1.6169927922576746,24.962870202328663,0.01512100556879147,0.003774636993424304,0.125,,
2.1129049999993295,1180,,,,-0.125,0.015625,-0.92578125,0.003257751544746289,0.024450557016423968,15.300409557385857,0.4219128709813548,4733,0,6.455439723547228,1.614763031953467,25.013989768402077,0.015141885547655122,0.0037875897016336054,0.125,,
2.12143499999959,1180,,,,0,-0.052734375,-0.998046875,0.003257751544746289,0.024450557016423968,15.30038974985276,0.42201799966058223,4742,0,6.457039876260138,1.6176037302506108,25.051784738048,0.015115294654170903,0.0037866510792845713,0.125,,
2.131414999999106,1180,,,,-0.0625,0.115234375,-1.025390625,0.003257751544746289,0.024450557016423968,15.300296079130383,0.4195319051505678,4740,0,6.418962363445333,1.616978650050563,25.1906547896109,0.01512113781815202,0.0038091136280319774,0.125,,
2.139774999999441,1180,,,,-0.125,0.1171875,-0.890625,0.003257751544746289,0.024450557016423968,15.300442890862103,0.41739655493512595,4722,0,6.386352151627481,1.6109584463795517,25.225017476823908,0.015177645997867823,0.0038285638555326227,0.125,,
2.1482549999998883,1180,,,,-0.0625,0.095703125,-0.95703125,0.003257751544746289,0.029242906818377063,15.300016021003714,0.41488331175676296,4727,0,6.3477213167255515,1.6126883168859942,25.405783216045368,0.018133018334778653,0.004606835328659625,0.125,,
2.157094999998808,1180,,,,0.03125,-0.0390625,-0.947265625,0.003257751544746289,0.029242906818377063,15.299871692698066,0.4128084528923139,4731,0,6.315916362913596,1.6138278721386943,25.551761287006965,0.01812021425780896,0.004630033891849546,0.125,,
2.165149999999441,1180,,,,-0.09375,0.1171875,-0.966796875,0.003257751544746289,0.029242906818377063,15.299878056840571,0.4118692825873156,4720,0,6.301549798944338,1.6103502246139116,25.554828192957935,0.0181593459431399,0.004640589656734278,0.125,,
2.1730649999994784,1180,,,,0.0625,0.046875,-0.94140625,0.003257751544746289,0.029242906818377063,15.299949087784002,0.4109833347596718,4726,0,6.288024097750668,1.6124155090719026,25.642642012912937,0.018136086296521123,0.004650571684169872,0.125,,
2.180979999999516,1180,,,,-0.125,0.099609375,-0.962890625,0.003257751544746289,0.029242906818377063,15.299951639236163,0.4107746614446428,4721,0,6.284832454726643,1.6106584392251382,25.627706877274157,0.018155870981836072,0.004652933396241026,0.125,,
2.1891849999995903,1180,,,,-0.03125,-0.064453125,-0.974609375,0.003257751544746289,0.029242906818377063,15.299954014542449,0.4099395540851879,4721,0,6.272056326245412,1.610608835147563,25.679119436602825,0.018156430152513007,0.0046624113842871845,0.125,,
2.196179999999702,1180,,,,0,0.12109375,-1.02734375,0.003257751544746289,0.029242906818377063,15.299956228115077,0.4107217772428806,4723,0,6.284025213749705,1.611226270403104,25.64003509848552,0.018149472458055777,0.0046535311084354635,0.125,,
2.204109999999404,1180,,,,-0.09375,0.1015625,-0.974609375,0.003257751544746289,0.029242906818377063,15.299780265096846,0.4148890612612939,4716,0,6.347711471690101,1.6090204058297215,25.348039415555135,0.018174354229707493,0.004606842473668866,0.126953125,,
2.2120599999995902,1180,,,,-0.0625,0.046875,-0.98828125,0.003257751544746289,0.029242906818377063,15.29959523217983,0.41417073664903303,4717,0,6.336644627743953,1.609317678699392,25.397000672142163,0.018170997066291106,0.004614888247060884,0.126953125,,
2.2234849999994037,1180,,,,0.0625,-0.12890625,-1.03515625,0.003257751544746289,0.029242906818377063,15.29954379400409,0.41833207573045883,4726,0,6.400289913074791,1.6121852680646105,25.189253767570253,0.01813867636533019,0.004568997219741309,0.126953125,,
2.2396749999998136,1180,,,,-0.125,-0.0078125,-0.87890625,0.0029446459040761326,0.029242906818377063,15.300174459807591,0.42240939363116214,4761,0,6.462937416018319,1.4679931944562992,22.71402459844179,0.01992032860152854,0.004524708338641628,0.12890625,,
2.247254999998957,1180,,,,0,0.1015625,-1,0.0029446459040761326,0.029242906818377063,15.30038568661432,0.41818929749916467,4767,0,6.398457541751516,1.470076646603163,22.975484904143688,0.01989209670526178,0.0045703056756350845,0.126953125,,
2.2544699999997393,1180,,,,-0.0625,0.16796875,-0.9921875,0.0029446459040761326,0.029242906818377063,15.300542197091646,0.4151563293320088,4761,0,6.352116935334077,1.46802081402748,23.110733460549433,0.019919953817378003,0.004603647432198773,0.126953125,,
2.2629550000000744,1180,,,,-0.03125,0.029296875,-0.990234375,0.0029446459040761326,0.029242906818377063,15.30084149374786,0.41304772598896394,4744,0,6.319977784710136,1.4627567348536035,23.144966401502824,0.019991640524768303,0.004627058482566847,0.126953125,,
2.271094999999739,1180,,,,0.0625,0.0078125,-0.98828125,0.0029446459040761326,0.029242906818377063,15.300931862412062,0.41273503852416904,4737,0,6.315230701688328,1.4606621931897317,23.12919768392998,0.020020307881398403,0.004630536586820051,0.126953125,,
2.278679999998771,1180,,,,-0.09375,0.064453125,-0.966796875,0.0029446459040761326,0.029242906818377063,15.300886384071148,0.41514398078987674,4731,0,6.3520708830969195,1.458810556307265,22.965904870318916,0.020045719227862316,0.0046036808084420865,0.12890625,,
2.2891049999995157,1180,,,,-0.03125,0.046875,-0.978515625,0.0029446459040761326,0.029242906818377063,15.300935007073221,0.41420874479739167,4726,0,6.337781083506268,1.4572709720689039,22.993393947628967,0.02006689722012412,0.004614060730888945,0.12890625,,
2.3119900000002236,1180,,,,-0.041015625,0.015625,-0.978515625,0.0029446459040761326,0.0311262458898929,15.300794669350687,0.4188539383819453,4722,0,6.40879810763101,1.4559728133442509,22.718344202645607,0.021378315312357,0.004856799257388154,0.12890625,,
2.320094999999739,1180,,,,-0.125,0.1796875,-0.98828125,0.0029446459040761326,0.0311262458898929,15.300888248516701,0.4162991004252741,4728,0,6.369746013565151,1.457882901740013,22.887614335568067,0.021350305880357804,0.004886575669360405,0.12890625,,
2.3276899999994787,1180,,,,-0.09375,0.06640625,-0.95703125,0.0029446459040761326,0.0311262458898929,15.30103866844889,0.4155218397739434,4729,0,6.357915737966132,1.4583551235875438,22.937628991825314,0.02134339255676117,0.004895668198938736,0.12890625,,
2.3362999999998135,1180,,,,0.0625,-0.07421875,-1,0.0029446459040761326,0.0311262458898929,15.3011203058165,0.414210921497318,4726,0,6.337891141813576,1.4573655350589116,22.99448669044021,0.021357885267016877,0.004911136085083687,0.12890625,,
2.344144999999553,1180,,,,-0.1875,0.15625,-0.953125,0.0029446459040761326,0.0311262458898929,15.301002670602276,0.41218760900950563,4724,0,6.306883706243613,1.4566067522132433,23.095506751951827,0.021369011123007688,0.0049352814067395775,0.12890625,,
2.351484999999404,1180,,,,-0.03125,0.0234375,-0.951171875,0.0029446459040761326,0.0311262458898929,15.301146664984795,0.410986516592508,4727,0,6.288564967713172,1.4575854478233568,23.178347608825067,0.021354662902524434,0.004949657998239925,0.12890625,,
2.3593499999996275,1180,,,,-0.0625,0.1328125,-1.03515625,0.0029446459040761326,0.0311262458898929,15.301023176243802,0.41142293552884124,4730,0,6.295191871765059,1.458640250887223,23.17070361952679,0.0213392204630033,0.004944447528199908,0.12890625,,
2.3676549999993295,1180,,,,0,-0.087890625,-0.958984375,0.0029446459040761326,0.0311262458898929,15.301365367406515,0.4118311539019025,4731,0,6.301578955533634,1.458917645868686,23.15162050913542,0.02133516307656923,0.004939435990492489,0.130859375,,
2.376875,1180,,,,-0.0625,0.12109375,-0.984375,0.0029446459040761326,0.0311262458898929,15.30140070094375,0.41624971877514194,4731,0,6.369203738633596,1.4587572465186824,22.90329068405078,0.02133750900924437,0.0048869917131227625,0.130859375,,
2.3847549999998883,1180,,,,-0.0625,0.125,-0.94921875,0.0028545242991910346,0.0311262458898929,15.301269207502516,0.4168360259814928,4733,0,6.378120248928334,1.4148093299529314,22.182230417977003,0.02200031144191594,0.004880159776718352,0.12890625,,
2.392944999999367,1180,,,,-0.0625,0.025390625,-0.966796875,0.0028545242991910346,0.0311262458898929,15.301405702319355,0.4139452172414872,4733,0,6.333943707546717,1.4147121786990495,22.33540814411501,0.022001822249467153,0.004914196798561195,0.12890625,,
2.400929999999702,1180,,,,0.03125,-0.005859375,-0.92578125,0.0028545242991910346,0.0311262458898929,15.300744298697905,0.4331725778930906,4733,0,6.62786285154998,1.4146746851828815,21.344356648116943,0.022002405369874183,0.00469627187331038,0.12890625,,
2.409269999999553,1180,,,,-0.1875,0.24609375,-0.99609375,0.0028545242991910346,0.0311262458898929,15.300317840753246,0.4436316402998296,4772,0,6.78770510080211,1.4265170666499887,21.016190972725315,0.02181975008752563,0.004585680348165786,0.130859375,,
2.418269999999553,1180,,,,-0.03125,0.033203125,-0.978515625,0.0028545242991910346,0.0311262458898929,15.300373210726299,0.43416559540733746,4838,0,6.642895644989459,1.446079389971147,21.768810880867626,0.021524576109555056,0.004685644266197454,0.130859375,,
2.426259999998845,1180,,,,-0.03125,0,-1.005859375,0.0028545242991910346,0.0311262458898929,15.30055187886623,0.4223930096905893,4872,0,6.462846158041308,1.4564206431780298,22.53528256070119,0.021371741766837957,0.004816182395300327,0.130859375,,
2.434139999998733,1180,,,,-0.1875,0.21484375,-0.89453125,0.0028545242991910346,0.0311262458898929,15.300720717600313,0.4150394513664109,4842,0,6.350402732143511,1.4473283543291313,22.791127041490817,0.021506001590302984,0.004901460143990988,0.130859375,,
2.4451899999994784,1180,,,,-0.03125,-0.02734375,-1.009765625,0.0028545242991910346,0.0311262458898929,15.300485842636945,0.41365391415160563,4811,0,6.329105857228,1.4382156529185968,22.723836278960604,0.02164226611407535,0.004917953118819452,0.130859375,,
2.453969999998808,1180,,,,-0.03125,0.0703125,-0.982421875,0.0028545242991910346,0.03199023368487733,15.300379548027436,0.41455597185292076,4776,0,6.342863713251067,1.4277703397111232,22.509869425829304,0.02240572786471375,0.005043500086253717,0.1328125,,
2.4618599999994037,1180,,,,-0.03125,0.001953125,-1.03125,0.0028545242991910346,0.03199023368487733,15.300548811823324,0.4187545415120312,4762,0,6.40717430257753,1.4233624736080523,22.215135821035034,0.02247511387860742,0.004992877074064934,0.1328125,,
2.471524999999441,1180,,,,-0.09375,0.138671875,-0.955078125,0.0028545242991910346,0.03199023368487733,15.300179836279,0.4147325237218831,4747,0,6.345482196898657,1.4190252704669601,22.36276497884599,0.02254380831029899,0.005041418869713715,0.134765625,,
2.4797649999996647,1180,,,,-0.0625,0.076171875,-0.97265625,0.0028545242991910346,0.03199023368487733,15.300236527411721,0.41220665176592064,4738,0,6.306859270191023,1.4163737132081866,22.457671124874924,0.022586012001322157,0.00507229229548171,0.134765625,,
2.48821499999892,1180,,,,0.0625,-0.0625,-1.03125,0.0028545242991910346,0.03199023368487733,15.300291090167553,0.41020858045514275,4735,0,6.276310688648101,1.4153232424388513,22.550241896066936,0.022602775624423803,0.0050969805785328216,0.134765625,,
2.4970099999997766,1180,,,,-0.03125,-0.04296875,-0.9765625,0.0028545242991910346,0.03199023368487733,15.300375765644755,0.41229164920923755,4725,0,6.308217157938727,1.4123896178920037,22.3896797229713,0.022649723050657128,0.005071200449182136,0.134765625,,
2.50639999999851,1180,,,,-0.09375,0.1171875,-0.96484375,0.0028545242991910346,0.03199023368487733,15.300032443303271,0.41221794140026846,4723,0,6.306947877135794,1.4119579327830654,22.387341076683906,0.02265664786614598,0.005072221034337327,0.134765625,,
2.5133049999987707,1180,,,,0,0.025390625,-0.96484375,0.0028545242991910346,0.03199023368487733,15.299966623017227,0.4106959234581607,4720,0,6.283633921119097,1.4108346656536344,22.452528001541644,0.022674686455947248,0.005091040325783326,0.134765625,,
2.5202499999990686,1180,,,,-0.125,0.14453125,-0.95703125,0.0028545242991910346,0.03199023368487733,15.29996809990758,0.4137291471679254,4715,0,6.330042753671227,1.4094851323181448,22.266597354349422,0.02269639668512416,0.005053715263822506,0.134765625,,
2.5279299999987708,1180,,,,0.125,-0.09765625,-1.05859375,0.0028545242991910346,0.03199023368487733,15.300058123935896,0.41399562317133554,4713,0,6.3341570975764965,1.4088811795023135,22.242599256677163,0.02270612607386654,0.005050432629326019,0.13671875,,
2.5363699999991804,1180,,,,-0.03125,0.07421875,-0.98828125,0.002817888636638867,0.03199023368487733,15.300055307385305,0.41427972960583376,4724,0,6.338502775697886,1.3938873693880092,21.990798437956645,0.022950372022470328,0.005046970052222643,0.134765625,,
2.5452999999998136,1180,,,,-0.09375,0.150390625,-0.990234375,0.002817888636638867,0.03199023368487733,15.30005231550384,0.41174787913530075,4717,0,6.299764091567854,1.3920238833322265,22.096444614417084,0.022981095416480295,0.005078005020488911,0.13671875,,
2.5541199999991804,1180,,,,-0.0625,0.009765625,-0.98046875,0.002817888636638867,0.03199023368487733,15.299976303291569,0.41075721859737174,4727,0,6.2845757109457425,1.394891382726785,22.195474235393895,0.022933852829703227,0.005090277395999934,0.134765625,,
2.562214999999851,1180,,,,0.0625,-0.0625,-1.046875,0.002817888636638867,0.03199023368487733,15.299977489059621,0.4107725445438474,4718,0,6.284810684644605,1.3921268949162002,22.150657589695122,0.022979394911268484,0.005090087082978908,0.13671875,,
2.570144999999553,1180,,,,-0.0625,0.013671875,-0.966796875,0.002817888636638867,0.03199023368487733,15.299978644947924,0.40866478061361744,4724,0,6.252562416330675,1.3940221183971981,22.295213155429515,0.022948153592898993,0.005116339758772187,0.13671875,,0.08272000000067055,34104,
2.5885499999988824,1180,,,,-0.03125,0.095703125,-0.966796875,0.002817888636638867,0.03199023368487733,15.300137718989989,0.410665722703763,4714,0,6.283242113836128,1.3910916077660263,22.13971040050721,0.022996496784457567,0.005091357790340858,0.13671875,,
2.611949999999255,1450,,,,-0.09375,0.06640625,-1.013671875,0.002817888636638867,0.032218721362667575,15.300184218962086,0.40866234468325036,4710,0,6.252609157006711,1.3898878574175983,22.228925917432115,0.023180806415943316,0.00515284428526339,0.13671875,,
2.6216649999991057,1450,,,,-0.0625,0.09765625,-0.93359375,0.002817888636638867,0.032218721362667575,15.300013456641521,0.40932603408710205,4712,0,6.262693829686367,1.3904713270846165,22.202447778837858,0.023171079284475544,0.005144546777928799,0.13671875,,
2.629394999999553,1450,,,,-0.0625,0.041015625,-0.990234375,0.002817888636638867,0.032218721362667575,15.300144067426096,0.40855713483986983,4711,0,6.250983022824838,1.3903072563670684,22.241417890442207,0.023173813712845357,0.005154184749026536,0.13671875,,
2.6383649999992924,1450,,,,0,-0.333984375,-0.765625,0.002817888636638867,0.032218721362667575,15.265513449571047,1.0199139676922833,4776,0,15.56951039121192,1.4092059599215523,9.051061494630986,0.02286303228838255,0.0020693471119588424,0.138671875,,
2.647039999999106,1450,,,,-0.15625,-0.205078125,-1.21484375,0.002817888636638867,0.032218721362667575,15.230064877573282,2.263562208113521,5528,0,34.47419928399196,1.6312216279649419,4.731717231565686,0.019751283829446638,0.0009345749004133735,0.146484375,,
2.655484999999404,1450,,,,0.375,-0.015625,-0.84765625,0.002817888636638867,0.032218721362667575,15.211361567262852,2.826012034503768,7197,0,42.98749085027291,2.1236817374377033,4.94023190335665,0.015171162794638237,0.0007494906244908926,0.150390625,,
2.663125,1450,,,,-0.21875,0.06640625,-1.0703125,0.002817888636638867,0.032218721362667575,15.200413051268713,3.181423453807964,8869,0,48.35895058887496,2.6170662297829894,5.411751491532674,0.012311007263021843,0.0006662411191792804,0.15234375,,
2.671370000000112,1450,,,,0.03125,-0.017578125,-0.8828125,0.002817888636638867,0.032218721362667575,15.194359833518162,3.3895054254298898,10093,0,51.501365091643805,2.9782157160891214,5.782789855743731,0.010818128850980602,0.0006255896577757921,0.15234375,,
2.680254999998957,1450,,,,-0.0625,0.6015625,-0.671875,0.0028399435730968345,0.032218721362667575,15.190141032328716,3.519182342721356,10938,0,53.45687610441837,3.252810390912395,6.084924200506248,0.009904887617390574,0.0006027049036635458,0.15625,,
2.688344999998808,1450,,,,0.09375,-0.421875,-1.052734375,0.0028399435730968345,0.032218721362667575,15.187817453215239,3.595203851551091,11417,0,54.60329980445431,3.395375910966103,6.218261392856558,0.009488999806651813,0.0005900508115452631,0.1640625,,
2.6959799999995155,1450,,,,-0.09375,0.025390625,-1.166015625,0.0028399435730968345,0.032218721362667575,15.186445771263916,3.6444029626551946,11792,0,55.34552796099667,3.506865248893023,6.336311854074996,0.009187328019757171,0.0005821377543886271,0.169921875,,
2.7034549999991433,1450,,,,-0.1875,0.28125,-0.765625,0.0028399435730968345,0.032218721362667575,15.186011691556283,3.668189000782954,12054,0,55.7051610527281,3.584741374865486,6.43520511765925,0.008987739419242358,0.0005783794670689619,0.171875,,
2.71118499999959,1450,,,,0.03125,0.06640625,-0.974609375,0.0028399435730968345,0.032218721362667575,15.185573473207665,3.6824395142066395,12216,0,55.91995580362806,3.632987004247218,6.4967630106952114,0.00886838332341999,0.0005761578474026126,0.169921875,,
2.719104999999516,1450,,,,0.125,-0.1796875,-0.921875,0.0028399435730968345,0.032218721362667575,15.185823738077884,3.6924143537099985,12363,0,56.07235354338881,3.676752260936413,6.557157009811156,0.008762820847348023,0.0005745919214490741,0.171875,,
2.7272199999997393,1450,,,,-0.1875,-0.001953125,-0.921875,0.0028399435730968345,0.032218721362667575,15.18652621377808,3.6952607811857114,12439,0,56.118174720222875,3.69934045969831,6.59205413957487,0.008709315001867952,0.0005741227601092514,0.171875,,
2.7349699999988077,1450,,,,-0.09375,0.130859375,-1.107421875,0.0028399435730968345,0.032218721362667575,15.187375895953735,3.678496698114038,12499,0,55.86671208628255,3.717168405408682,6.6536373210361015,0.008667544175773038,0.0005767069540965258,0.171875,,
2.742114999999292,1450,,,,0.0625,-0.05859375,-0.95703125,0.0028399435730968345,0.032218721362667575,15.18746089923863,3.668989714202379,12521,0,55.722637824157346,3.7238640161023615,6.682856665640406,0.00865195969115698,0.0005781980649290052,0.171875,,
2.7534849999984727,1450,,,,0,0.078125,-1.01171875,0.0028399435730968345,0.032682423381708084,15.187879732899225,3.658266786613381,12563,0,55.56131598594374,3.736301902224941,6.724646160595214,0.008747265139962575,0.000588222629391577,0.173828125,,
2.7618449999997394,1450,,,,-0.0625,0.052734375,-1.005859375,0.0028399435730968345,0.032682423381708084,15.189131186238457,3.6418878349659436,12586,0,55.31711209086367,3.742981138347861,6.766407350043248,0.008731655911077872,0.0005908194073476588,0.173828125,,
2.779479999999516,1450,,,,-0.09375,0.10546875,-0.978515625,0.0028399435730968345,0.032682423381708084,15.191069207223611,3.6012026583332655,12609,0,54.70611881197828,3.7500336972110793,6.854870677446019,0.00871523458736229,0.0005974180601997311,0.173828125,,
2.787419999998994,1450,,,,-0.0625,-0.0625,-0.97265625,0.0028399435730968345,0.032682423381708084,15.19189095511383,3.5779092576207137,12580,0,54.35520728906616,3.741301574041591,6.8830600794970636,0.008735575770868012,0.0006012749285988342,0.171875,,
2.7949349999995903,1450,,,,-0.0625,0.0546875,-0.96875,0.0028399435730968345,0.032682423381708084,15.192247408732154,3.5642900768518517,12594,0,54.14957668402227,3.7455753180374676,6.917090672553053,0.008725608379658047,0.0006035582433528344,0.171875,,
2.8089099999992175,1450,,,,-0.03125,-0.001953125,-1,0.0028399435730968345,0.032682423381708084,15.193088135328775,3.5374067315212065,12587,0,53.744132242506986,3.7434073839233433,6.965239232130778,0.008730661675260869,0.0006081114722298762,0.171875,,
2.816864999999292,1450,,,,0,0.1328125,-0.83984375,0.0028399435730968345,0.032682423381708084,15.194026958662445,3.5227972806326546,12562,0,53.5254768518353,3.7359428631456297,6.979746996906074,0.008748105787193379,0.0006105956509677963,0.169921875,,
2.8338749999990687,1450,,,,-0.1875,0.03125,-1.04296875,0.014370829497089213,0.032682423381708084,15.194745478066052,3.48895360207386,12574,0,53.01376196829405,18.92208187900615,35.692773303511046,0.0017272107578167118,0.0006164894202613742,0.171875,,
2.842054999999702,1450,,,,-0.03125,-0.09375,-0.904296875,0.014370829497089213,0.032682423381708084,15.195423409639467,3.4764610502229556,12546,0,52.82629762525771,18.880635334139193,35.740977851743,0.0017310023102142683,0.0006186771523068412,0.169921875,,
2.8490400000000373,1450,,,,-0.03125,0.0234375,-1.029296875,0.014370829497089213,0.032682423381708084,15.195773836126143,3.470335731614708,12570,0,52.734436913044455,18.917156974335082,35.87249259061627,0.001727660420963274,0.0006197548565010603,0.171875,,
2.8567599999997766,1450,,,,-0.0625,0.01953125,-0.98046875,0.014370829497089213,0.032682423381708084,15.196423084071743,3.458520967586295,12556,0,52.55714786857452,18.895304655625125,35.951921711724374,0.0017296584509939902,0.0006218454521815838,0.169921875,,
2.864219999998808,1450,,,,0.0625,-0.1015625,-0.9765625,0.014370829497089213,0.032682423381708084,15.196498816732653,3.4560959378131364,12590,0,52.52055782949186,18.94670546140723,36.07483668189086,0.0017249660342416417,0.0006222786796707618,0.169921875,,
2.8723949999986216,1450,,,,-0.1875,0.150390625,-0.98828125,0.014370829497089213,0.032682423381708084,15.19667087588264,3.445897373584434,12557,0,52.36616825843105,18.89771694635971,36.08764508622825,0.0017294376603520741,0.0006241133248554261,0.169921875,,
2.8807499999990687,1450,,,,-0.125,0.05078125,-0.96484375,0.014370829497089213,0.032682423381708084,15.196636636435818,3.437848926296164,12670,0,52.24374094388382,19.06783587408515,36.49783788371193,0.0017140080079106586,0.0006255758640410726,0.169921875,,
2.888769999999553,1450,,,,0.03125,-0.0234375,-1.009765625,0.014370829497089213,0.032682423381708084,15.1968045342743,3.4251507367204925,12646,0,52.05134624636694,19.030661155840715,36.56132363179561,0.001717356171394891,0.0006278881477343008,0.169921875,,
2.8959550000000744,1450,,,,-0.1875,-0.125,-0.88671875,0.014370829497089213,0.1296873607936477,15.19706045969524,3.4183403455112966,12627,0,51.948724902550694,19.00243212573899,36.57920798130306,0.00682477695147164,0.0024964493553388456,0.169921875,,
2.911899999999441,1450,,,,0,0.1171875,-1.056640625,0.014370829497089213,0.1296873607936477,15.19811586900516,3.3932472775255027,12617,0,51.570965296018905,18.987072133328905,36.817368114679525,0.0068302979987104676,0.002514735957514821,0.169921875,,
2.9360999999996276,1450,,,,0.01953125,0.15625,-0.92578125,0.014370829497089213,0.1296873607936477,15.199430298925972,3.364534909860968,12586,0,51.139013850734955,18.941027571301625,37.038312132077635,0.0068469020651309685,0.0025359769582608774,0.171875,,
2.9506599999992176,1450,,,,-0.03125,0.158203125,-0.927734375,0.014370829497089213,0.1296873607936477,15.19966981927858,3.3500938713735278,12582,0,50.92032070846634,18.93411264660494,37.183804782000976,0.006849402621300123,0.0025468684994374956,0.169921875,,
2.958329999999143,1450,,,,0.0625,-0.01171875,-0.9921875,0.014370829497089213,0.1296873607936477,15.199947538336179,3.33692878537651,12561,0,50.72114247688682,18.90366050094818,37.26978450763883,0.006860436410564122,0.0025568698665008405,0.169921875,,
2.9661749999988825,1450,,,,-0.1875,0.08203125,-1.009765625,0.014370829497089213,0.1296873607936477,15.200081082531735,3.3369034779431157,12588,0,50.721203429317505,18.943777662455165,37.34883319330988,0.006845908092063189,0.0025568667938719834,0.169921875,,
2.973554999999702,1450,,,,0,0.23046875,-0.86328125,0.014370829497089213,0.1296873607936477,15.200507561929168,3.3301648659294867,12567,0,50.620196227032,18.91238687682381,37.36134643177122,0.006857270932447619,0.0025619687488369035,0.169921875,,
2.9825899999989196,1450,,,,-0.09375,0.19921875,-1.05078125,0.019118622857132006,0.1296873607936477,15.200589805320778,3.325485874702873,12592,0,50.54934668474674,25.20992532710045,49.87191127181777,0.005144297696678813,0.0025655595828458226,0.171875,,
2.99068499999959,1450,,,,-0.125,0.03515625,-0.94921875,0.019118622857132006,0.1296873607936477,15.201083702180446,3.318580127364263,12564,0,50.44601428845681,25.154474501215905,49.86414656543405,0.005155637848343003,0.0025708148130807454,0.169921875,,
2.999364999999292,1450,,,,0.03125,0.033203125,-0.99609375,0.019118622857132006,0.1296873607936477,15.200916359735013,3.3234382632111665,12581,0,50.51930706581594,25.188175590527795,49.85851361285092,0.00514873974605837,0.002567085107178778,0.171875,,
3.0081899999994786,1450,,,,-0.21875,0.0390625,-0.94140625,0.019118622857132006,0.1296873607936477,15.200870718477882,3.318787105709082,12564,0,50.44845373603514,25.154556973974287,49.86189885143394,0.0051556209448580794,0.002570690500688478,0.171875,,
3.0162599999988453,1450,,,,-0.09375,0.1171875,-1.046875,0.019118622857132006,0.1296873607936477,15.200896469327429,3.3166338859817786,12569,0,50.41580832747213,25.164751617702876,49.914406715939386,0.005153532320279901,0.002572355082581898,0.171875,,
3.02380999999959,1450,,,,0.0625,-0.06640625,-0.890625,0.019118622857132006,0.1296873607936477,15.20111578338399,3.313707691325782,12556,0,50.37205428813327,25.138633040291587,49.90591190999687,0.0051588867455835,0.0025745894747874055,0.171875,,
3.0315549999987708,1450,,,,-0.0625,0.10546875,-1.02734375,0.019118622857132006,0.1296873607936477,15.201158940418315,3.318625631991361,12590,0,50.44695569564686,25.206960004062367,49.967257005832586,0.005144902867015587,0.0025707668382621276,0.173828125,,
3.0395849999990316,1450,,,,-0.03125,0.130859375,-0.919921875,0.019118622857132006,0.1296873607936477,15.201232235936097,3.310320328336022,12587,0,50.3209480863761,25.2012585265629,50.08104871812996,0.0051460668385649565,0.002577204240489246,0.173828125,,
3.0468700000001117,1450,,,,-0.0625,0.1875,-0.91015625,0.019118622857132006,0.17135339344092473,15.20126955244694,3.303362619772466,12567,0,50.215305612638545,25.160209954995885,50.104663604125086,0.006810491396829552,0.003412373804169327,0.171875,,
3.0563149999994783,1450,,,,0,0.0546875,-1.158203125,0.019118622857132006,0.17135339344092473,15.201207365247537,3.3006747646342305,12590,0,50.17424154244455,25.20693240732309,50.238791125520976,0.00679786777192862,0.0034151665909283257,0.173828125,,
3.0683199999993667,1450,,,,0,-0.11328125,-0.888671875,0.019118622857132006,0.17135339344092473,15.201727069551998,3.2989423443068913,12562,0,50.149621136341395,25.15010923985459,50.15014803696957,0.006813226606959877,0.003416843229484577,0.173828125,,
3.076424999998882,1450,,,,-0.09375,0.095703125,-1.005859375,0.019118622857132006,0.17135339344092473,15.201895807577442,3.3067910084571634,12572,0,50.26949236799973,25.170120770670113,50.070369890372646,0.006807809744027809,0.003408695520267555,0.173828125,,
3.0856749999988824,1450,,,,-0.09375,0.150390625,-0.91796875,0.019118622857132006,0.17135339344092473,15.200786399457247,3.3263044390765426,12590,0,50.562443277968974,25.206365082849352,49.85195225688836,0.0067980207728370635,0.0033889460700880863,0.173828125,,
3.0934799999995155,1450,,,,0,-0.17578125,-1.01953125,0.019118622857132006,0.17135339344092473,15.200681614457896,3.3439783177474904,12608,0,50.83074973373012,25.24311708872346,49.66111501592255,0.006788123385818754,0.003371057762054187,0.173828125,,
3.101649999999441,1450,,,,-0.09375,-0.03125,-0.923828125,0.019118622857132006,0.17135339344092473,15.200842794983163,3.3366549912775096,12657,0,50.71996798350534,25.341205078991667,49.962975306358416,0.006761848653479384,0.0033784207729912336,0.17578125,,
3.1102949999989944,1450,,,,-0.03125,0.037109375,-0.978515625,0.019118622857132006,0.17135339344092473,15.200796739556754,3.328561215544121,12638,0,50.59678247265814,25.303192117120634,50.0094885100533,0.0067720069723923755,0.0033866460487585732,0.17578125,,
3.118625,1450,,,,0.0625,-0.0390625,-0.953125,0.019118622857132006,0.17135339344092473,15.20026661798344,3.3390102976850997,12669,0,50.75384676500577,25.36540464482976,49.977304700220145,0.006755397591335164,0.0033761656379329074,0.17578125,,
3.126739999999292,1450,,,,-0.03125,0.009765625,-0.93359375,0.019118622857132006,0.17135339344092473,15.19972392076235,3.3491213727548237,12689,0,50.90572024299794,25.40539381175715,49.90675643225312,0.006744764309129722,0.0033660930956869103,0.173828125,,
3.134285000000149,1450,,,,-0.03125,0.109375,-1.001953125,0.021121261649522313,0.17135339344092473,15.199932889000847,3.3637613722372834,12699,0,51.128947112620104,28.08700602466663,54.93366793335343,0.006100806660932048,0.0033513968723723193,0.173828125,,
3.142579999999143,1450,,,,-0.125,0.107421875,-0.970703125,0.021121261649522313,0.17135339344092473,15.200329301673374,3.347063824318712,12738,0,50.876472323362655,28.173042719024433,55.37538558090489,0.006082175615529621,0.003368028198807303,0.173828125,,
3.150609999999404,1450,,,,-0.125,0.18359375,-1.06640625,0.021121261649522313,0.17135339344092473,15.200837556589146,3.324441885848888,12671,0,50.53430107310982,28.02568428255517,55.45873532911712,0.006114155562209953,0.0033908333508565103,0.173828125,,
3.1580999999996275,1450,,,,0.15625,-0.03515625,-0.9296875,0.021121261649522313,0.17135339344092473,15.200796492842136,3.3061909241677574,12655,0,50.256735404755744,27.990980238644312,55.695977888757874,0.00612173607283515,0.0034095607695343805,0.17578125,,
3.166334999999963,1450,,,,-0.0625,0.265625,-1.03515625,0.021121261649522313,0.17135339344092473,15.20101621144369,3.2990385306553223,12634,0,50.14873818666892,27.944360734711402,55.72295883237173,0.00613194894911574,0.0034169033885378145,0.17578125,,
3.173614999999292,1450,,,,-0.03125,-0.00390625,-1.0859375,0.021121261649522313,0.17135339344092473,15.201484503908102,3.298272166753874,12612,0,50.13863323258042,27.896300905524985,55.638335365308244,0.006142513088786888,0.0034175920321972033,0.17578125,,
3.181719999998808,1450,,,,-0.25,-0.140625,-0.84765625,0.021121261649522313,0.17135339344092473,15.201766642075926,3.288305111012607,12613,0,49.98804694555922,27.896672661743654,55.80668653073254,0.006142431232521566,0.003427887343299121,0.177734375,,
3.1888699999991803,1450,,,,-0.09375,0.140625,-1.064453125,0.021121261649522313,0.17135339344092473,15.201864289994264,3.2874192623751415,12579,0,49.97490149093995,27.822245803161117,55.67243750986697,0.00615886275512151,0.0034287890186634933,0.177734375,,
3.197584999999963,1450,,,,0.0625,-0.095703125,-0.94140625,0.021121261649522313,0.18920494315588013,15.20096956528534,3.3167581099744625,12616,0,50.41793908513513,27.9049070269037,55.3471790661332,0.006780346659942774,0.003752730607183108,0.177734375,,
3.206799999999814,1450,,,,-0.125,0.0546875,-1.01171875,0.021121261649522313,0.18920494315588013,15.2001885375109,3.341177861640421,12671,0,50.786533434291904,28.026389337326588,55.1846866523926,0.00675095678143206,0.003725494345871731,0.177734375,,
3.217574999999255,1450,,,,-0.0625,0.037109375,-1.03515625,0.021121261649522313,0.18920494315588013,15.20017936775485,3.358113345817772,12685,0,51.0439251936815,28.05768900944604,54.96773397222825,0.006743425771530273,0.0037067083387094407,0.177734375,,
3.22580999999959,1450,,,,-0.15625,0.064453125,-0.951171875,0.021121261649522313,0.18920494315588013,15.200851037018717,3.325335018789256,12695,0,50.547922268797315,28.078045060312363,55.54737722156512,0.006738536915567414,0.0037430805197046506,0.177734375,,
3.233444999999367,1450,,,,0,0.103515625,-0.970703125,0.021121261649522313,0.18920494315588013,15.201568660855832,3.3175380778893264,12662,0,50.43178287603828,28.00617413035916,55.53278613845273,0.006755829706520992,0.003751700462800361,0.177734375,,
3.2415899999989195,1450,,,,0,0.16796875,-0.96484375,0.021121261649522313,0.18920494315588013,15.201754930226862,3.312568147443889,12632,0,50.3568491671176,27.939888252890082,55.48378962346692,0.006771857548009659,0.0037572831955385447,0.177734375,,
3.249289999999106,1450,,,,-0.03125,0.109375,-0.96875,0.021121261649522313,0.18920494315588013,15.201962929931462,3.303206746194235,12610,0,50.21522650554429,27.89080606759154,55.54252765246833,0.006783774649515483,0.003767879910588274,0.177734375,,
3.2572149999989195,1450,,,,-0.0625,-0.029296875,-1.013671875,0.021121261649522313,0.18920494315588013,15.202050222356542,3.2984931676994558,12578,0,50.14385879346705,27.82050783081557,55.48138595675876,0.006800916227212288,0.003773242580615486,0.17578125,,
3.2646799999987706,1450,,,,-0.125,0.1875,-0.8984375,0.021121261649522313,0.18920494315588013,15.202277100114829,3.2925727156002615,12559,0,50.05460279483275,27.77741811961299,55.49423343437362,0.006811466146390579,0.003779970923581321,0.17578125,,
3.2727949999999253,1450,,,,-0.03125,0.09375,-1.033203125,0.021121261649522313,0.18920494315588013,15.202557776541319,3.289614163290013,12548,0,50.01054937994505,27.75392563707534,55.49614227634353,0.0068172317541677395,0.0037833006336009988,0.17578125,,
3.280745000000112,1450,,,,-0.125,0.041015625,-1.001953125,0.021121261649522313,0.18920494315588013,15.2024325259415,3.290152578893059,12542,0,50.018322580674145,27.74137593829636,55.46242758051816,0.006820315747016963,0.003782712681951959,0.17578125,,
3.2907649999996647,1450,,,,0.125,-0.203125,-0.94140625,0.021817781293194956,0.18920494315588013,15.202445482557208,3.294500910883929,12583,0,50.08447048994799,28.748633819176046,57.40029501748637,0.006581354242637985,0.003777716751420059,0.177734375,,
3.298914999999106,1450,,,,-0.0625,0,-0.943359375,0.021817781293194956,0.18920494315588013,15.202169095408642,3.2988796229550923,12591,0,50.15012585356122,28.766999413227097,57.36176913538955,0.006577152536419335,0.0037727710536232775,0.177734375,,
3.3066549999993295,1450,,,,-0.125,0.0703125,-0.98828125,0.021817781293194956,0.18920494315588013,15.202654794534812,3.2976777043473158,12564,0,50.13345576282627,28.704682567490508,57.25654082832027,0.006591431300834666,0.003774025553933083,0.1796875,,
3.315700000000186,1450,,,,0,0.01953125,-1.1015625,0.021817781293194956,0.18920494315588013,15.20232485387421,3.299597080446259,12598,0,50.161546703838944,28.783391437309128,57.38138739471184,0.006573406874862983,0.0037719120638957486,0.1796875,,
3.323004999998957,1450,,,,-0.09375,0.005859375,-0.91796875,0.021817781293194956,0.18920494315588013,15.202199127365928,3.301119364679728,12607,0,50.18427392506493,28.80479122443543,57.39804319466033,0.006568523329388877,0.003770203857853969,0.1796875,,
3.330769999999553,1450,,,,0.0625,0.1171875,-1.072265625,0.021817781293194956,0.18920494315588013,15.202482288579477,3.296169433170297,12575,0,50.10995742792849,28.730217394975615,57.3343480411001,0.006585572971994587,0.003775795328263996,0.1796875,,
3.3384899999992923,1450,,,,0,0,-0.88671875,0.021817781293194956,0.18920494315588013,15.202490484274215,3.290359568000012,12592,0,50.0216600223608,28.770391007259416,57.515866115595536,0.006576377189595354,0.0037824602996242287,0.1796875,,
3.3467549999989568,1450,,,,-0.0625,-0.111328125,-0.98046875,0.021817781293194956,0.19657210029962363,15.202466532958203,3.2857674801485923,12573,0,49.951770152041384,28.726698429155714,57.50886973918728,0.006842836491788275,0.003935237924528092,0.1796875,,
3.3542299999995158,1450,,,,0,-0.1796875,-1.05859375,0.021817781293194956,0.19657210029962363,15.202345825381911,3.2831458604099146,12593,0,49.91151876512257,28.771065992354398,57.644140479370044,0.0068322842244309115,0.003938411516280793,0.181640625,,
3.361764999999665,1450,,,,0.03125,-0.0078125,-0.90625,0.021817781293194956,0.19657210029962363,15.20233095301311,3.2789896145305106,12600,0,49.848285311585705,28.78723295181725,57.749695444642576,0.0068284472018772,0.003943407462682302,0.1796875,,
3.372834999999963,1450,,,,-0.03125,-0.158203125,-1.046875,0.021817781293194956,0.19657210029962363,15.202642900146035,3.2728352787795116,12568,0,49.75574601428481,28.7156455129626,57.71322472929734,0.006845470362520269,0.003950741694098769,0.181640625,,
3.3886549999993294,1450,,,,-0.1875,-0.02734375,-1.0078125,0.021817781293194956,0.19657210029962363,15.202979368538738,3.267510435835074,12558,0,49.67589374248565,28.692899114548467,57.760207120357585,0.006850897133637973,0.003957092373991934,0.18359375,,
3.3967299999995157,1450,,,,-0.0625,-0.056640625,-1.017578125,0.021817781293194956,0.19657210029962363,15.203117086399905,3.2587883144679504,12543,0,49.54374030464804,28.656920042884234,57.84165641647312,0.006859498508753184,0.003967647559326114,0.18359375,,
3.404519999999553,1450,,,,-0.125,0.18359375,-0.984375,0.021817781293194956,0.19657210029962363,15.202906268180783,3.2567086741540106,12542,0,49.511436715934735,28.65478820138718,57.875089276423566,0.0068600088375494455,0.003970236239102288,0.18359375,,
3.4119749999996274,1450,,,,-0.03125,0.064453125,-0.935546875,0.021817781293194956,0.19657210029962363,15.20252337800958,3.256217141634864,12566,0,49.50271721957956,28.711216244561072,57.99927328677035,0.006846526410627463,0.003970935563550731,0.18359375,,
3.419894999999553,1450,,,,-0.125,0.083984375,-1.0390625,0.021817781293194956,0.19657210029962363,15.202399435784564,3.265606617214718,12554,0,49.645056195039366,28.682890393273755,57.77592491906537,0.006853287712793426,0.003959550363431062,0.181640625,,
3.4268649999992924,1450,,,,0.0625,-0.0390625,-0.953125,0.021817781293194956,0.19657210029962363,15.20228366076232,3.26635275649724,12589,0,49.656021140383956,28.763312146675965,57.925124659824,0.006834126031703915,0.003958676023273976,0.181640625,,
3.4353849999997763,1450,,,,0.03125,0.177734375,-0.931640625,0.022245336965405753,0.19657210029962363,15.202068893991262,3.2657847811740175,12563,0,49.646685236355594,29.26528020625605,58.94709801254865,0.006716904772967195,0.00395942043993053,0.181640625,,
3.443524999999441,1450,,,,-0.0625,0.08984375,-0.9453125,0.022245336965405753,0.19657210029962363,15.202163462117074,3.26361047714828,12593,0,49.61393995028605,29.335862235996515,59.128265695874006,0.0067007439126306025,0.003962033664260326,0.181640625,,
3.451929999999702,1450,,,,-0.03125,0.033203125,-0.98046875,0.022245336965405753,0.19657210029962363,15.202353512671833,3.261896142178979,12564,0,49.5884982750253,29.269290819012255,59.024354108649035,0.006715984391802811,0.003964066409299291,0.18359375,,
3.4598349999990314,1450,,,,-0.125,0.12890625,-0.962890625,0.022245336965405753,0.19657210029962363,15.202368739304632,3.26540536297482,12576,0,49.641896411246094,29.295327891500914,59.01331336903605,0.006710015365851312,0.003959802394960304,0.18359375,,
3.468569999999367,1450,,,,-0.0625,-0.26953125,-1.0859375,0.022245336965405753,0.19657210029962363,15.202384986838185,3.2607630147525,12563,0,49.57137470111062,29.265859640898707,59.03782135830705,0.006716771784995385,0.003965435727470748,0.185546875,,
3.4766249999990686,1450,,,,-0.09375,0.20703125,-0.943359375,0.022245336965405753,0.19657210029962363,15.202268128836037,3.2561743975251627,12559,0,49.501236265428666,29.255703407929015,59.10095507727956,0.006719103538845275,0.0039710543640888475,0.185546875,,
3.484554999999702,1450,,,,0.0625,0.0078125,-1,0.022245336965405753,0.19657210029962363,15.202221666978707,3.2683811402792102,12587,0,49.68665458669718,29.32169151002145,59.01321341499991,0.006703982279891323,0.003956235370136043,0.185546875,,
3.4927599999997763,1450,,,,-0.125,0.14453125,-0.94140625,0.022245336965405753,0.19657210029962363,15.20182263877626,3.2689972275863237,12553,0,49.69471606041861,29.243654412655662,58.84660730750802,0.00672187194957939,0.003955593589882517,0.185546875,,
3.5007049999991433,1450,,,,0.03125,0.09765625,-1.005859375,0.022245336965405753,0.19970053819951758,15.201930096138799,3.270876948158248,12570,0,49.723642718973494,29.281971967053806,58.88943441362237,0.006819914260699648,0.0040162089356199976,0.185546875,,
3.508714999999851,1450,,,,-0.09375,-0.09765625,-0.962890625,0.022245336965405753,0.19970053819951758,15.201703195499467,3.2603920022879143,12560,0,49.56351151976109,29.25850808572899,59.0323550300982,0.006825383495781273,0.004029184617395329,0.185546875,,
3.5166149999992924,1450,,,,0.0625,-0.12109375,-0.91015625,0.022245336965405753,0.19970053819951758,15.201524675130704,3.253390365556874,12552,0,49.45649391984532,29.23915464261809,59.12096132412117,0.006829901228007469,0.004037903263485972,0.185546875,,
3.528824999999255,1450,,,,0,0.083984375,-0.896484375,0.022245336965405753,0.19970053819951758,15.201448755636624,3.2614233755888042,12554,0,49.57836031444863,29.24530051387152,58.98803495796241,0.006828465930955176,0.004027977870444392,0.18359375,,
3.547375,1450,,,,-0.0625,-0.04296875,-1.05078125,0.022245336965405753,0.19970053819951758,15.20116241742553,3.255690597103119,12553,0,49.49028154744962,29.242488434792403,59.08733496849414,0.00682912258458538,0.0040351465369630485,0.185546875,,
3.5556099999994037,1450,,,,-0.03125,0.0546875,-0.921875,0.022245336965405753,0.19970053819951758,15.20130697261667,3.2643420916895476,12570,0,49.622266199406404,29.282198186100697,59.01019930937974,0.006819861573585992,0.004024413907196896,0.18359375,,
3.5649949999991803,1450,,,,-0.03125,0.103515625,-0.9375,0.022245336965405753,0.19970053819951758,15.201015488689821,3.26579701878194,12561,0,49.64343106542131,29.26098085675636,58.94230158708316,0.006824806699991629,0.004022698147844523,0.18359375,,
3.5729249999988824,1450,,,,-0.03125,-0.0546875,-1.04296875,0.022245336965405753,0.19970053819951758,15.201031241982092,3.2657477873774243,12576,0,49.642734144358116,29.295844443274003,59.01335804366341,0.006816684823207633,0.004022754621427585,0.18359375,,
3.581789999999106,1450,,,,-0.15625,0.146484375,-0.998046875,0.022245336965405753,0.19970053819951758,15.20097509065935,3.268356750217364,12557,0,49.6822095474425,29.251375522098712,58.87696177072401,0.006827047775878048,0.004019558309072782,0.18359375,,
3.5893899999996646,1450,,,,0.1875,0.109375,-0.9921875,0.02230113367939127,0.19970053819951758,15.200863529113473,3.2617834294880397,12550,0,49.58192477317141,29.30960156206518,59.1134807616918,0.0068134852593146784,0.004027688297965689,0.18359375,,
3.5970349999992175,1450,,,,-0.0625,-0.05859375,-0.96875,0.02230113367939127,0.19970053819951758,15.201407739853892,3.266384496023701,12572,0,49.65364255919344,29.359355020025745,59.12830057739604,0.0068019388730884475,0.004021870861970483,0.18359375,,
3.6051899999985473,1450,,,,-0.3125,0.2734375,-0.8828125,0.02230113367939127,0.19970053819951758,15.201271587054283,3.267275302093145,12560,0,49.66673921679272,29.333365237406042,59.0603806490445,0.006807965488557669,0.0040208103319977415,0.18359375,,
3.6125199999995528,1450,,,,0.0625,0.265625,-1.07421875,0.02230113367939127,0.19970053819951758,15.201041353357194,3.273992621164233,12578,0,49.76809722490382,29.37322212281448,59.02018313072295,0.006798727676675558,0.00401262152533306,0.185546875,,
3.6210149999996646,1450,,,,0,-0.20703125,-0.90625,0.02230113367939127,0.19970053819951758,15.201252294140268,3.2816443517376017,12639,0,49.88510373040367,29.517709952669648,59.17139134799348,0.006765448218026691,0.004003209841534424,0.185546875,,
3.629799999999814,1450,,,,-0.0625,0.17578125,-1.056640625,0.02230113367939127,0.19970053819951758,15.201184060428172,3.285342288467838,12583,0,49.94109282850791,29.38567698667353,58.84067673004401,0.006795846095023852,0.003998721831844304,0.1875,,
3.637889999999665,1450,,,,0.03125,0.15625,-0.9140625,0.02230113367939127,0.19970053819951758,15.201191510195754,3.284542810172586,12597,0,49.92896428087002,29.41752010138175,58.918746913908834,0.00678848990367946,0.003999693185625155,0.1875,,
3.6457299999985846,1450,,,,-0.125,0.169921875,-1.04296875,0.02230113367939127,0.20168849871993463,15.200938660209912,3.296742755650779,12596,0,50.11358440713889,29.416010689534957,58.698676292140306,0.006856419140195899,0.0040246272763359405,0.1875,,
3.652989999999292,1450,,,,0.0625,-0.08984375,-1.01171875,0.02230113367939127,0.20168849871993463,15.200701225594674,3.2992780998469073,12602,0,50.15134065592055,29.429238697115842,58.68086139316719,0.006853337281188342,0.004021597350780384,0.1875,,
3.6601149999992924,1450,,,,0,0.015625,-0.962890625,0.02230113367939127,0.20168849871993463,15.200757872646154,3.294798136225359,12574,0,50.0834287080075,29.36548257900846,58.63313142998416,0.00686821672953228,0.004027050541922822,0.185546875,,
3.6687949999989944,1450,,,,-0.125,0.28515625,-1.0078125,0.02230113367939127,0.20168849871993463,15.200719406143989,3.2904153431845846,12566,0,50.01668036141985,29.34601761209365,58.672461666867385,0.0068727723599817415,0.004032424728361344,0.1875,,
3.6797399999992924,1450,,,,-0.03125,0.076171875,-0.96875,0.02230113367939127,0.20168849871993463,15.200493643081495,3.2866975788523507,12581,0,49.9594256540765,29.380277561124434,58.80827726995119,0.0068647581119793775,0.004037045984404299,0.1875,,
3.6875699999993667,1450,,,,-0.09375,-0.095703125,-1.021484375,0.02230113367939127,0.20168849871993463,15.200460841902231,3.2885988914340314,12587,0,49.98821867396608,29.396390195416636,58.80663679405386,0.006860995427642033,0.004034720661590092,0.1875,,
3.6964249999998136,1450,,,,-0.0625,-0.068359375,-0.943359375,0.02230113367939127,0.20168849871993463,15.200536816589757,3.2906356669643753,12565,0,50.01942860567538,29.344515903501115,58.66623574378773,0.006873124074807826,0.0040322031726897885,0.1875,,
3.7045649999994783,1450,,,,0,0.15234375,-0.984375,0.02230113367939127,0.20168849871993463,15.20058011792326,3.2858169648880433,12581,0,49.946324027612135,29.382174389091915,58.82750124483312,0.006864314943104115,0.004038104958603839,0.1875,,
3.7118999999994413,1450,,,,-0.0625,-0.001953125,-0.943359375,0.02230113367939127,0.20168849871993463,15.200554566348583,3.286325304830503,12561,0,49.9539671188482,29.33500615992218,58.72407708907217,0.006875352185726954,0.004037487117691505,0.1875,,
3.71993499999959,1450,,,,-0.1875,0.30859375,-0.95703125,0.02230113367939127,0.20168849871993463,15.200921101383113,3.2923193814057408,12579,0,50.04628715730312,29.37661612421616,58.69889215134177,0.0068656137203520805,0.00403003919323719,0.1875,,
3.728754999999888,1450,,,,0.0625,0.087890625,-1.025390625,0.02230113367939127,0.20168849871993463,15.200870296339048,3.2882866007031812,12596,0,49.984818114478685,29.416122323436714,58.85011376067405,0.006856393120151099,0.00403499515108795,0.1875,,
3.7380299999993296,1450,,,,-0.0625,0.0078125,-1.0078125,0.022542702097182538,0.20168849871993463,15.200531951889488,3.287715318568718,12564,0,49.97502174862033,29.65946159917654,59.34857166919664,0.006800140253575415,0.0040357861119990944,0.1875,,
3.7467949999999255,1450,,,,0.125,0.140625,-1,0.022542702097182538,0.20168849871993463,15.20021166393406,3.2973615144176924,12609,0,50.120592951659084,29.766753884755456,59.39026681800284,0.006775629600082998,0.004024064498088871,0.1875,,
3.7547599999997763,1450,,,,-0.1875,0.029296875,-0.974609375,0.022542702097182538,0.20168849871993463,15.200201339634672,3.3054880182822375,12601,0,50.244083403640026,29.74672570629454,59.20443501242075,0.006780191564991519,0.004014174108813037,0.1875,,
3.762824999999255,1450,,,,-0.125,-0.04296875,-0.96484375,0.022542702097182538,0.20168849871993463,15.200322936797873,3.287739951260344,12595,0,49.974708991369326,29.73161531067892,59.493323544542484,0.006783637438208503,0.004035811369202098,0.1875,,
3.7721549999993296,1450,,,,0.03125,0.033203125,-0.998046875,0.022542702097182538,0.20168849871993463,15.200523493875648,3.281756543587723,12564,0,49.88441744198533,29.65832083864764,59.454078767462256,0.0068004018102439286,0.004043116248766355,0.1875,,
3.779189999998547,1450,,,,-0.0625,0.123046875,-0.984375,0.022542702097182538,0.20168849871993463,15.200889502476926,3.2965520451512074,12580,0,50.11052337750783,29.696647475678965,59.262297565641354,0.006791625178738239,0.004024873122966877,0.1875,,
3.7866199999991803,1450,,,,-0.0625,0.15234375,-1.04296875,0.022542702097182538,0.20168849871993463,15.20085089303545,3.289987352836648,12561,0,50.01060719044229,29.651529987662894,59.290481866674284,0.006801959251473739,0.004032914416573611,0.1875,,
3.794079999999143,1450,,,,-0.09375,0.09765625,-0.94140625,0.022542702097182538,0.2027582894536301,15.200639473513876,3.2863350269183114,12561,0,49.95439393336577,29.651618201444848,59.357377533189926,0.006838017678365702,0.004058867969133799,0.1875,,
3.802074999999255,1450,,,,-0.0625,-0.1015625,-1.05078125,0.022542702097182538,0.2027582894536301,15.200543246994242,3.2869777660666015,12552,0,49.9638476850039,29.630670998854175,59.30422169577524,0.006842851768745662,0.004058099983250204,0.1875,,
3.8100449999999255,1450,,,,-0.03125,-0.060546875,-0.947265625,0.022542702097182538,0.2027582894536301,15.200910339189907,3.2839615150691714,12548,0,49.91920454791672,29.62233013320439,59.34054919639264,0.006844778535040138,0.0040617291739696165,0.1875,,
3.817894999999553,1450,,,,0,0.037109375,-0.953125,0.022542702097182538,0.2027582894536301,15.20057351171477,3.2763631922950744,12571,0,49.802599555557755,29.675411288826876,59.5860689073513,0.006832535107271482,0.0040712390771377545,0.1875,,
3.825859999999404,1450,,,,-0.125,-0.03515625,-1.0078125,0.022542702097182538,0.2027582894536301,15.200675381171218,3.278334627678443,12556,0,49.83290046619282,29.640156898634167,59.479092369392326,0.006840661813870941,0.0040687635589500455,0.1875,,
3.836134999998845,1450,,,,-0.03125,0.2109375,-0.912109375,0.022542702097182538,0.2027582894536301,15.200839842761935,3.2926386134889394,12568,0,50.050872223739084,29.66878030858688,59.2772493073857,0.006834062180673697,0.004051044076659707,0.189453125,,
3.858054999999702,1450,,,,0,0.1171875,-0.912109375,0.022542702097182538,0.2027582894536301,15.20143294624911,3.2751606209239643,12558,0,49.78713456717124,29.645619827222042,59.54473999146326,0.006839401255069986,0.004072503694304298,0.189453125,,
3.8663399999989196,1450,,,,-0.125,0.00390625,-1.12109375,0.022542702097182538,0.2027582894536301,15.201282879152297,3.2651670038254017,12551,0,49.63472727282408,29.629321406444294,59.69474002261093,0.006843163455290297,0.004085008633957861,0.1875,,
3.8742999999988825,1450,,,,-0.125,0.06640625,-0.98828125,0.022542702097182538,0.2027582894536301,15.201102237512687,3.271594943702659,12548,0,49.731849218953684,29.621360382453737,59.56215352467632,0.006845002620937501,0.004077030969850913,0.189453125,,
3.882089999999851,1450,,,,-0.03125,0.05078125,-0.978515625,0.022542702097182538,0.2027582894536301,15.20114126578436,3.2708754556686914,12543,0,49.72103986440656,29.609042609147277,59.5503285729615,0.006847850237176899,0.004077917316423167,0.189453125,,
3.901399999999441,1450,,,,-0.03125,0.095703125,-1,0.02267069968320992,0.2027582894536301,15.201194502726521,3.2739310421195627,12558,0,49.767662559773605,29.81314461445447,59.904651094769214,0.006800969574854096,0.0040740970948777554,0.19140625,,
3.908769999999553,1450,,,,-0.0625,0.01171875,-0.95703125,0.02267069968320992,0.2027582894536301,15.201141711328317,3.271079926557017,12589,0,49.72414951267464,29.887631515659063,60.10687323679761,0.006784019983229474,0.004077662291678758,0.19140625,,
3.9176049999995155,1450,,,,-0.0625,0.048828125,-1.09375,0.02267069968320992,0.2027582894536301,15.200987536737053,3.2784348348541803,12563,0,49.83544706462299,29.825556765468473,59.84807706609485,0.006798139295370345,0.004068555644553722,0.19140625,,
3.9261049999995157,1450,,,,0,0.0625,-0.78125,0.02267069968320992,0.2027582894536301,15.20093382551341,3.2885654714812587,12603,0,49.98926611285492,29.919641362151044,59.85213164483145,0.006776762027305697,0.004056036529839954,0.19140625,,
3.9339749999996276,1450,,,,-0.03125,0.0546875,-1.03125,0.02267069968320992,0.2027582894536301,15.200822429851934,3.298060179579688,12613,0,50.13322715275642,29.944800967948456,59.730447586600334,0.0067710681954658266,0.00404438933954568,0.193359375,,
3.9419399999994784,1450,,,,-0.0625,-0.1875,-1.015625,0.02267069968320992,0.2027582894536301,15.201172947208047,3.2916708808173882,12599,0,50.037258344593766,29.91189820241721,59.779250886252875,0.006778516297479409,0.004052146263835755,0.193359375,,
3.9500299999993294,1450,,,,-0.03125,0.18359375,-0.91796875,0.02267069968320992,0.20315827515290247,15.201214082013735,3.2841831502678085,12571,0,49.92357115176324,29.84521740015825,59.781815907022015,0.0068070630020549035,0.0040693858725634685,0.193359375,,
3.9579599999990314,1450,,,,0,0.021484375,-1.015625,0.02267069968320992,0.20315827515290247,15.201023690014193,3.2873851943273285,12592,0,49.97162021717163,29.894097751278544,59.82215029523118,0.0067959326567805034,0.00406547304790193,0.193359375,,
3.965839999999851,1450,,,,-0.1875,0.140625,-0.9140625,0.02267069968320992,0.20315827515290247,15.200582508543475,3.2858043584378924,12564,0,49.94614025736694,29.828197920663285,59.72072670072578,0.006810947000327027,0.004067547043796584,0.193359375,,
3.974199999999255,1450,,,,0.03125,0.203125,-0.9921875,0.02267069968320992,0.20315827515290247,15.200455437015679,3.284449967453931,12553,0,49.92513536539108,29.80204376834986,59.693466127302926,0.006816924259693192,0.004069258373883852,0.193359375,,
3.9823699999991806,1450,,,,-0.09375,-0.046875,-0.951171875,0.02267069968320992,0.20315827515290247,15.200172978021296,3.2817947157548035,12589,0,49.88384735782925,29.887427179113576,59.914037834178316,0.00679744944037461,0.004072626429465186,0.1953125,,
3.992364999999292,1450,,,,0.125,0.00390625,-1.16015625,0.02267069968320992,0.20315827515290247,15.200034269151802,3.285627701119217,12590,0,49.941653652686554,29.88948616493017,59.848811520726045,0.0067969811870259396,0.0040679124597223625,0.1953125,,
4.008374999999068,1450,,,,-0.125,0.20703125,-0.94140625,0.02267069968320992,0.20315827515290247,15.200140585305013,3.2821686015752785,12631,0,49.88942416861819,29.98575081592892,60.10442356396404,0.006775160522076422,0.0040721711773272894,0.193359375,,
4.016724999998696,1450,,,,0.125,-0.046875,-1.10546875,0.02267069968320992,0.20315827515290247,15.200231917713287,3.28099602132246,12579,0,49.87190044519596,29.864185425096764,59.88178745647441,0.006802739544410132,0.004073602035201212,0.1953125,,
4.025094999999739,1450,,,,-0.166015625,-0.0078125,-0.97265625,0.02267069968320992,0.20315827515290247,15.20011910827551,3.2745845016113697,12559,0,49.77407445460582,29.815532111438024,59.901730847109825,0.006813840329717463,0.004081608294659175,0.1953125,,
4.032844999999739,1450,,,,0.3125,-0.2421875,-1.03125,0.02269669087622936,0.20315827515290247,15.200113350223576,3.280654804970525,12542,0,49.8663248985076,29.810321308577347,59.78046581385329,0.0068150313795660965,0.004074057504064884,0.1953125,,
4.040879999998957,1450,,,,-0.09375,0.017578125,-0.890625,0.02269669087622936,0.20315827515290247,15.200010822464018,3.280359029371437,12585,0,49.861492748013404,29.911146059708237,59.98846887892253,0.00679205921255443,0.004074452326961205,0.1953125,,
4.049099999999627,1450,,,,-0.125,0.19140625,-1.046875,0.02269669087622936,0.20315827515290247,15.200208510808148,3.2818461747604593,12573,0,49.884746156757096,29.883600583994074,59.905287460195325,0.006798319853790171,0.004072553050876532,0.1953125,,
4.0573449999997395,1450,,,,0.0625,0.05859375,-1.009765625,0.02269669087622936,0.20315827515290247,15.20013358044417,3.2881888868951705,12561,0,49.98091031853862,29.85533884551543,59.73348355450354,0.006804755297005074,0.004064717386260734,0.197265625,,
4.066249999999068,1450,,,,0.09375,-0.162109375,-0.94921875,0.02269669087622936,0.20315827515290247,15.199831207860866,3.2832959038972427,12580,0,49.90554354469906,29.90008292359227,59.91334990032032,0.006794572298413363,0.004070855875378635,0.19921875,,
4.074284999999218,1450,,,,0,-0.25,-1.04296875,0.02269669087622936,0.20315827515290247,15.200035135993808,3.290783008314163,12583,0,50.02001735130668,29.908185907601652,59.79243409202928,0.006792731454209213,0.004061539477806585,0.19921875,,
4.082329999999144,1450,,,,-0.03125,0.060546875,-0.994140625,0.02269669087622936,0.20315827515290247,15.2000334358762,3.29159040021817,12618,0,50.032284140525306,29.989929704567185,59.94115643478257,0.006774216450462815,0.004060543679802691,0.197265625,,
4.091254999998957,1450,,,,-0.0625,0.12890625,-0.96875,0.02269669087622936,0.20315827515290247,15.200469439378466,3.2833499567674393,12572,0,49.90846067662807,29.88064519947911,59.87090123473212,0.006798992250557027,0.004070617935288088,0.197265625,,
4.100094999999739,1450,,,,-0.03125,0.212890625,-1.009765625,0.02269669087622936,0.20331597780286925,15.200590502666769,3.2849579803348714,12587,0,49.93330107753766,29.91685091992591,59.913625324851424,0.006796035396474569,0.0040717511843880545,0.1953125,,
4.1089049999993295,1450,,,,0.25,-0.22265625,-0.921875,0.02269669087622936,0.20331597780286925,15.200561034577971,3.273005625809881,12562,0,49.751521781640164,29.857296396577457,60.0128304167687,0.006809591032702324,0.004086628318531135,0.197265625,,
4.117325000000187,1450,,,,-0.125,0.0703125,-1.033203125,0.02269669087622936,0.20331597780286925,15.200313235647076,3.275566857524635,12558,0,49.78964225867861,29.847897771794813,59.94800608673214,0.006811735263814644,0.004083499470563683,0.197265625,,
4.1246149999992925,1450,,,,-0.03125,-0.0390625,-0.986328125,0.02269669087622936,0.20331597780286925,15.200105185466285,3.2904445667473543,12586,0,50.01510352150582,29.915336677921147,59.81260573630115,0.006796379395352937,0.00406509161208566,0.1953125,,
4.132364999999292,1450,,,,-0.09375,0.046875,-0.927734375,0.02269669087622936,0.20331597780286925,15.20068254348295,3.287461943464364,12562,0,49.97166537638329,29.857533951119553,59.7489271694961,0.0068095368537710605,0.004068625215339667,0.1953125,,
4.143869999999181,1450,,,,0.125,0.09375,-1.05078125,0.02269669087622936,0.20331597780286925,15.200649086651904,3.2958278303491797,12552,0,50.098722299159185,29.834336245163914,59.551092075784595,0.006814831613216344,0.004058306648796142,0.1953125,,
4.152324999999255,1450,,,,-0.0625,-0.0234375,-0.97265625,0.02269669087622936,0.20331597780286925,15.200173590284907,3.2835984672015206,12572,0,49.911266702256555,29.880383810353642,59.86701156795669,0.0068043295257947676,0.004073548744329446,0.193359375,,
4.160299999998882,1450,,,,-0.0625,0.064453125,-0.9765625,0.02269669087622936,0.20331597780286925,15.200347649011515,3.282891456192144,12577,0,49.90109142809025,29.892581705858003,59.9036631271574,0.006801552967337904,0.0040743793769692765,0.193359375,,
4.167759999998845,1450,,,,-0.125,-0.064453125,-1.0234375,0.02269669087622936,0.20331597780286925,15.20013980367129,3.279380137997592,12563,0,49.84703656694625,29.85919673024818,59.901648697102125,0.006809157648802543,0.004078797694017558,0.193359375,,
4.176389999999665,1450,,,,0,0.03515625,-0.96875,0.02269669087622936,0.20331597780286925,15.199863231396797,3.271734257793938,12552,0,49.72991324794337,29.834616297900343,59.99330050939549,0.0068147676434899525,0.004088404031375976,0.19140625,,
4.184189999999479,1450,,,,-0.0625,-0.099609375,-0.9921875,0.022552683256916572,0.20331597780286925,15.199676356796521,3.2751766977615158,12602,0,49.781625817296614,29.76257374542432,59.78626301731455,0.006831263302090161,0.004084157045192911,0.193359375,,
4.192039999999106,1450,,,,-0.0625,0.23046875,-0.939453125,0.022552683256916572,0.20331597780286925,15.1997913165356,3.270474442943639,12559,0,49.710529038806335,29.660881675586275,59.6672017962867,0.006854684227752327,0.004089998270671217,0.193359375,,
4.200104999999516,1450,,,,-0.125,-0.07421875,-0.97265625,0.022552683256916572,0.20331597780286925,15.199867343491022,3.2691260803418363,12551,0,49.69028275034268,29.64215620973646,59.65382881531709,0.006859014451050182,0.004091664739047336,0.193359375,,
4.208014999999665,1450,,,,-0.09375,0.005859375,-0.96484375,0.022552683256916572,0.20331597780286925,15.199873850908041,3.271931661690916,12572,0,49.732948506493855,29.69109307565147,59.701051249303205,0.006847709421974798,0.0040881545114165386,0.19140625,,
4.216249999999069,1450,,,,0.0625,0.1640625,-1.01953125,0.022552683256916572,0.20331597780286925,15.199880006814531,3.2764250215644566,12561,0,49.80126717910446,29.66479317811299,59.566342100145796,0.0068537803915274895,0.004082546274809976,0.19140625,,
4.225019999999553,1450,,,,-0.0625,0.025390625,-0.9296875,0.022552683256916572,0.20331597780286925,15.19988668718704,3.2851507839183185,12577,0,49.93391966588212,29.702560360076045,59.48373482158388,0.006845065722891396,0.0040717007429678514,0.19140625,,
4.232889999998734,1450,,,,-0.09375,0.220703125,-0.94921875,0.022552683256916572,0.20331597780286925,15.199892196608262,3.276464367803348,12558,0,49.80190517663913,29.65900432311013,59.55395525113857,0.006855118114819741,0.0040824939745124425,0.19140625,,
4.241969999999739,1450,,,,0.125,0.0546875,-0.9609375,0.022552683256916572,0.20331597780286925,15.199495505643505,3.2868348412184853,12569,0,49.95823139689285,29.683892084587683,59.417419821699035,0.006849370602193839,0.004069719285849548,0.189453125,,
4.250379999998957,1450,,,,-0.03125,0.015625,-0.935546875,0.022552683256916572,0.20295682615354416,15.199522857376573,3.2933955509163084,12583,0,50.05804095453474,29.71644628421372,59.363981725141244,0.006829781199690792,0.004054430063251574,0.189453125,,
4.260219999999739,1450,,,,0.03125,-0.080078125,-1.04296875,0.022552683256916572,0.20295682615354416,15.19955049863023,3.2860895471635976,12559,0,49.947084015134045,29.659654081287332,59.382153465256174,0.0068428588410811,0.004063436938421629,0.189453125,,
4.2691699999989945,1450,,,,-0.03125,-0.08984375,-0.9296875,0.022552683256916572,0.20295682615354416,15.19926939222407,3.2857383672688165,12602,0,49.94082259648521,29.7627610802796,59.596056958769985,0.006819153156056499,0.004063946398989192,0.1875,,
4.2855099999997766,1450,,,,-0.03125,0.06640625,-0.939453125,0.022552683256916572,0.20295682615354416,15.199121713308688,3.288079903701853,12579,0,49.975926659448774,29.707127577554708,59.44287492653842,0.006831923605663197,0.0040610918039910284,0.1875,,
4.295449999999255,1450,,,,-0.0625,0.140625,-0.9375,0.022552683256916572,0.20295682615354416,15.19929591349368,3.287789046687134,12559,0,49.97207862174103,29.660402696398933,59.353950274733556,0.006842686130427525,0.004061404523310043,0.1875,,
4.3119149999991055,1450,,,,-0.0625,0.05859375,-1.0234375,0.022552683256916572,0.20295682615354416,15.199711195982847,3.284178131478743,12569,0,49.91855911463947,29.68422802287157,59.46531420248098,0.006837194014180419,0.004065758903165608,0.185546875,,
4.319199999999255,1450,,,,-0.1875,0.1484375,-0.9296875,0.022552683256916572,0.20295682615354416,15.199553584408038,3.285014300880064,12552,0,49.93075089177324,29.644278573726453,59.370784625253336,0.006846408005807353,0.0040647661516939855,0.1875,,
4.327354999999516,1450,,,,-0.03125,0.095703125,-1.025390625,0.022552683256916572,0.20295682615354416,15.199378933823235,3.277303742790083,12548,0,49.81298146790363,29.635667417494183,59.49386393703327,0.0068483973481810985,0.004074376200194257,0.185546875,,
4.335194999999366,1450,,,,0,-0.12890625,-0.9765625,0.022578860803670775,0.20295682615354416,15.19950727391095,3.282112536022038,12595,0,49.88649336506128,29.779783677104987,59.6950831143439,0.006815255219922216,0.0040683722679872285,0.1875,,
4.344179999999702,1450,,,,-0.1875,0.1484375,-1.01171875,0.022578860803670775,0.20295682615354416,15.19960746169292,3.28984338442222,12564,0,50.00432805366507,29.705870960524102,59.406599622023734,0.006832212609529338,0.004058785190268513,0.1875,,
4.352659999999218,1450,,,,-0.03125,-0.064453125,-0.994140625,0.022578860803670775,0.20295682615354416,15.199419520988048,3.289216433300996,12577,0,49.99418046506984,29.73841355511754,59.4837504655073,0.006824736154044717,0.004059609023801219,0.1875,,
4.359665000000037,1450,,,,-0.0625,-0.0703125,-0.958984375,0.022578860803670775,0.20295682615354416,15.199139615294957,3.283302516668306,12585,0,49.90337335009088,29.756605846138417,59.628445631089235,0.006820563716270831,0.004066996127290352,0.1875,,
4.36699499999918,1450,,,,-0.1875,0.11328125,-1.01171875,0.022578860803670775,0.20295682615354416,15.199177129520152,3.290437627758631,12567,0,50.01194433794153,29.71421326051395,59.41423324741903,0.006830294457879708,0.004058167080690184,0.1875,,
4.374569999999367,1450,,,,-0.03125,0.001953125,-0.953125,0.022578860803670775,0.20295682615354416,15.199216907854662,3.2876272262837283,12586,0,49.96935932445497,29.758145725184196,59.55278620236497,0.0068202107761634705,0.004061625542079288,0.1875,,
4.381534999999218,1450,,,,-0.0625,0.08203125,-0.953125,0.022578860803670775,0.20295682615354416,15.199250371970138,3.2824871545793624,12563,0,49.891344105227574,29.705645692495498,59.540680302864324,0.0068322644205245095,0.004067976716070844,0.185546875,,
4.389330000000075,1450,,,,0.03125,-0.09765625,-1.052734375,0.022578860803670775,0.20295682615354416,15.199457586205275,3.287114802706851,12556,0,49.962362024730304,29.688832690566255,59.42239615467122,0.0068361335815683485,0.0040621943785020586,0.185546875,,
4.398219999999739,1450,,,,0,0.0078125,-0.8828125,0.022578860803670775,0.2028088240693108,15.19926626416965,3.282996745672168,12545,0,49.89914168187373,29.661962073670786,59.44383224620823,0.006837336773797999,0.004064375001924788,0.185546875,,
4.4067299999995155,1450,,,,0.03125,0.1015625,-0.931640625,0.022578860803670775,0.2028088240693108,15.199432752975648,3.2749930082544387,12546,0,49.77803599542876,29.663477993086673,59.59149934282409,0.0068369873592225815,0.004074263277240091,0.185546875,,
4.414539999999106,1450,,,,-0.0625,0.029296875,-0.994140625,0.022578860803670775,0.2028088240693108,15.199032835359215,3.278122740347449,12568,0,49.824295168878606,29.715983379069772,59.641552937874884,0.00682490703680221,0.004070480543315138,0.18359375,,
4.422264999999665,1450,,,,-0.1875,0.1171875,-0.828125,0.022578860803670775,0.2028088240693108,15.198949736656903,3.2772580161449665,12559,0,49.81087986144326,29.69532117304961,59.61613457873417,0.006829655853440396,0.004071576824851422,0.18359375,,
4.430119999999181,1450,,,,-0.03125,0.052734375,-1.015625,0.022578860803670775,0.2028088240693108,15.1989964375323,3.2723651938566327,12547,0,49.736666923731654,29.667654972684456,59.64946347968615,0.006836024763535929,0.004077652094787666,0.18359375,,
4.438424999998882,1450,,,,-0.125,0.00390625,-0.99609375,0.022578860803670775,0.2028088240693108,15.198980220615546,3.2650628857131876,12544,0,49.62562621902065,29.658705909551227,59.76490005114243,0.006838087429971065,0.004086776117931941,0.181640625,,
4.450254999998957,1450,,,,0,0.001953125,-0.94921875,0.022578860803670775,0.2028088240693108,15.199030423278,3.2748178657248697,12542,0,49.77405637184662,29.655162064954595,59.57955655333781,0.006838904593577756,0.004074589029959476,0.181640625,,
4.459844999998808,1450,,,,-0.0625,0.05859375,-0.953125,0.022578860803670775,0.2028088240693108,15.198614772003197,3.2632306780016522,12567,0,49.59658598712992,29.71502325918506,59.913444983684904,0.006825127555860876,0.004089169043247024,0.181640625,,
4.468594999998808,1450,,,,-0.0625,0.076171875,-1,0.022578860803670775,0.2028088240693108,15.19848320457823,3.2629818058315667,12579,0,49.59237417277541,29.74136146018944,59.971642729935034,0.006819083394712187,0.004089516330933118,0.181640625,,
4.47599499999918,1450,,,,-0.0625,0.06640625,-0.99609375,0.022578860803670775,0.2028088240693108,15.198360630718525,3.2641436407686384,12541,0,49.609632202868305,29.652469273773256,59.771596678071774,0.006839525646138661,0.004088093683903282,0.181640625,,
4.484329999999143,1450,,,,0,0.033203125,-1.0234375,0.0228107714927217,0.2028088240693108,15.197953123986693,3.2711571721355788,12580,0,49.71489336330939,30.049670342176082,60.44400039758177,0.006749119766038145,0.004079437978217366,0.1796875,,
4.492274999999442,1450,,,,-0.0625,0.189453125,-0.9609375,0.0228107714927217,0.2028088240693108,15.197955460313104,3.2733941946245735,12592,0,49.74889917395175,30.079648595921118,60.46294309095116,0.0067423933967370965,0.0040766494824371995,0.1796875,,
4.499424999999814,1450,,,,0,-0.23828125,-1.1796875,0.0228107714927217,0.2028088240693108,15.19818259863037,3.2739213666114946,12556,0,49.75765474331897,29.99230232348314,60.27676038632076,0.006762029199422851,0.004075932137789155,0.1796875,,0.057230000000447034,144340,
4.508274999999442,1450,,,,-0.09375,-0.021484375,-0.916015625,0.0228107714927217,0.2028088240693108,15.19827437023458,3.2741180150430567,12580,0,49.760943913152204,30.050500257429576,60.38973117125095,0.006748933373219606,0.004075662721014158,0.1796875,,
4.516700000000187,1540,,,,0.0625,0.203125,-1.109375,0.0228107714927217,0.2028088240693108,15.19776959875207,3.2913597637333147,12586,0,50.02132735582197,30.065657937346224,60.10567797107226,0.006745530880845641,0.004054447068680315,0.181640625,,
4.526304999998771,1540,,,,0,-0.12109375,-0.970703125,0.0228107714927217,0.2028088240693108,15.196847983347217,3.3053663091026473,12614,0,50.2311493287104,30.131815531655743,59.986315133811665,0.006730720352918823,0.0040375111216774855,0.181640625,,
4.535209999999963,1540,,,,-0.03125,0.005859375,-0.849609375,0.0228107714927217,0.2028088240693108,15.196740168530212,3.441287519287951,12685,0,52.29635227582489,30.3003344502604,57.93967099358741,0.006693286650093985,0.003878068263722163,0.181640625,,
4.543415000000037,1540,,,,0,0.201171875,-1.146484375,0.0228107714927217,0.20297366783523127,15.185324791604133,3.761594220416982,12993,0,57.12102997125282,31.036885408565247,54.335304220153446,0.006539756330679258,0.003553396497531319,0.18359375,,
4.551184999998659,1540,,,,0.3125,-0.796875,-0.5625,0.0228107714927217,0.20297366783523127,15.178660486095032,3.9649286015541967,13440,0,60.18230509459872,32.105070754349725,53.34636269562083,0.00632216852559752,0.0033726469518936372,0.19140625,,
4.559379999998957,1540,,,,-0.0625,-0.716796875,-0.92578125,0.0228107714927217,0.20297366783523127,15.174130004989719,4.120254889102016,13738,0,62.52128334092849,32.81637729780324,52.48832964425182,0.0061851332946741356,0.0032464731526449333,0.197265625,,
4.56749499999918,1540,,,,0.03125,-0.05078125,-1.060546875,0.0228107714927217,0.20297366783523127,15.170688585634826,4.243927726306321,14089,0,64.38330591573447,33.65508376806913,52.27299730790036,0.006030995769732898,0.0031525822563520625,0.216796875,,
4.575254999998957,1540,,,,0.3125,-1.0625,-0.87890625,0.0228107714927217,0.20297366783523127,15.167428812816134,4.345115367574413,14304,0,65.90422802115832,34.16745427970525,51.84410060722645,0.005940555774908679,0.0030798277125720567,0.228515625,,
4.583169999999925,1540,,,,-0.1875,0.314453125,-0.96875,0.0228107714927217,0.20297366783523127,15.164576425782833,4.421380913217994,14483,0,67.04836876599177,34.597169072887354,51.60031438443542,0.005866770989488125,0.0030272722747907246,0.234375,,
4.59149499999918,1540,,,,-0.0625,0.0234375,-0.9921875,0.0228107714927217,0.20297366783523127,15.16215936046563,4.486176546892026,14583,0,68.02012372316031,34.83612351619654,51.21443715389056,0.005826528538425399,0.0029840237965653737,0.234375,,
4.6032699999995526,1540,,,,-0.03125,-0.3046875,-1.1796875,0.0228107714927217,0.20297366783523127,15.160309595742888,4.53869047851083,14688,0,68.80795281347461,35.08694175800979,50.99256746254881,0.005784877725597034,0.0029498576768510264,0.236328125,,
4.62515499999933,1540,,,,0.0625,-0.275390625,-0.962890625,0.0228107714927217,0.20297366783523127,15.156085081012765,4.649234717582542,14779,0,70.46419694127935,35.303790306722185,50.10174221689101,0.005749344930722158,0.002880521976350307,0.2421875,,
4.632700000000186,1540,,,,-0.15625,0.177734375,-0.9375,0.023014056636533307,0.20297366783523127,15.15487307600151,4.677664750161298,14818,0,70.88941558078078,35.71080695097964,50.37537220247784,0.005683816333634073,0.0028632436333733942,0.2421875,,
4.640019999999553,1540,,,,-0.1875,0.0859375,-1.015625,0.023014056636533307,0.20297366783523127,15.154199335042705,4.704222462125147,14897,0,71.28872490742985,35.90099529981662,50.359990792982956,0.005653705869159233,0.002847205755170927,0.2421875,,
4.647094999998808,1540,,,,0,0.3046875,-1.107421875,0.023014056636533307,0.20297366783523127,15.153389063260633,4.724471841368452,14882,0,71.59175993067552,35.86565537773928,50.09746290979449,0.005659276700718282,0.0028351540461049826,0.244140625,,
4.65446499999892,1540,,,,0.125,-0.21484375,-0.814453125,0.023014056636533307,0.20297366783523127,15.152417545104408,4.743633049054457,14886,0,71.87750864002987,35.87463911454077,49.91079934921609,0.005657859503120734,0.002823882904063144,0.24609375,,
4.662489999999292,1540,,,,-0.125,-0.33203125,-1.0625,0.023014056636533307,0.20297366783523127,15.151743594654537,4.758804975944336,14877,0,72.10419281247472,35.85333606863569,49.72434288513763,0.005661221244423934,0.0028150050630636123,0.248046875,,
4.669879999998957,1540,,,,-0.0625,-0.107421875,-0.943359375,0.023014056636533307,0.20297366783523127,15.151132526693637,4.777337449907773,14856,0,72.3820728282893,35.80247795360844,49.46318412093837,0.005669263119112516,0.0028041980549070775,0.248046875,,
4.684989999999292,1540,,,,-0.15625,0.443359375,-1.0546875,0.023014056636533307,0.20297366783523127,15.150074359780692,4.822682022985111,14857,0,73.06399126180202,35.80689286308348,49.0075784866182,0.005668564111701938,0.0027780260061065986,0.25390625,,
4.695990000000224,1540,,,,0.1875,-0.01953125,-0.9453125,0.023014056636533307,0.20324259842484413,15.149109752700735,4.856925850064452,14903,0,73.5781027633557,35.91747482487241,48.81544029531634,0.005658599314562647,0.002762270169951509,0.25390625,,
4.704024999999441,1540,,,,0.0625,-0.29296875,-0.884765625,0.023014056636533307,0.20324259842484413,15.148462539305257,4.869384123634419,14874,0,73.76368298636376,35.84734561379519,48.597553921517274,0.005669669397965967,0.0027553206428482745,0.255859375,,
