Time (s),ESC signal (µs),Servo 1 (µs),Servo 2 (µs),Servo 3 (µs),AccX (g),AccY (g),AccZ (g),Torque (N·m),Thrust (kgf),Voltage (V),Current (A),Motor Electrical Speed (RPM),Motor Optical Speed (RPM),Electrical Power (W),Mechanical Power (W),Motor Efficiency (%),Propeller Mech. Efficiency (kgf/W),Overall Efficiency (kgf/W),Vibration (g),App message,90% settling time (s),Max acceleration (RPM/s),
0,1000,,,,-0.0625,0.048828125,-0.95703125,0.00032435818534351795,0.008522169876222143,15.305479811307219,-0.024618713759910933,0,0,0.376801226432668,0,0,0,0,0.05859375,,
0,1000,,,,-0.0625,0.05078125,-0.955078125,0.00032435818534351795,0.008522169876222143,15.305668147882958,-0.025528239526965577,0,0,0.39072676259940375,0,0,0,0,0.05859375,,
0.00865500000026077,1000,,,,-0.0625,0.05078125,-0.953125,0.0002957324299290625,0.008522169876222143,15.305955112018365,-0.02525637925967711,0,0,0.38657300724072946,0,0,0,0,0.05859375,,
0.015810000000521542,1000,,,,-0.0625,0.048828125,-0.95703125,0.0002957324299290625,0.008522169876222143,15.305793085530537,-0.024629261049033492,0,0,0.3769703734660234,0,0,0,0,0.05859375,,
0.022709999999962746,1000,,,,-0.0625,0.05078125,-0.955078125,0.0002957324299290625,0.008522169876222143,15.305716195035197,-0.024837175036140934,0,0,0.3801507521895862,0,0,0,0,0.05859375,,
0.030950000000186266,1000,,,,-0.0625,0.05078125,-0.95703125,0.0002957324299290625,0.008771741243383107,15.305436595104325,-0.02410839607539554,0,0,0.3689895275416284,0,0,0,0,0.05859375,,
0.0389300000006333,1000,,,,-0.0625,0.048828125,-0.953125,0.0002957324299290625,0.008771741243383107,15.305365453739922,-0.023513921333793555,0,0,0.35988915926420206,0,0,0,0,0.05859375,,
0.046830000000074506,1000,,,,-0.0625,0.05078125,-0.95703125,0.0002957324299290625,0.008771741243383107,15.305363882370157,-0.023381628114557483,0,0,0.3578643264555587,0,0,0,0,0.05859375,,
0.05639500000048429,1000,,,,-0.0625,0.048828125,-0.955078125,0.0002957324299290625,0.008771741243383107,15.305305323671199,-0.02364328871640449,0,0,0.3618677526602808,0,0,0,0,0.05859375,,
0.06543500000052153,1000,,,,-0.0625,0.046875,-0.955078125,0.0002957324299290625,0.008771741243383107,15.305220614574102,-0.02317604576867975,0,0,0.35471449346311024,0,0,0,0,0.05859375,,
0.0729550000000745,1000,,,,-0.0625,0.048828125,-0.95703125,0.0002957324299290625,0.008771741243383107,15.305089899376558,-0.023943145518069572,0,0,0.3664519946279097,0,0,0,0,0.05859375,,
0.08101500000059604,1000,,,,-0.0625,0.046875,-0.953125,0.0002957324299290625,0.008771741243383107,15.305167449373435,-0.023148071780765903,0,0,0.35428511473473806,0,0,0,0,0.05859375,,
0.08929500000085681,1000,,,,-0.0625,0.048828125,-0.95703125,0.0002957324299290625,0.008771741243383107,15.30530707008351,-0.024422264124709145,0,0,0.37379025177535774,0,0,0,0,0.05859375,,
0.09768500000052154,1000,,,,-0.0625,0.046875,-0.95703125,0.0002957324299290625,0.008771741243383107,15.305308517575082,-0.024943685803949296,0,0,0.38177080679490183,0,0,0,0,0.05859375,,
0.10566000000014901,1000,,,,-0.0625,0.046875,-0.95703125,0.0002957324299290625,0.008771741243383107,15.305436199290014,-0.02639360162890611,0,0,0.40396558580069947,0,0,0,0,0.05859375,,
0.11322499999962747,1000,,,,-0.0625,0.048828125,-0.95703125,0.0002957324299290625,0.008771741243383107,15.305496246511302,-0.025908970045285862,0,0,0.3965496437790965,0,0,0,0,0.05859375,,
0.12078000000026078,1000,,,,-0.0625,0.05078125,-0.95703125,0.0002957324299290625,0.008771741243383107,15.305517964838726,-0.02494054059558483,0,0,0.38172789213851316,0,0,0,0,0.05859375,,
0.12928000000026077,1000,,,,-0.0625,0.0546875,-0.95703125,0.0002957324299290625,0.008771741243383107,15.305435071604146,-0.026373880432368893,0,0,0.4036637145438732,0,0,0,0,0.05859375,,
0.13779000000096858,1000,,,,-0.0625,0.05078125,-0.955078125,0.0002957324299290625,0.008771741243383107,15.305549065677916,-0.02737871054856089,0,0,0.41904619765599227,0,0,0,0,0.05859375,,
0.14561000000033528,1000,,,,-0.0625,0.046875,-0.95703125,0.0002957324299290625,0.008771741243383107,15.30540880602461,-0.026238855451984802,0,0,0.40159640929481505,0,0,0,0,0.05859375,,
0.15276500000059604,1000,,,,-0.0625,0.048828125,-0.955078125,0.00023792954975891838,0.008771741243383107,15.305349079130842,-0.026376013760460303,0,0,0.4036940979198035,0,0,0,0,0.05859375,,
0.1609900000002235,1000,,,,-0.0625,0.046875,-0.95703125,0.00023792954975891838,0.008771741243383107,15.305481647522448,-0.02522878588045438,0,0,0.386138719282568,0,0,0,0,0.05859375,,
0.16921500000078232,1000,,,,-0.0625,0.048828125,-0.955078125,0.00023792954975891838,0.008771741243383107,15.305343938170248,-0.02522403957749015,0,0,0.3860626012435053,0,0,0,0,0.05859375,,
0.17698000000044703,1000,,,,-0.0625,0.05078125,-0.95703125,0.00023792954975891838,0.008874700121178188,15.305179392065426,-0.025433138068011465,0,0,0.3892587406340838,0,0,0,0,0.05859375,,
0.18508000000007452,1000,,,,-0.0625,0.05078125,-0.953125,0.00023792954975891838,0.008874700121178188,15.305121663573935,-0.025418379054698632,0,0,0.389031383923002,0,0,0,0,0.05859375,,
0.1930900000007823,1000,,,,-0.0625,0.05078125,-0.955078125,0.00023792954975891838,0.008874700121178188,15.305067365357628,-0.025614764293733827,0,0,0.39203569306335345,0,0,0,0,0.05859375,,
0.20116000000014903,1000,,,,-0.0625,0.052734375,-0.95703125,0.00023792954975891838,0.008874700121178188,15.305080613738689,-0.02645561514303099,0,0,0.40490532245013533,0,0,0,0,0.05859375,,
0.21243500000052154,1000,,,,-0.0625,0.05078125,-0.95703125,0.00023792954975891838,0.008874700121178188,15.305022322079267,-0.025446341283472465,0,0,0.3894568213587933,0,0,0,0,0.05859375,,
0.2202599999997765,1000,,,,-0.0625,0.048828125,-0.955078125,0.00023792954975891838,0.008874700121178188,15.30512735778246,-0.02459486297221561,0,0,0.37642751013696796,0,0,0,0,0.05859375,,
0.22832500000018627,1000,,,,-0.0625,0.048828125,-0.953125,0.00023792954975891838,0.008874700121178188,15.305069423629268,-0.02350641290147823,0,0,0.359767281357619,0,0,0,0,0.05859375,,
0.23775499999988825,1000,,,,-0.0625,0.05078125,-0.95703125,0.00023792954975891838,0.008874700121178188,15.304812696471457,-0.02446815108966051,0,0,0.37448046945621805,0,0,0,0,0.05859375,,
0.2457250000005588,1000,,,,-0.0625,0.048828125,-0.953125,0.00023792954975891838,0.008874700121178188,15.304914086521402,-0.024978709776396456,0,0,0.38229700711989995,0,0,0,0,0.05859375,,
0.25232000000029803,1000,,,,-0.0625,0.046875,-0.95703125,0.00023792954975891838,0.008874700121178188,15.304931611047037,-0.02571167420886638,0,0,0.39351541537222184,0,0,0,0,0.05859375,,
0.2591850000005215,1000,,,,-0.0625,0.05078125,-0.95703125,0.00023792954975891838,0.008874700121178188,15.304891987379213,-0.02587176146012036,0,0,0.3959645146703824,0,0,0,0,0.05859375,,
0.26706499999947847,1000,,,,-0.0625,0.0546875,-0.953125,0.00023792954975891838,0.008874700121178188,15.304970978671737,-0.026031845745411862,0,0,0.39841664365478785,0,0,0,0,0.05859375,,
0.27481500000040976,1000,,,,-0.0625,-0.005859375,-0.98046875,0.00023792954975891838,0.008874700121178188,15.3048252336898,-0.026200771605188473,0,0,0.40099823040523175,0.000010016943104994726,0.002498001822819026,0,0.022131519413962984,0.05859375,,
0.2821399999996647,1000,,,,0,-0.21875,-1.10546875,0.00023792954975891838,0.008874700121178188,15.304675468743891,-0.02001007742909096,1,0,0.30624774115667425,0.000021276833157213326,0.006947588601585226,0,0.028978826383042455,0.060546875,,
0.29038999999966475,1000,,,,-0.0625,-0.142578125,-1.072265625,0.00023792954975891838,0.008874700121178188,15.304446366014279,-0.01345374661023764,1,0,0.20590214341832838,0.000026587856586420936,0.012912860519573502,0,0.04310154315949781,0.0625,,
0.2979850000003353,1000,,,,-0.0625,-0.09765625,-1.00390625,0.00023792954975891838,0.008874700121178188,15.304294674610226,-0.008099204002890464,1,0,0.12395260469001836,0.00002867791927909182,0.02313619738028885,0,0.07159752829214124,0.064453125,,
0.30518999999947843,1000,,,,-0.15625,0.0703125,-0.95703125,0.00019889028410462347,0.008874700121178188,15.304021419203924,-0.0028127323460604564,1,0,0.043046116070596926,0.00002462168115583768,0.057198380256786426,0,0,0.064453125,,
0.313160000000149,1000,,,,-0.1875,0.1640625,-0.96875,0.00019889028410462347,0.008874700121178188,15.304020410651399,0.0022686978594512325,1,0,0.0347201983466428,0.000024923488185690263,0.0717838300831602,0,0,0.06640625,,
0.32133499999996273,1000,,,,-0.21875,0.224609375,-0.9765625,0.00019889028410462347,0.008874700121178188,15.303822287412672,0.007549136887890537,1,0,0.11553064935562833,0.000025042893074029427,0.021676406402721744,0,0.07681684618477251,0.068359375,,
0.3288600000003353,1000,,,,-0.09375,0.16796875,-0.99609375,0.00019889028410462347,0.008397835753222357,15.303442187345576,0.012077556301910403,1,0,0.18482818463069708,0.00002508940892529023,0.013574449684403418,0,0.045435904540219174,0.0703125,,
0.337160000000149,1000,,,,0,0.0625,-0.9453125,0.00019889028410462347,0.008397835753222357,15.303074781108172,0.016454744527643478,1,0,0.2518081860105586,0.000025108073938517883,0.009971111081140576,0,0.03335013005840178,0.0703125,,
0.34480000000074507,1000,,,,0,0.0859375,-0.984375,0.00019889028410462347,0.008397835753222357,15.302861287687557,0.020748074976197184,1,0,0.3175049133472868,0.000025115317870562763,0.00791021392575794,0,0.026449467079700924,0.0703125,,
0.3532250000005588,1000,,,,0.03125,0.029296875,-0.958984375,0.00019889028410462347,0.008397835753222357,15.302721188839056,0.024663759183047237,1,0,0.3774226302468408,0.000025118220193121128,0.006655197166288991,0,0.02225048282804354,0.0703125,,
0.36323500000033526,1000,,,,0.0625,0.0078125,-0.96875,0.00019889028410462347,0.008397835753222357,15.302718543965367,0.02783312339161427,1,0,0.42592245346133195,0.000025119382913845696,0.005897642331299681,0,0.019716818601545665,0.0703125,,
0.3790800000000745,1000,,,,-0.03125,0.025390625,-0.955078125,0.00019889028410462347,0.008397835753222357,15.30258197435225,0.03732165993788808,1,0,0.5711177606184307,0.00002512002013565253,0.004398395894473935,0,0.014704210466382314,0.0703125,,
0.38692500000074503,1000,,,,-0.125,0.05078125,-0.921875,0.00019889028410462347,0.008397835753222357,15.302384723961005,0.04004990188821328,1,0,0.6128590068503319,0.00002512007394244005,0.004098834097509592,0,0.01370272062473452,0.0703125,,
0.40383499999996275,1000,,,,-0.125,0.021484375,-0.962890625,0.00019889028410462347,0.008397835753222357,15.302135217491072,0.04675458207228132,1,0,0.7154449369073327,0.000025120110182826208,0.0035111171925282444,0,0.011737920446434132,0.0703125,,
0.4112250000005588,1000,,,,-0.125,0.01171875,-0.96875,0.00019889028410462347,0.008397835753222357,15.302100980269302,0.048876841742273344,1,0,0.7479183679369085,0.00002512011328540762,0.0033586704595449457,0,0.011228278530432838,0.072265625,,
0.4193000000007451,1000,,,,-0.15625,0.025390625,-0.9921875,0.00019889028410462347,0.008397835753222357,15.301998060982408,0.05141707848197799,1,0,0.7867840352326075,0.00002512011475518989,0.0031927585754537194,0,0.010673622464568173,0.072265625,,
0.428429999999702,1000,,,,-0.1875,0.03125,-0.984375,0.00019889028410462347,0.008397835753222357,15.301961522574057,0.052937554757824815,1,0,0.8100484260033926,0.00002512011537103323,0.00310106341357523,0,0.010367078663007224,0.07421875,,
0.43730000000074504,1000,,,,-0.1875,0.01171875,-1.01171875,0.00019889028410462347,0.008397835753222357,15.302000427658704,0.05580802661668885,1,0,0.8539744471553611,0.000025120115591454648,0.0029415535412249424,0,0.00983382556843011,0.076171875,,
0.44514000000059606,1000,,,,-0.25,0.0546875,-1.00390625,0.00019889028410462347,0.008397835753222357,15.301902330295311,0.05822282351140172,1,0,0.8909199587654906,0.000025120115665829765,0.002819570424781776,0,0.00942602718751399,0.078125,,
0.4531450000004843,1000,,,,-0.25,0.044921875,-1.025390625,0.00019889028410462347,0.008397835753222357,15.301907133956473,0.06092814028917544,1,0,0.9323167445496344,0.000025120115695079686,0.0026943756874402407,0,0.009007492145042425,0.080078125,,
0.46044500000029803,1000,,,,-0.25,0.041015625,-1.06640625,0.000166351078662986,0.008397835753222357,15.30181400022302,0.06223706487301535,1,0,0.9523399906066946,0.00002101036942433777,0.0022061836772131107,0,0.00881810680644888,0.08203125,,
0.46916500000003725,1000,,,,-0.25,0.04296875,-1.08984375,0.000166351078662986,0.008397835753222357,15.301855834304655,0.06369678376751896,1,0,0.974679002319452,0.000021010369428194874,0.002155619376040349,0,0.008616001507407007,0.083984375,,
0.477894999999553,1000,,,,-0.25,0.0546875,-1.08984375,0.000166351078662986,0.008203882483076172,15.301863899446547,0.06575463597249594,1,0,1.0061684904087849,0.000021010369429816793,0.0020881561716647205,0,0.00815358715888937,0.087890625,,
0.4851500000003725,1000,,,,-0.1875,0.0078125,-1.10546875,0.000166351078662986,0.008203882483076172,15.301725056230373,0.06708486409951227,1,0,1.0265141458853162,0.000021010369430322183,0.002046768621215815,0,0.007991981908832577,0.08984375,,
0.4934400000004098,1000,,,,-0.1875,0.029296875,-1.119140625,0.000166351078662986,0.008203882483076172,15.301836260192132,0.06872919507273735,1,0,1.051682889297831,0.000021010369430556456,0.001997785610507012,0,0.007800718797044987,0.08984375,,
0.5025700000002981,1000,,,,-0.1875,-0.013671875,-1.06640625,0.000166351078662986,0.008203882483076172,15.301808704048543,0.07144126481480377,1,0,1.0931805677714013,0.000021010369430654813,0.0019219486743610285,0,0.007504599628770307,0.091796875,,
0.5111500000003726,1000,,,,-0.15625,0.033203125,-1.09375,0.000166351078662986,0.008203882483076172,15.301782703118688,0.07352296644927923,1,0,1.1250324562955567,0.00002101036943069008,0.0018675345153927236,0,0.00729212960672215,0.09375,,
0.5215050000008196,1000,,,,-0.125,0.0078125,-1.0625,0.000166351078662986,0.008203882483076172,15.301825354800865,0.07462422661507843,1,0,1.1418868829010127,0.00002101036943070193,0.001839969417752149,0,0.007184496648419199,0.095703125,,
0.5295049999998882,1000,,,,-0.125,0.013671875,-1.056640625,0.000166351078662986,0.008203882483076172,15.301793962239325,0.07657132717535085,1,0,1.1716786718524357,0.000021010369430707366,0.0017931852764282005,0,0.007001819423840627,0.095703125,,
0.5370099999997765,1000,,,,-0.125,0.015625,-0.99609375,0.000166351078662986,0.008203882483076172,15.301803862335422,0.07865948166075727,1,0,1.2036319602858778,0.000021010369430708844,0.001745580885515753,0,0.006815939384932621,0.09765625,,
0.5441650000000372,1000,,,,-0.125,0.01953125,-0.9921875,0.000166351078662986,0.008203882483076172,15.30184051827193,0.07904364415012101,1,0,1.2095132367681898,0.0000210103694307094,0.0017370929719503483,0,0.006782796776161693,0.09765625,,
0.552535000000149,1000,,,,-0.125,0.025390625,-0.998046875,0.000166351078662986,0.008203882483076172,15.30204255815999,0.07978051331761461,1,0,1.2208048100979887,0.000021010369430709667,0.001721026101545525,0,0.006720060746170948,0.09765625,,
0.5601450000004843,1000,,,,-0.125,0.03515625,-0.994140625,0.000166351078662986,0.008203882483076172,15.302138540167864,0.0808082420088005,1,0,1.2365389144060779,0.000021010369430709772,0.0016991272321422461,0,0.006634552610919309,0.09765625,,
0.5683750000009313,1000,,,,-0.125,0.04296875,-0.9921875,0.000166351078662986,0.008203882483076172,15.302098789843171,0.08222153491455801,1,0,1.2581620499151063,0.000021010369430709816,0.001669925541954431,0,0.006520529278108272,0.09765625,,
0.577855000000447,1000,,,,-0.125,0.048828125,-0.994140625,0.000166351078662986,0.008203882483076172,15.301911533867036,0.08323205786285577,1,0,1.2736095861991212,0.000021010369430709833,0.001649671112590463,0,0.00644144215933496,0.099609375,,
0.5864199999999254,1000,,,,-0.09375,0,-0.970703125,0.000166351078662986,0.008203882483076172,15.301953481432248,0.08420248498353995,1,0,1.2884625082391257,0.000021010369430709836,0.0016306543105723433,0,0.006367187582576996,0.099609375,,
0.5943100000005216,1000,,,,-0.0625,-0.05078125,-0.94921875,0.000166351078662986,0.008203882483076172,15.30205340140805,0.08564486699537803,1,0,1.3105423283197646,0.00002101036943070984,0.0016031812919501088,0,0.0062599141636228576,0.099609375,,
0.6023300000000745,1000,,,,-0.0625,-0.03515625,-0.953125,0.000166351078662986,0.008203882483076172,15.302018267403515,0.08723061606447301,1,0,1.3348044804954284,0.00002101036943070984,0.001574040972870543,0,0.006146130465512975,0.099609375,,
0.610410000000149,1000,,,,-0.0625,-0.02734375,-0.95703125,0.00021769380800009178,0.008203882483076172,15.301720623059786,0.087898211187195,1,0,1.3449938708531661,0.000027495026576450123,0.002044249209775899,0,0.006099568675262607,0.099609375,,
0.6184600000008941,1000,,,,-0.0625,-0.015625,-0.953125,0.00021769380800009178,0.008203882483076172,15.301570453454449,0.08895675594140899,1,0,1.3611780683482224,0.000027495026576450123,0.0020199434016605258,0,0.006027045743567931,0.099609375,,
0.626445000000298,1000,,,,-0.03125,-0.03125,-0.892578125,0.00021769380800009178,0.008380336992333306,15.301688195577906,0.08952777115299525,1,0,1.3699260390281875,0.000027495026576450123,0.002007044598988339,0,0.0061173645536938895,0.099609375,,
0.6344400000004098,1000,,,,0,-0.052734375,-0.900390625,0.00021769380800009178,0.008380336992333306,15.301605306643317,0.08975859732932291,1,0,1.373450629211228,0.000027495026576450123,0.002001894060963844,0,0.006101665989367328,0.099609375,,
0.643320000000298,1000,,,,0,-0.044921875,-0.91015625,0.00021769380800009178,0.008380336992333306,15.30151712862534,0.09036133394164521,1,0,1.3826654990735185,0.000027495026576450123,0.001988552299516672,0,0.006061001014308024,0.099609375,,
0.651875,1000,,,,0,-0.046875,-0.92578125,0.00021769380800009178,0.008380336992333306,15.301574114232615,0.0906601711987516,1,0,1.3872433288067147,0.000027495026576450123,0.001981990181931595,0,0.006041000031005334,0.099609375,,
0.6595300000002607,1000,,,,0,-0.080078125,-0.9140625,0.00021769380800009178,0.008380336992333306,15.301758130822103,0.09221578184291955,1,0,1.4110635896050114,0.000027495026576450123,0.001948532070347489,0,0.005939021497024915,0.099609375,,
0.6674150000009685,1000,,,,0,-0.12109375,-0.939453125,0.00021769380800009178,0.008380336992333306,15.301672173004448,0.09263263162897852,1,0,1.4174341617093122,0.000027495026576450123,0.001939774510817019,0,0.005912328924136618,0.1015625,,
0.6794050000002607,1000,,,,0,-0.125,-0.9921875,0.00021769380800009178,0.008380336992333306,15.301655505883511,0.09367494030706168,1,0,1.4333816661128596,0.000027495026576450123,0.0019181929856137325,0,0.0058465495900053375,0.1015625,,
0.6977199999997392,1000,,,,-0.0625,-0.13671875,-0.955078125,0.00021769380800009178,0.008380336992333306,15.301689679389773,0.0966177323236022,1,0,1.4784145575421075,0.000027495026576450123,0.0018597643290364464,0,0.005668462170898653,0.103515625,,
0.7061050000004471,1000,,,,-0.0625,-0.13671875,-0.95703125,0.00021769380800009178,0.008380336992333306,15.301506320932473,0.09617529055396788,1,0,1.4716268163290567,0.000027495026576450123,0.0018683423182676104,0,0.005694607423122315,0.10546875,,
0.713980000000447,1000,,,,-0.03125,-0.15625,-0.958984375,0.00021769380800009178,0.008380336992333306,15.301432321086017,0.0963993800508328,1,0,1.4750485896424677,0.000027495026576450123,0.0018640081940022432,0,0.005681397244252536,0.10546875,,
0.7224850000003353,1000,,,,0,-0.0546875,-0.9453125,0.00021769380800009178,0.008380336992333306,15.301688904553565,0.0898045786671589,1,0,1.374161724969373,0.000027495026576450123,0.0020008581287666795,0,0.0060985085234564265,0.107421875,,
0.7304900000002236,1000,,,,-0.03125,0.01953125,-0.958984375,0.00021769380800009178,0.008380336992333306,15.301900496585752,0.0845903141215608,1,0,1.294392569663056,0.000027495026576450123,0.002124164432093995,0,0.0064743395386724105,0.10546875,,
0.7386800000006333,1000,,,,-0.0625,0.05078125,-0.955078125,0.00021769380800009178,0.008380336992333306,15.30180639258482,0.07937490133060289,1,0,1.2145793725914087,0.000027495026576450123,0.002263748849759167,0,0.0068997853754531845,0.10546875,,
0.7463300000000745,1000,,,,-0.0625,0.05078125,-0.95703125,0.00021769380800009178,0.008380336992333306,15.301912704506506,0.07473254904009076,1,0,1.1435509415967202,0.000027495026576450123,0.0024043552041555136,0,0.00732834602071333,0.10546875,,
0.7543499999996275,1000,,,,-0.0625,0.05078125,-0.95703125,0.00024312366732420534,0.008380336992333306,15.302210907114679,0.0696282758213543,1,0,1.065466561717117,0.00003070685269302757,0.0028820099847657425,0,0.007865415296400731,0.103515625,,
0.7624650000007823,1000,,,,-0.0625,0.048828125,-0.95703125,0.00024312366732420534,0.008380336992333306,15.302494502817549,0.06572835274165865,1,0,1.0058077565084844,0.00003070685269302757,0.003052954453207037,0,0.008331947072494678,0.103515625,,
0.7704250000007451,1000,,,,-0.0625,0.05078125,-0.953125,0.00024312366732420534,0.008380336992333306,15.302503148745435,0.062077680331748306,1,0,0.949943898743391,0.00003070685269302757,0.003232491174862783,0,0.008821928330103515,0.103515625,,
0.7783950000004843,1000,,,,-0.0625,0.048828125,-0.955078125,0.00024312366732420534,0.008682390057207032,15.302674157008045,0.05792234070305709,1,0,0.886366706190087,0.000018335403009867597,0.0020686024059589905,0,0.009795483062001472,0.103515625,,
0.7864349999995902,1000,,,,-0.0625,0.05078125,-0.958984375,0.00024312366732420534,0.008682390057207032,15.302641183625436,0.05427928621649612,0,0,0.830616440674346,0,0,0,0,0.1015625,,
0.7935449999999254,1000,,,,-0.0625,0.046875,-0.95703125,0.00024312366732420534,0.008682390057207032,15.302769665910379,0.04986490626491713,0,0,0.7630711749842383,0,0,0,0,0.1015625,,
0.8018850000007078,1000,,,,-0.0625,0.048828125,-0.955078125,0.00024312366732420534,0.008682390057207032,15.302736342061165,0.046425423855415315,0,0,0.7104360208278573,0,0,0,0,0.1015625,,
0.8086550000002608,1000,,,,-0.0625,0.05078125,-0.953125,0.00024312366732420534,0.008682390057207032,15.302667041837188,0.04245919485873219,0,0,0.649738921787664,0,0,0,0,0.099609375,,
0.8156900000004098,1000,,,,-0.0625,0.05078125,-0.955078125,0.00024312366732420534,0.008682390057207032,15.302723784091937,0.03995306116081926,0,0,0.6113906592729487,0,0,0,0,0.099609375,,
0.8244200000008568,1000,,,,-0.0625,0.05078125,-0.95703125,0.00024312366732420534,0.008682390057207032,15.302721013703868,0.03712455889620073,0,0,0.5681067675453777,0,0,0,0,0.099609375,,
0.8363850000007078,1000,,,,-0.0625,0.048828125,-0.951171875,0.00024312366732420534,0.008682390057207032,15.3027920057653,0.03523511530579994,0,0,0.5391956408238139,0,0,0,0,0.099609375,,
0.8522350000003353,1000,,,,-0.0625,0.046875,-0.955078125,0.00024312366732420534,0.008682390057207032,15.303187583480812,0.02834774067407342,0,0,0.4338107931032143,0,0,0,0,0.09765625,,
0.8600300000002608,1000,,,,-0.0625,0.048828125,-0.955078125,0.00024312366732420534,0.008682390057207032,15.303226837049557,0.026185458747690335,0,0,0.40072201504810884,0,0,0,0,0.09765625,,
0.8686700000008568,1000,,,,-0.0625,0.046875,-0.953125,0.00024312366732420534,0.008682390057207032,15.303199024922034,0.023628892409537708,0,0,0.3615976432816251,0,0,0,0,0.09765625,,
0.8774200000008568,1000,,,,-0.0625,0.05078125,-0.95703125,0.00024312366732420534,0.008682390057207032,15.303458576564212,0.02146275257753444,0,0,0.32845434500934506,0,0,0,0,0.095703125,,
0.8855400000000373,1000,,,,-0.0625,0.05078125,-0.955078125,0.00024312366732420534,0.008682390057207032,15.303683768920243,0.019582970202285735,0,0,0.299691583231969,0,0,0,0,0.095703125,,
0.8948450000006706,1000,,,,-0.0625,0.046875,-0.95703125,0.00024312366732420534,0.008682390057207032,15.303848115066353,0.018315301268695475,0,0,0.2802945887977976,0,0,0,0,0.095703125,,
0.9037649999996648,1000,,,,-0.0625,0.046875,-0.95703125,0.0002521817463237411,0.008682390057207032,15.3042184153558,0.0161901530722192,0,0,0.2477776387952864,0,0,0,0,0.095703125,,
0.9126650000009686,1000,,,,-0.0625,0.05078125,-0.955078125,0.0002521817463237411,0.008682390057207032,15.304576828611461,0.015099482506427772,0,0,0.2310911900918986,0,0,0,0,0.09375,,
0.920144999999553,1000,,,,-0.0625,0.021484375,-0.95703125,0.0002521817463237411,0.008682390057207032,15.304548976851564,0.015462719784348752,0,0,0.23664995225489713,0,0,0,0,0.09375,,
0.927730000000447,1000,,,,-0.0625,0.015625,-0.98046875,0.0002521817463237411,0.008751031565922884,15.304457711045986,0.02318263929015653,0,0,0.35479772264663373,0,0,0,0,0.09375,,
0.9351550000002607,1000,,,,-0.0625,0.099609375,-0.953125,0.0002521817463237411,0.008751031565922884,15.304176795899954,0.029667421448403897,0,0,0.45403546292484753,0,0,0,0,0.09375,,
0.9434699999997392,1000,,,,0,0.00390625,-1,0.0002521817463237411,0.008751031565922884,15.303834453053776,0.036479829981127976,0,0,0.5582812789067304,0,0,0,0,0.09375,,
0.9504650000007823,1000,,,,0,0.001953125,-1.013671875,0.0002521817463237411,0.008751031565922884,15.303756896417054,0.04195578180552842,0,0,0.6420810851509248,0,0,0,0,0.09375,,
0.9587350000003353,1000,,,,-0.0625,0.01953125,-0.96484375,0.0002521817463237411,0.008751031565922884,15.303570638460972,0.047667614614802886,0,0,0.7294847074245705,0,0,0,0,0.091796875,,
0.9674150000000372,1000,,,,-0.03125,0.072265625,-0.9765625,0.0002521817463237411,0.008751031565922884,15.303594055610397,0.05338803463245177,0,0,0.8170288094419109,0,0,0,0,0.091796875,,
0.9753250000001863,1000,,,,-0.03125,0.0234375,-0.984375,0.0002521817463237411,0.008751031565922884,15.303515261832095,0.058950015030869454,0,0,0.9021424547101421,0,0,0,0,0.091796875,,
0.9825950000006706,1000,,,,0,0.0078125,-0.96484375,0.0002521817463237411,0.008751031565922884,15.303535992614055,0.06351656188176692,0,0,0.972027990884718,0,0,0,0,0.091796875,,
0.9936500000003725,1000,,,,-0.0625,0.046875,-0.955078125,0.0002521817463237411,0.008751031565922884,15.303492959878497,0.06708559704251942,0,0,1.0266439620494416,0,0,0,0,0.08984375,,
1.0018050000006333,1000,,,,-0.0625,0.056640625,-0.97265625,0.0002521817463237411,0.008751031565922884,15.303165356370572,0.07526413653190776,0,0,1.1517795267522357,0,0,0,0,0.08984375,,
1.0227650000005961,1000,,,,-0.0625,0.0390625,-0.970703125,0.0002521817463237411,0.008751031565922884,15.30311198853834,0.08636000803414763,0,0,1.321576874277632,0,0,0,0,0.08984375,,
1.031644999999553,1000,,,,-0.0625,0.087890625,-0.982421875,0.0002521817463237411,0.008751031565922884,15.302866795675122,0.09026624136094323,0,0,1.3813322676927746,0,0,0,0,0.087890625,,
1.0408799999998883,1000,,,,-0.03125,0.044921875,-0.986328125,0.0002521817463237411,0.008751031565922884,15.302627258818024,0.09398615227799369,0,0,1.438235055800648,0,0,0,0,0.087890625,,
1.0488349999999627,1000,,,,-0.03125,0.005859375,-0.994140625,0.0002521817463237411,0.008751031565922884,15.302470713631047,0.09904563688355426,0,0,1.5156429577235242,0,0,0,0,0.087890625,,
1.057339999999851,1000,,,,-0.0625,0.08984375,-0.982421875,0.0002636473787732501,0.008751031565922884,15.302348493147255,0.10202734684745508,0,0,1.5612580172909667,0,0,0,0,0.087890625,,
1.0660150000005961,1000,,,,0,-0.0234375,-0.95703125,0.0002636473787732501,0.008751031565922884,15.302167107670504,0.10559995533882237,0,0,1.6159081631572019,0,0,0,0,0.087890625,,
1.0740650000004097,1000,,,,-0.03125,0.03515625,-0.994140625,0.0002636473787732501,0.00877913640915746,15.301829803988282,0.10925111091863617,0,0,1.6717419051736164,0,0,0,0,0.087890625,,
1.0807000000001863,1000,,,,-0.09375,0.052734375,-0.94921875,0.0002636473787732501,0.00877913640915746,15.301751405590437,0.11223753212987854,0,0,1.7174308150283708,0,0,0,0,0.087890625,,
1.0889400000004097,1000,,,,-0.0625,0.0703125,-0.9765625,0.0002636473787732501,0.00877913640915746,15.301614857328143,0.11461125814719646,0,0,1.7537373304822126,0,0,0,0,0.087890625,,
1.0967050000000744,1000,,,,-0.03125,0.044921875,-0.97265625,0.0002636473787732501,0.00877913640915746,15.30163386401283,0.11713285882842132,0,0,1.7923241192376058,0,0,0,0,0.087890625,,
1.1049599999999626,1000,,,,0,0.02734375,-1.04296875,0.0002636473787732501,0.00877913640915746,15.301484069344673,0.11805784099198859,0,0,1.8064601732001397,0,0,0,0,0.087890625,,
1.1123799999998882,1000,,,,-0.09375,0.048828125,-0.9296875,0.0002636473787732501,0.00877913640915746,15.30147688471142,0.11951798856450942,0,0,1.8288017393270446,0,0,0,0,0.087890625,,
1.1206150000002235,1000,,,,-0.03125,0.0546875,-0.97265625,0.0002636473787732501,0.00877913640915746,15.30140539165569,0.12176210366230088,0,0,1.8631313094776696,0,0,0,0,0.087890625,,
1.1287999999998137,1000,,,,0,0.00390625,-0.953125,0.0002636473787732501,0.00877913640915746,15.301468359454484,0.12439206161929232,0,0,1.903381195034914,0,0,0,0,0.0859375,,
1.1377450000001117,1000,,,,-0.0625,0.03125,-1.0234375,0.0002636473787732501,0.00877913640915746,15.301388889280135,0.126989698156869,0,0,1.9431187564305534,0,0,0,0,0.0859375,,
1.1485449999999255,1000,,,,-0.0625,0.103515625,-0.9609375,0.0002636473787732501,0.00877913640915746,15.30132057622473,0.1282610955054509,0,0,1.962564139786681,0,0,0,0,0.087890625,,
1.1568700000001118,1000,,,,0,0.009765625,-0.9921875,0.0002636473787732501,0.00877913640915746,15.301321503023969,0.1310753933017264,0,0,2.00562673404503,0,0,0,0,0.0859375,,
1.164725000000559,1000,,,,0,0.00390625,-1.046875,0.0002636473787732501,0.00877913640915746,15.301357600711986,0.1322305351271345,0,0,2.023306703713793,0,0,0,0,0.0859375,,
1.1749400000004098,1000,,,,-0.03125,0.0390625,-0.96484375,0.0002636473787732501,0.00877913640915746,15.301273821863,0.133502175753768,0,0,2.0427533470228836,0,0,0,0,0.0859375,,
1.1836100000003353,1000,,,,-0.0625,0.06640625,-0.986328125,0.0002636473787732501,0.00877913640915746,15.301063499396927,0.1347734719037455,0,0,2.0621774516333975,0,0,0,0,0.0859375,,
1.1916850000005215,1000,,,,0,0.005859375,-0.96875,0.0002636473787732501,0.00877913640915746,15.30081746241039,0.13659954041392053,0,0,2.090084633322549,0,0,0,0,0.0859375,,
1.199804999999702,1000,,,,-0.0625,0.04296875,-0.953125,0.0002636473787732501,0.00877913640915746,15.30064588154667,0.13803883402891598,0,0,2.112083317378038,0,0,0,0,0.083984375,,
1.2173449999997392,1000,,,,-0.03125,0.029296875,-0.96484375,0.00038063911904552225,0.00877913640915746,15.30091600235847,0.1411028426215034,0,0,2.1590027426456304,0,0,0,0,0.083984375,,
1.225105000000447,1000,,,,-0.03125,0.025390625,-0.974609375,0.00038063911904552225,0.00879127104040056,15.300778150582355,0.1416571557809575,0,0,2.167464714046915,0,0,0,0,0.083984375,,
1.2325100000007079,1000,,,,-0.0625,0.02734375,-0.95703125,0.00038063911904552225,0.00879127104040056,15.300742693456808,0.14276071007688035,0,0,2.184344891621533,0,0,0,0,0.083984375,,undefined,0,
1.2489350000005215,1000,,,,-0.03125,0.013671875,-0.9609375,0.00038063911904552225,0.00879127104040056,15.300807501578797,0.14478301004786526,0,0,2.215296966241535,0,0,0,0,0.083984375,,
1.2666100000003353,1180,,,,-0.0625,0.0546875,-0.96484375,0.00038063911904552225,0.00879127104040056,15.300780515048368,0.14860092567985222,0,0,2.2737101481604336,0,0,0,0,0.08203125,,
1.2761850000005215,1180,,,,-0.03125,0.025390625,-0.96875,0.00038063911904552225,0.00879127104040056,15.300522603054896,0.1498830829170728,0,0,2.2932894979882237,0,0,0,0,0.08203125,,
1.285015000000596,1180,,,,-0.0625,0.0546875,-0.9453125,0.00038063911904552225,0.00879127104040056,15.300569170729577,0.1503005150548427,0,0,2.299683426992903,0,0,0,0,0.08203125,,
1.2934500000001863,1180,,,,-0.0625,0.0390625,-0.962890625,0.00038063911904552225,0.00879127104040056,15.3007510680519,0.1513536775877432,0,0,2.3158249440042447,0,0,0,0,0.08203125,,
1.3049950000001118,1180,,,,-0.0625,0.0703125,-0.96484375,0.00038063911904552225,0.00879127104040056,15.300602812661168,0.15143268389750103,0,0,2.317011349170934,0,0,0,0,0.08203125,,
1.3337949999999255,1180,,,,-0.08203125,0.0859375,-0.953125,0.00038063911904552225,0.00879127104040056,15.300645452444265,0.15399842100489858,0,0,2.3562752400321987,0,0,0,0,0.08203125,,
1.3437400000002235,1180,,,,0,0.009765625,-0.990234375,0.00038063911904552225,0.00879127104040056,15.300557330142986,0.154244088254114,0,0,2.360020515167706,0,0,0,0,0.08203125,,
1.3519000000003725,1180,,,,-0.03125,0.0078125,-1.0078125,0.00038063911904552225,0.00879127104040056,15.300529640605012,0.1550356531236114,0,0,2.372127605968373,0,0,0,0,0.08203125,,
1.359890000000596,1180,,,,-0.03125,0.07421875,-0.974609375,0.00043430304363531084,0.00879127104040056,15.300328801454501,0.155514774460014,0,0,2.379427182722253,0,0,0,0,0.08203125,,
1.3668150000004098,1180,,,,-0.03125,0.025390625,-0.9921875,0.00043430304363531084,0.00879127104040056,15.300184508381495,0.15496638843190114,0,0,2.371014335605603,0,0,0,0,0.08203125,,
1.3755450000008569,1180,,,,0,0.0078125,-0.9609375,0.00043430304363531084,0.008718643944480364,15.300175367936431,0.1551839077101615,0,0,2.3743410022471334,0,0,0,0,0.080078125,,
1.3832700000004843,1180,,,,-0.0625,0.044921875,-0.953125,0.00043430304363531084,0.008718643944480364,15.300166802896195,0.155916705794426,0,0,2.3855516060128097,0,0,0,0,0.080078125,,
1.3913650000002236,1180,,,,-0.0625,0.07421875,-0.9921875,0.00043430304363531084,0.008718643944480364,15.2999637185982,0.15724749897601942,0,0,2.4058810291734045,0,0,0,0,0.080078125,,
1.3995449999999254,1180,,,,-0.03125,0.029296875,-0.96484375,0.00043430304363531084,0.008718643944480364,15.300064301666497,0.1573502516398126,0,0,2.407468967972537,0,0,0,0,0.080078125,,
1.4092649999996647,1180,,,,-0.03125,0.02734375,-0.9765625,0.00043430304363531084,0.008718643944480364,15.299841173749959,0.15781666336964306,0,0,2.414569884126702,0,0,0,0,0.080078125,,
1.4180249999994412,1180,,,,-0.0625,0.056640625,-0.96484375,0.00043430304363531084,0.008718643944480364,15.299850050899913,0.1585065202905429,0,0,2.425125992535231,0,0,0,0,0.080078125,,
1.427070000000298,1180,,,,0,0.03515625,-0.984375,0.00043430304363531084,0.008718643944480364,15.299968150753964,0.1490739342959132,0,0,2.280826446835061,0,0,0,0,0.078125,,
1.4361500000003726,1180,,,,-0.041015625,0.033203125,-0.98828125,0.00043430304363531084,0.008718643944480364,15.300408701376588,0.13892970651567127,0,0,2.1256812904520723,0,0,0,0,0.078125,,
1.443890000000596,1180,,,,-0.0625,0.046875,-0.94140625,0.00043430304363531084,0.008718643944480364,15.30077653959244,0.1303455627144809,0,0,1.9943883280217043,0,0,0,0,0.078125,,
1.4527249999996275,1180,,,,-0.0625,0.048828125,-0.958984375,0.00043430304363531084,0.008718643944480364,15.30118025019584,0.12105533976652029,0,0,1.8522895740162273,0,0,0,0,0.078125,,
1.4640550000006334,1180,,,,-0.0625,0.05078125,-0.955078125,0.00043430304363531084,0.008718643944480364,15.30144787761548,0.11519175980250428,0,0,1.7626007085488213,0,0,0,0,0.078125,,
1.4720499999998138,1180,,,,-0.0625,0.05078125,-0.955078125,0.00043430304363531084,0.008718643944480364,15.301550900727054,0.10560251878477424,0,0,1.6158823164302079,0,0,0,0,0.078125,,
1.479964999999851,1180,,,,-0.0625,0.0546875,-0.94921875,0.00043430304363531084,0.008718643944480364,15.301745977868771,0.09975167030747299,0,0,1.5263747199130666,0,0,0,0,0.078125,,
1.4884150000009686,1180,,,,-0.0625,0.048828125,-0.95703125,0.00043430304363531084,0.008718643944480364,15.301850900772285,0.0931370665240664,0,0,1.4251695052865738,0,0,0,0,0.078125,,
1.4973600000003353,1180,,,,-0.0625,0.048828125,-0.955078125,0.00043430304363531084,0.008718643944480364,15.30196913734515,0.0863905453107048,0,0,1.3219454581028225,0,0,0,0,0.076171875,,
1.5064150000009686,1180,,,,-0.0625,0.048828125,-0.95703125,0.0004274872241630851,0.008718643944480364,15.302079665719777,0.08009088743894234,0,0,1.2255571400888912,0,0,0,0,0.076171875,,
1.5146450000004843,1180,,,,-0.0625,0.046875,-0.95703125,0.0004274872241630851,0.008718643944480364,15.302424976976914,0.07420829537670444,0,0,1.1355668726713624,0,0,0,0,0.076171875,,
1.5228500000005587,1180,,,,-0.0625,0.046875,-0.955078125,0.0004274872241630851,0.008688765817422128,15.30259104019726,0.06878499356941466,0,0,1.052588626295351,0,0,0,0,0.076171875,,
1.5308349999999626,1180,,,,-0.0625,0.046875,-0.955078125,0.0004274872241630851,0.008688765817422128,15.302660223630426,0.0641762388417506,0,0,0.9820671774258628,0,0,0,0,0.076171875,,
1.5403200000002981,1180,,,,-0.0625,0.05078125,-0.9609375,0.0004274872241630851,0.008688765817422128,15.302586404738374,0.05824038414271469,0,0,0.8912285105890463,0,0,0,0,0.076171875,,
1.5476350000007078,1180,,,,-0.0625,0.05078125,-0.95703125,0.0004274872241630851,0.008688765817422128,15.302718897242356,0.05358785000140742,0,0,0.8200398048791262,0,0,0,0,0.076171875,,
1.5561350000007077,1180,,,,-0.0625,0.052734375,-0.955078125,0.0004274872241630851,0.008688765817422128,15.302978398427735,0.049509391447512444,0,0,0.7576411478405858,0,0,0,0,0.076171875,,
1.5653500000005587,1180,,,,-0.0625,0.05078125,-0.95703125,0.0004274872241630851,0.008688765817422128,15.303114314013206,0.0454516195159365,0,0,0.6955513292094099,0,0,0,0,0.07421875,,
1.5739950000001117,1180,,,,-0.0625,0.048828125,-0.95703125,0.0004274872241630851,0.008688765817422128,15.303302959334108,0.04147358522639384,0,0,0.6346828395292682,0,0,0,0,0.07421875,,
1.5829350000005216,1180,,,,-0.0625,0.05078125,-0.953125,0.0004274872241630851,0.008688765817422128,15.303630866906962,0.037850153533712544,0,0,0.579244777935691,0,0,0,0,0.07421875,,
1.5907000000001863,1180,,,,-0.0625,0.046875,-0.953125,0.0004274872241630851,0.008688765817422128,15.30364905634376,0.03582070512186633,0,0,0.5481875001358177,0,0,0,0,0.07421875,,
1.5977800000002609,1180,,,,-0.0625,0.046875,-0.95703125,0.0004274872241630851,0.008688765817422128,15.303721205752485,0.03339702414696194,0,0,0.5110987466468893,0,0,0,0,0.07421875,,
1.6059500000001863,1180,,,,-0.0625,0.052734375,-0.955078125,0.0004274872241630851,0.008688765817422128,15.303833203327486,0.030306233570389196,0,0,0.4638015435823203,0,0,0,0,0.07421875,,
1.6160050000008195,1180,,,,-0.0625,0.05078125,-0.95703125,0.0004274872241630851,0.008688765817422128,15.304417949270885,0.0271225700285537,0,0,0.41509514757535376,0,0,0,0,0.07421875,,
1.6253450000006706,1180,,,,-0.0625,0.05078125,-0.953125,0.0004274872241630851,0.008688765817422128,15.304458866898436,0.023146101310452374,0,0,0.35423855543488236,0,0,0,0,0.07421875,,
1.6321200000001117,1180,,,,-0.0625,0.05078125,-0.955078125,0.0004274872241630851,0.008688765817422128,15.304559513244934,0.020945927770689432,0,0,0.3205681981266462,0,0,0,0,0.07421875,,
1.6403050000006334,1180,,,,-0.25,0.09765625,-0.96875,0.0004274872241630851,0.008688765817422128,15.302727287520314,0.019724255558208545,0,0,0.30183490375662214,0,0,0,0,0.07421875,,
1.6486500000003725,1180,,,,-0.03125,0.1171875,-1.013671875,0.0004274872241630851,0.008688765817422128,15.299191098251377,0.13253725729224153,0,0,2.027712826952114,0,0,0,0,0.078125,,
1.6563899999996647,1180,,,,0.3125,-0.0859375,-1.1640625,0.000478433225926363,0.008688765817422128,15.297268634000526,0.1777459796345608,0,0,2.719027999083463,0,0,0,0,0.08203125,,
1.6652900000009685,1180,,,,-0.21875,-0.09765625,-1.029296875,0.000478433225926363,0.008688765817422128,15.294887858177637,0.27158233662122855,0,0,4.153821382883541,0,0,0,0,0.083984375,,
1.6743250000001864,1180,,,,-0.09375,0.0625,-1.0859375,0.000478433225926363,0.008675990704244305,15.29423905755292,0.29592583541370066,10,0,4.525960470123198,0.0005113090101741828,0.011297248695595983,0,0.0019169391251904024,0.08984375,,
1.6818799999998881,1180,,,,0.03125,0.068359375,-1.017578125,0.000478433225926363,0.008675990704244305,15.293937227071467,0.30459460475636,22,0,4.658450764848414,0.0011262787571236416,0.024177109815612503,0,0.001862419749009974,0.09375,,
1.6900149999996648,1180,,,,0.0625,-0.015625,-0.99609375,0.000478433225926363,0.008675990704244305,15.293907517384389,0.31390009048852757,807,0,4.800758953630131,0.04042136870622746,0.841978718295417,0,0.0018072123153952328,0.09375,,
1.6977199999997392,1180,,,,-0.125,0.083984375,-0.9921875,0.000478433225926363,0.008675990704244305,15.294204364734483,0.31969064499141353,1889,0,4.889414057992459,0.09462529824524131,1.9353095713087027,0.09168785583912935,0.0017744438497823956,0.09375,,
1.7060200000004844,1180,,,,0.0625,-0.046875,-0.96484375,0.000478433225926363,0.008675990704244305,15.294161342161438,0.3244219620473278,2446,0,4.9617618304924065,0.1225488390981988,2.4698654083933937,0.07079618842649504,0.0017485705684070082,0.095703125,,
1.714,1180,,,,-0.0625,0.11328125,-1.02734375,0.000478433225926363,0.008675990704244305,15.294055962169866,0.32462578251157315,2725,0,4.964844884495183,0.13650920165153008,2.7495159431433094,0.06355608705698602,0.0017474847464698717,0.095703125,,
1.7222050000000746,1180,,,,-0.09375,0.04296875,-0.94921875,0.000478433225926363,0.008675990704244305,15.292584667373193,0.36420957288280786,2953,0,5.569705729978167,0.14796879784151384,2.6566717348295863,0.058633920331886254,0.00155771078847972,0.095703125,,
1.7300750000001863,1180,,,,-0.0625,0.09375,-0.96484375,0.000478433225926363,0.008675990704244305,15.29131515612116,0.40392244441768105,3185,0,6.176505396221593,0.1595857496169108,2.583754718558743,0.05436569822224865,0.001404676293094756,0.095703125,,
1.7391550000002607,1180,,,,0,0.0390625,-1.0078125,0.000478433225926363,0.008675990704244305,15.290465232996848,0.43731967464122223,3433,0,6.686821280807102,0.17201847642586313,2.5724999847027528,0.05043638848867204,0.0012974760861557092,0.095703125,,
1.7463899999996648,1180,,,,-0.03125,0.060546875,-1.00390625,0.000478433225926363,0.008675990704244305,15.289669049581905,0.46008120752238646,3784,0,7.034489398949302,0.1895613323868394,2.6947418872385107,0.045768778869622724,0.0012333504554772922,0.095703125,,
1.7557700000004843,1180,,,,-0.125,0.09765625,-0.97265625,0.000478433225926363,0.008675990704244305,15.288930160466192,0.4777611943798734,4100,0,7.304457534254798,0.20540051999140757,2.811988693591092,0.04223938042906242,0.0011877666019081635,0.095703125,,
1.766105000000447,1180,,,,-0.03125,-0.017578125,-0.994140625,0.000478433225926363,0.008675990704244305,15.288658902175548,0.4842447533245787,4312,0,7.403452858747623,0.21605993141852448,2.918367085477376,0.04015548207982281,0.0011718843720323149,0.095703125,,
1.774710000000894,1180,,,,-0.0625,0.06640625,-0.9921875,0.000478433225926363,0.008675990704244305,15.288702066683905,0.484006209087678,4484,0,7.399826729166625,0.22464502163404612,3.0358146191261675,0.038620890154324315,0.0011724586293416362,0.09765625,,
1.7820049999998882,1180,,,,-0.0625,0.009765625,-0.95703125,0.000478433225926363,0.008675990704244305,15.288854375215557,0.485950270507019,4576,0,7.429622919378421,0.2292408665194848,3.0854979991186906,0.03784661450626157,0.0011677565333248646,0.095703125,,
1.7906099999994038,1180,,,,-0.125,0.171875,-0.953125,0.000478433225926363,0.008675990704244305,15.28901543930988,0.48506081773875764,4626,0,7.416102331412142,0.23178963821472892,3.125491368059272,0.03743045103770732,0.0011698855162091946,0.09765625,,
1.7990750000001863,1180,,,,0,-0.0234375,-0.978515625,0.000478433225926363,0.008675990704244305,15.289174742390179,0.4806515624387361,4660,0,7.3487657283287,0.23349137218520483,3.1772869188783734,0.03715765007951784,0.00118060515533912,0.09765625,,
1.806855000000447,1180,,,,0,-0.0859375,-1.033203125,0.001833038726756228,0.008675990704244305,15.289215605546579,0.4782817516930541,4677,0,7.312552821833596,0.8978012388254113,12.277535092051355,0.009663598499368367,0.0011864516969148993,0.09765625,,
1.8141899999994784,1180,,,,-0.0625,0.07421875,-0.98828125,0.001833038726756228,0.008675990704244305,15.289448345323212,0.4755993844752904,4684,0,7.271652222002467,0.8990744079292581,12.364100763906873,0.009649913986793136,0.0011931250889574462,0.09765625,,
1.822070000000298,1180,,,,-0.0625,0.115234375,-0.984375,0.001833038726756228,0.011477722830527531,15.28957352358778,0.4728602069396258,4687,0,7.229830900382342,0.8996784996714806,12.443977073155365,0.012757582663939001,0.0015875506617894126,0.09765625,,
1.830410000000149,1180,,,,-0.03125,0.0859375,-0.966796875,0.001833038726756228,0.011477722830527531,15.289692200378346,0.46835338918487346,4687,0,7.160979161640723,0.8996783832257665,12.563622416960534,0.01275758431515776,0.0016028147228818014,0.09765625,,
1.8380599999995901,1180,,,,-0.0625,0.0625,-0.921875,0.001833038726756228,0.011477722830527531,15.289740150006098,0.46425425927974795,4699,0,7.098326987920903,0.9020757483811295,12.708286754275699,0.012723679636799372,0.0016169616939398493,0.09765625,,
1.8455650000004098,1180,,,,-0.0625,0.04296875,-1.01171875,0.001833038726756228,0.011477722830527531,15.289752736188529,0.46210604337320227,4693,0,7.065487141074675,0.9008727938508758,12.750328121237672,0.012740669835820876,0.0016244772089107145,0.09765625,,
1.8533300000010058,1180,,,,-0.0625,-0.07421875,-0.94140625,0.001833038726756228,0.011477722830527531,15.289908101921526,0.4605518913000122,4696,0,7.041796094143338,0.9014263074429884,12.80108505545488,0.012732846529724175,0.0016299425142505268,0.09765625,,
1.8622750000003725,1180,,,,0,-0.056640625,-0.958984375,0.001833038726756228,0.011477722830527531,15.290023001862641,0.4604561521984284,4704,0,7.040385158463136,0.9029250947569607,12.824938898002886,0.012711710968247013,0.0016302691645684103,0.099609375,,
1.8715400000000373,1180,,,,-0.0625,0.076171875,-0.9609375,0.001833038726756228,0.011477722830527531,15.290319722750798,0.4585442169084274,4705,0,7.011287683548248,0.9031947233174303,12.882009184086776,0.012707916171575831,0.0016370349283284474,0.099609375,,
1.8792600000007078,1180,,,,-0.03125,0.1015625,-0.966796875,0.001833038726756228,0.011477722830527531,15.29058042216209,0.45569718759460853,4702,0,6.967874495068447,0.9025151697395519,12.952517591674653,0.01271748466437387,0.0016472344383715515,0.099609375,,
1.8951150000002235,1180,,,,0.03125,-0.126953125,-1.0078125,0.001833038726756228,0.011477722830527531,15.290701639281405,0.44897432155396966,4705,0,6.865132394580541,0.9031416005597054,13.155487012496097,0.012708663650765754,0.0016718865960383012,0.1015625,,
1.9032949999999256,1180,,,,-0.125,0.109375,-0.9609375,0.001833038726756228,0.011477722830527531,15.290554643696389,0.4450188078577536,4692,0,6.804584399021605,0.9006783127703563,13.236345674540534,0.012743420894885006,0.0016867632404086062,0.103515625,,
1.9111049999995158,1180,,,,-0.09375,0.123046875,-1.021484375,0.001833038726756228,0.011477722830527531,15.290527437682229,0.44122045393987175,4703,0,6.746493457034217,0.9027081538458674,13.38040508887859,0.012714765876023416,0.0017012871803144356,0.103515625,,
1.9319500000001864,1180,,,,0.01953125,0.013671875,-1.009765625,0.001833038726756228,0.011477722830527531,15.290093017977497,0.44880568378754016,4732,0,6.862280652108484,0.9083341950495132,13.236622649212418,0.012636013147013453,0.0016725813781750417,0.10546875,,
1.940855000000447,1180,,,,-0.0625,0.0546875,-0.978515625,0.001833038726756228,0.011477722830527531,15.290050392473017,0.44546448491454993,4762,0,6.811174422400504,0.9141696702270322,13.421615914291118,0.012555352911322317,0.0016851312444414494,0.10546875,,
1.9492900000000373,1180,,,,-0.0625,-0.01171875,-1.013671875,0.001833038726756228,0.011477722830527531,15.290298539866829,0.43825014735108014,4785,0,6.700975588138643,0.9185257184667132,13.707343153026702,0.012495809970010631,0.0017128435523394803,0.10546875,,
1.9574000000003726,1180,,,,0,0.09375,-1.015625,0.0031851253294137476,0.011477722830527531,15.29039094157199,0.4322980860664367,4766,0,6.610006739249153,1.5897665661188718,24.050906887569337,0.007219753563284653,0.0017364162070175613,0.10546875,,
1.9652350000003354,1180,,,,-0.125,0.142578125,-0.974609375,0.0031851253294137476,0.011477722830527531,15.290284678859425,0.4311610513916076,4746,0,6.592575218214019,1.5828972947095854,24.010303141272384,0.007251085000201073,0.0017410074895796088,0.10546875,,
1.9734350000005216,1180,,,,-0.03125,0.048828125,-0.951171875,0.0031851253294137476,0.02404885219215049,15.290470135448743,0.4318906375279662,4735,0,6.603810894901285,1.5794967764843328,23.917958912237197,0.015225641831114576,0.0036416627572903836,0.10546875,,
1.9814750000005588,1180,,,,0,-0.125,-1.0078125,0.0031851253294137476,0.02404885219215049,15.290410436662066,0.42999661886740775,4721,0,6.574824788859612,1.5745061781949377,23.94750018073154,0.015273901446179674,0.003657717576428635,0.107421875,,
1.9895599999995903,1180,,,,0,-0.04296875,-0.97265625,0.0031851253294137476,0.02404885219215049,15.290566728449281,0.4289842697831612,4721,0,6.559412602574515,1.5745997262497258,24.005194087527112,0.015272994013169559,0.003666311855837749,0.109375,,
1.9968400000007822,1180,,,,0,0.078125,-0.9765625,0.0031851253294137476,0.02404885219215049,15.290706983870235,0.42873590947896784,4723,0,6.555675165306011,1.5752852415473568,24.029336442477998,0.0152663476796926,0.003668402046431768,0.109375,,
2.0039300000006333,1180,,,,-0.09375,0.103515625,-0.953125,0.0031851253294137476,0.02404885219215049,15.290593946374676,0.42999084387763237,4717,0,6.574815394391864,1.5732201259236234,23.92797411871878,0.01528638732487078,0.0036577228027821884,0.109375,,
2.0126349999997766,1180,,,,0,0.04296875,-0.9921875,0.0031851253294137476,0.02404885219215049,15.290564366902064,0.42980460926741504,4725,0,6.571955043194601,1.5760150427881563,23.98091637008615,0.015259278331255796,0.0036593147752971298,0.109375,,
2.020125,1180,,,,0.0625,0.0703125,-1.0625,0.0031851253294137476,0.02404885219215049,15.290633782608342,0.43036763788518095,4729,0,6.580593942788502,1.5775021227998933,23.9720325629366,0.015244893711753879,0.0036545108847667145,0.109375,,
2.029135000000708,1180,,,,-0.125,0.10546875,-0.955078125,0.0031851253294137476,0.02404885219215049,15.290709527612606,0.43013999296001687,4731,0,6.577145688560949,1.5778395364900315,23.98973067046742,0.015241633661714512,0.003656426865224613,0.109375,,
2.037015000000596,1180,,,,0,0.03515625,-0.9453125,0.0031851253294137476,0.02404885219215049,15.290967635738648,0.4291038344026132,4719,0,6.561412844221715,1.5740416727614306,23.98937104144582,0.015278408830155191,0.0036651941834949507,0.109375,,
2.0441749999998136,1180,,,,-0.09375,-0.033203125,-0.994140625,0.0031851253294137476,0.02404885219215049,15.291184655195178,0.4306662724079996,4722,0,6.58539749615531,1.574983612298104,23.916302899219243,0.015269271378043176,0.0036518451932765943,0.109375,,
2.0522150000007824,1180,,,,-0.03125,0.078125,-0.966796875,0.0031851253294137476,0.02404885219215049,15.29122477729549,0.42980989357938987,4726,0,6.572319694227904,1.5764757166580983,23.986595144521463,0.015254819302342694,0.0036591117460812554,0.109375,,
2.0603700000001117,1180,,,,0,0.1171875,-1.03515625,0.0031851253294137476,0.02404885219215049,15.29106619576188,0.42760546387415144,4723,0,6.538543453769115,1.5753795200074538,24.09373786602784,0.015265434066349106,0.003678013668057468,0.109375,,
2.068350000000559,1180,,,,-0.09375,0.08203125,-0.923828125,0.0031851253294137476,0.02404885219215049,15.291111778831493,0.4253183186270768,4717,0,6.5035899517113,1.573484895199221,24.19409751971198,0.015283815094459887,0.0036977811286860846,0.111328125,,
2.0786150000002235,1180,,,,0,0.01171875,-0.96484375,0.0031851253294137476,0.02404885219215049,15.291155085525581,0.4222964058323639,4713,0,6.457399833642726,1.571899547036103,24.342608287109403,0.015299229672465922,0.0037242315501135903,0.109375,,
2.0860950000006704,1180,,,,0,-0.05078125,-0.9921875,0.0031851253294137476,0.02404885219215049,15.291206894148768,0.41974836810562627,4711,0,6.4184591401844475,1.5711971609698216,24.479351299954992,0.01530606902147553,0.0037468264059805786,0.109375,,
2.094800000000745,1180,,,,-0.125,0.2265625,-0.98828125,0.0031851253294137476,0.02404885219215049,15.291180136502536,0.4191023187498753,4707,0,6.408569051630248,1.570150437996107,24.50079612697133,0.015316272638717765,0.003752608733463332,0.111328125,,
2.102620000000112,1180,,,,-0.09375,0.126953125,-1.0234375,0.0031851253294137476,0.02404885219215049,15.290796371575375,0.4341002811777983,4697,0,6.637739004333328,1.5666809675737523,23.60262984957638,0.01535019106627296,0.0036230487785751486,0.111328125,,
2.110425000000745,1180,,,,0,0.16015625,-1.03125,0.00353687393628115,0.02404885219215049,15.290593725674299,0.43850765230725464,4718,0,6.705042357029475,1.747639965178112,26.0645626398752,0.013760758892750276,0.003586681621323093,0.11328125,,
2.1182750000003727,1180,,,,0,0.037109375,-0.9921875,0.00353687393628115,0.02404885219215049,15.290480350271695,0.435126227439778,4763,0,6.653289030555778,1.763951497921062,26.512473602453905,0.013633511023683879,0.003614581011241831,0.111328125,,
2.1271100000003353,1180,,,,-0.09375,0.03515625,-0.931640625,0.00353687393628115,0.029709474915371643,15.290848927431384,0.4299050963475322,4772,0,6.573613881382949,1.7676190074639728,26.889608050604018,0.016807623582864858,0.004519504104053248,0.111328125,,
2.1353800000008194,1180,,,,0.03125,-0.087890625,-0.990234375,0.00353687393628115,0.029709474915371643,15.291204788533769,0.42553442563440624,4765,0,6.5069340469467996,1.7647909284242715,27.121696880458646,0.016834557814674588,0.004565817741661604,0.111328125,,
2.143155000000261,1180,,,,-0.125,0.09375,-0.94140625,0.00353687393628115,0.029709474915371643,15.29144041257272,0.4241846373077463,4751,0,6.486394105320174,1.7596497337457404,27.128319759394,0.016883743591475743,0.004580275948851732,0.11328125,,
2.150860000000335,1180,,,,-0.0625,0.05859375,-0.94921875,0.00353687393628115,0.029709474915371643,15.29127107386808,0.4258899578662779,4739,0,6.512398793371511,1.7553426892350115,26.95385747908505,0.016925170849869324,0.004561986428965425,0.11328125,,
2.1583200000002982,1180,,,,-0.0625,0.1328125,-0.95703125,0.00353687393628115,0.029709474915371643,15.291306097348484,0.4241368447174104,4734,0,6.485606319737485,1.7533639123172726,27.03469538354962,0.0169442719259045,0.004580832300128599,0.11328125,,
2.165265000000596,1180,,,,-0.0625,-0.009765625,-0.98046875,0.00353687393628115,0.029709474915371643,15.291250141518963,0.4222739391589194,4723,0,6.457096431923596,1.7491539489505192,27.088862113051004,0.01698505436482428,0.004601057956714,0.11328125,,
2.173049999999814,1180,,,,0.0625,0.046875,-1.03125,0.00353687393628115,0.029709474915371643,15.291106650680907,0.4212997560985128,4728,0,6.442139502408213,1.751242957464474,27.18418247245066,0.01696479337075326,0.004611740385979781,0.111328125,,
2.1814500000001864,1180,,,,-0.125,0.1484375,-0.916015625,0.00353687393628115,0.029709474915371643,15.29124996162179,0.4186452565560458,4731,0,6.4016092632457795,1.7521970312677568,27.37119619792833,0.01695555601636656,0.004640938503689333,0.11328125,,
2.1896850000005217,1180,,,,0.125,-0.05078125,-1.05859375,0.00353687393628115,0.029709474915371643,15.291156870063144,0.41869881109430446,4731,0,6.402389201751944,1.7522560281747441,27.36878332381384,0.01695498513782762,0.00464037314495688,0.11328125,,
2.1987599999997767,1180,,,,-0.09375,0.07421875,-0.970703125,0.00353687393628115,0.029709474915371643,15.2912088179499,0.41595929920079494,4718,0,6.360520503847456,1.747420108252588,27.472910545537584,0.017001907426303444,0.004670918818263456,0.115234375,,
2.2068650000002235,1180,,,,-0.03125,0.041015625,-1.009765625,0.00353687393628115,0.029709474915371643,15.291242818189932,0.41369792991909304,4720,0,6.3259554997753735,1.7480665230709136,27.633240909345396,0.016995620317228868,0.004696440706297505,0.115234375,,
2.214695000000298,1180,,,,-0.0625,0.046875,-0.921875,0.00353687393628115,0.029709474915371643,15.291138878564814,0.41166359754772974,4726,0,6.294805241351949,1.750437809860132,27.807656357040628,0.01697259665440246,0.00471968135252281,0.115234375,,
2.2229000000003727,1180,,,,0,0.07421875,-1.02734375,0.00353687393628115,0.029709474915371643,15.291276491331505,0.4101738890601662,4724,0,6.272082347143736,1.7497020047754248,27.896668250413313,0.01697973416861054,0.0047367801108193575,0.115234375,,
2.2343100000005216,1180,,,,-0.0625,-0.021484375,-0.982421875,0.00353687393628115,0.029709474915371643,15.29137874880008,0.4128051653030662,4716,0,6.312360132110211,1.746898321300192,27.674249959439614,0.017006985783385088,0.004706555756260348,0.115234375,,
2.242950000000186,1180,,,,0,-0.02734375,-0.9765625,0.00353687393628115,0.029709474915371643,15.291284675176156,0.42128388515958193,4726,0,6.441971817039387,1.7505233181915831,27.173718977803475,0.016971767588942303,0.004611860430185113,0.1171875,,
2.251165000000037,1180,,,,-0.0625,0.029296875,-0.97265625,0.00353687393628115,0.029709474915371643,15.290965222235974,0.42946917939475104,4740,0,6.566998286147361,1.7554501559057911,26.731393544121897,0.016924134710074926,0.004524057053287462,0.115234375,,
2.2589850000003353,1180,,,,-0.125,-0.03515625,-0.9609375,0.0033596705770472636,0.029709474915371643,15.290918534673402,0.4289984575065379,4781,0,6.559780465233021,1.682029326376939,25.64154906237687,0.017662875699893603,0.004529034938414861,0.115234375,,
2.267510000000708,1180,,,,-0.03125,0.0625,-0.9765625,0.0033596705770472636,0.029709474915371643,15.29087262838317,0.4304898146220497,4813,0,6.582564923202045,1.693211176005437,25.722665796082804,0.017546231289035766,0.004513358434286382,0.1171875,,
2.275100000000559,1180,,,,-0.03125,0.060546875,-1.015625,0.0033596705770472636,0.03199498845840766,15.290927922033257,0.4280472012975123,4831,0,6.545238902268321,1.6998221942813745,25.970361352162158,0.01882255012674077,0.004888284283606434,0.115234375,,
2.282394999999553,1180,,,,-0.1875,0.12109375,-0.890625,0.0033596705770472636,0.03199498845840766,15.291147415801246,0.42205493666426197,4827,0,6.453704254099888,1.698356622886493,26.315997077299702,0.018838792764283872,0.004957616153247492,0.1171875,,
2.2903100000005217,1180,,,,0.03125,-0.041015625,-1,0.0033596705770472636,0.03199498845840766,15.291386003580676,0.4193825443278935,4807,0,6.412940368481603,1.6912261335104306,26.372085756831442,0.018918220233503938,0.004989129263645896,0.1171875,,
2.2981850000005215,1180,,,,-0.125,0.19921875,-0.9921875,0.0033596705770472636,0.03199498845840766,15.291544474903292,0.42170737389769897,4777,0,6.448557063351335,1.680798941943096,26.06472929417763,0.019035583412147852,0.004961573285943719,0.1171875,,
2.3066500000003725,1180,,,,-0.03125,0.02734375,-0.943359375,0.0033596705770472636,0.03199498845840766,15.291367523416753,0.4290871751397598,4766,0,6.561329694646759,1.6768625560316237,25.55674892239812,0.019080268888659158,0.004876296413593063,0.119140625,,
2.3142350000003353,1180,,,,0,-0.00390625,-1.01953125,0.0033596705770472636,0.03199498845840766,15.291205137360318,0.4352314446865079,4779,0,6.655213302931083,1.6812128604835401,25.26159243826343,0.019030896806966763,0.004807507588722432,0.119140625,,
2.3225200000004844,1180,,,,-0.1875,0.08984375,-0.9609375,0.0033596705770472636,0.03199498845840766,15.291376685747942,0.43037799046685365,4792,0,6.5810719694838955,1.685871643791008,25.61697625566642,0.01897830631189736,0.004861668221646387,0.119140625,,
2.3316549999993295,1180,,,,-0.0625,0.01171875,-0.97265625,0.0033596705770472636,0.03199498845840766,15.29152114483014,0.4229825918585761,4797,0,6.468047247300474,1.6877921263110718,26.094307319964223,0.018956711528414112,0.0049466225639834644,0.119140625,,
2.3400800000000745,1180,,,,-0.03125,0.091796875,-0.982421875,0.0033596705770472636,0.03199498845840766,15.291403086125058,0.4195275109401393,4779,0,6.41516427550441,1.6813097327051096,26.208365998124215,0.01902980030153633,0.004987399711738787,0.119140625,,
2.3474300000006334,1180,,,,0,-0.013671875,-0.994140625,0.0033596705770472636,0.03199498845840766,15.29152962368795,0.42144109171011196,4759,0,6.444478938524567,1.6742852683056868,25.980149586601126,0.01910963983502368,0.004964713014599868,0.12109375,,
2.3552800000002607,1180,,,,-0.125,-0.00390625,-0.89453125,0.0033596705770472636,0.03199498845840766,15.291638380974899,0.4213665639319411,4745,0,6.443385121481184,1.669405858285981,25.908832497384903,0.019165494298227562,0.0049655558150236345,0.123046875,,
2.3632800000002607,1180,,,,-0.03125,0.06640625,-0.98828125,0.0033596705770472636,0.03199498845840766,15.2917213874751,0.4208620170056539,4737,0,6.435704706621267,1.6667356887666511,25.89826234649732,0.019196198097901934,0.004971481743947971,0.123046875,,
2.3727599999997766,1180,,,,-0.25,0.15625,-0.97265625,0.0033596705770472636,0.03199498845840766,15.291663430861018,0.4198459056792005,4732,0,6.420142282471354,1.6646729387217158,25.92891038048647,0.019219984727436166,0.00498353261512011,0.123046875,,
2.384225000000559,1180,,,,-0.0625,0.041015625,-0.98828125,0.0033596705770472636,0.03199498845840766,15.29190284714019,0.41744448214987173,4724,0,6.3835204651105855,1.662050199603751,26.03657666154217,0.019250314139750757,0.0050121227985838995,0.123046875,,
2.398635000000708,1180,,,,-0.041015625,0.080078125,-0.982421875,0.0033596705770472636,0.03199498845840766,15.291630248915428,0.41676754807645466,4715,0,6.373055244932229,1.6588295932871733,26.028796700079653,0.019287688493069194,0.005020353226005637,0.123046875,,
2.407655000000261,1180,,,,-0.0625,0.0703125,-0.9375,0.0033596705770472636,0.03199498845840766,15.2916892677453,0.4166552277830918,4719,0,6.371362275040678,1.6603656494382764,26.059821711011967,0.019269844849676327,0.005021687211814272,0.123046875,,
2.415330000001006,1180,,,,0.0625,-0.02734375,-1.01953125,0.003055652819239517,0.03199498845840766,15.291640074580023,0.4151313624425023,4714,0,6.348039378140773,1.5085161561359055,23.76349714102944,0.02120957626358041,0.005040137049020389,0.123046875,,
2.4249850000003352,1180,,,,0,0.017578125,-0.966796875,0.003055652819239517,0.03336922000378959,15.291658334420376,0.4173412003560757,4711,0,6.381839044721989,1.5075855685510897,23.623058463029043,0.02213421294279175,0.005228778063807037,0.123046875,,
2.4326049999995156,1180,,,,-0.125,0.09765625,-0.966796875,0.003055652819239517,0.03336922000378959,15.291756936429808,0.4178658375922727,4717,0,6.389902820498688,1.5092553457969,23.619378700959853,0.022109724571603456,0.005222179576306194,0.123046875,,
2.440660000000149,1180,,,,0,0.05859375,-0.9453125,0.003055652819239517,0.03336922000378959,15.291709609600703,0.41719332934745235,4719,0,6.3795992434437485,1.509860572572587,23.66701284762136,0.022100861900733786,0.00523061382548172,0.123046875,,
2.44906500000041,1180,,,,-0.09375,0.103515625,-0.982421875,0.003055652819239517,0.03336922000378959,15.291935772552613,0.4217888681560879,4716,0,6.449968281420558,1.509038085778156,23.396054367042584,0.022112907764406952,0.005173547922694631,0.123046875,,
2.4577900000000374,1180,,,,0,-0.060546875,-0.951171875,0.003055652819239517,0.03336922000378959,15.291598644198672,0.42312615247725577,4713,0,6.470275299546205,1.5081900754725939,23.309519389049356,0.02212534119304113,0.005157310695285246,0.123046875,,
2.464555000000633,1180,,,,0,0.16796875,-0.9453125,0.003055652819239517,0.03336922000378959,15.291618293587742,0.42147644350216695,4720,0,6.445056893774037,1.5104897606048582,23.436406931706067,0.02209165588148527,0.005177490370337065,0.123046875,,
2.472639999999665,1180,,,,-0.09375,0.060546875,-0.96484375,0.003055652819239517,0.03336922000378959,15.291724363593962,0.42139942774415995,4714,0,6.443923896039924,1.5084884470751787,23.40947024533005,0.022120964909270242,0.005178400698415519,0.123046875,,
2.480425000000745,1180,,,,-0.09375,0.06640625,-0.966796875,0.003055652819239517,0.03336922000378959,15.291737820336797,0.4184663535500842,4724,0,6.399077765120253,1.5116062637088197,23.622251818038553,0.022075338535523226,0.005214692058545801,0.123046875,,
2.488625,1180,,,,0.125,-0.18359375,-1.03125,0.003055652819239517,0.03336922000378959,15.291848997473453,0.4215661644639475,4715,0,6.446526129426744,1.5088178607057228,23.40513061474078,0.02211613533536893,0.005176310362175937,0.123046875,,
2.4965500000007452,1180,,,,-0.0625,0.0546875,-0.96484375,0.003055652819239517,0.03336922000378959,15.291921693601287,0.42105183755375364,4719,0,6.43869172881893,1.5101377550073654,23.454108670060133,0.022096805336561394,0.0051826087362487555,0.123046875,,
2.5045250000003727,1180,,,,-0.0625,0.021484375,-0.935546875,0.003055652819239517,0.03336922000378959,15.291925607168539,0.4184096076512488,4727,0,6.3982885935274725,1.5125506968024582,23.639926125441715,0.022061554746120135,0.005215335244106681,0.123046875,,
2.512485000000335,1180,,,,0,0.078125,-1.03515625,0.003055652819239517,0.03336922000378959,15.292058509186765,0.4188952158021852,4726,0,6.405770149265432,1.512213467467673,23.607051646101958,0.022066474556445472,0.005209244045014031,0.123046875,,
2.520160000000149,1180,,,,-0.0625,-0.0390625,-0.974609375,0.003055652819239517,0.03336922000378959,15.29205566028327,0.4189372008407462,4722,0,6.406410993419962,1.511065740740852,23.586774908648085,0.02208323509963847,0.005208722955499294,0.123046875,,
2.5273100000005218,1180,,,,0.0625,0.140625,-1.0625,0.003055652819239517,0.03336922000378959,15.292166996245564,0.4178607540512793,4721,0,6.389996432129259,1.5106500917462922,23.640859706128463,0.02208931120853751,0.005222103072860462,0.123046875,,
2.5391500000003724,1180,,,,-0.125,0.052734375,-0.9453125,0.003055652819239517,0.03336922000378959,15.29235626009858,0.41731100894723006,4714,0,6.381668620082229,1.508433940340757,23.636983211474252,0.022121764242623344,0.0052289177001107945,0.123046875,,0.0857399999992922,34508,
2.556625,1180,,,,0,-0.083984375,-0.994140625,0.003055652819239517,0.03336922000378959,15.292382703025615,0.4186457625152683,4710,0,6.402091217383458,1.5072825940251566,23.54359759717989,0.022138662077081386,0.0052122375128275085,0.123046875,,
2.5772000000001865,1450,,,,-0.09375,0.150390625,-0.99609375,0.0030334880552507853,0.03395479382082365,15.292671214118107,0.4153250743287302,4708,0,6.351429808688436,1.4956718664857478,23.548585303418516,0.02270203417050581,0.005346007882252781,0.123046875,,
2.589035000000149,1450,,,,-0.0625,0.087890625,-0.896484375,0.0030334880552507853,0.03395479382082365,15.29262279838223,0.4147040819229697,4702,0,6.341913097797378,1.493599719917645,23.551248604090617,0.022733529852761267,0.005354030132108961,0.123046875,,
2.596960000000894,1450,,,,-0.09375,0.01171875,-0.974609375,0.0030334880552507853,0.03395479382082365,15.280895843252878,0.4167903207354812,4705,0,6.368929479634849,1.4947224211812775,23.468974275202285,0.02271645446650169,0.005331318854981322,0.123046875,,
2.605570000000298,1450,,,,0.1875,-0.6796875,-1.044921875,0.0030334880552507853,0.03395479382082365,15.23537141398328,1.835713978191129,5064,0,27.96778426758265,1.608624062297611,5.7517036276705005,0.02110797333985278,0.0012140680683160345,0.130859375,,
2.613820000000298,1450,,,,-0.0625,0.294921875,-1.01171875,0.0030334880552507853,0.03395479382082365,15.209481481924616,2.487545846839175,6510,0,37.83428249293892,2.068132175974015,5.466291521082749,0.016418096587483423,0.0008974610216847827,0.138671875,,
2.6217249999996275,1450,,,,-0.4375,-0.01953125,-1.0625,0.0030334880552507853,0.03395479382082365,15.195535212620195,2.9135570886806548,8193,0,44.27305933502607,2.6025614416580356,5.878431445100186,0.013046682886069265,0.0007669403093172001,0.140625,,
2.6308650000002234,1450,,,,0.0625,0.02734375,-0.91796875,0.0030334880552507853,0.03395479382082365,15.186086441146822,3.2330692641971557,9643,0,49.09766931631296,3.063295510808297,6.239187223069469,0.011084400346300302,0.0006915764901602364,0.140625,,
2.6395250000003725,1450,,,,0.15625,0.275390625,-0.94921875,0.0030334880552507853,0.03395479382082365,15.181555116626413,3.398583645296383,10685,0,51.59578492953215,3.3941451103909617,6.578337968937918,0.010003931097958418,0.0006580923978033866,0.142578125,,
2.647540000000037,1450,,,,-0.1875,-0.80859375,-1.12890625,0.0030334880552507853,0.03395479382082365,15.178404782733676,3.503471390826533,11306,0,53.177106914692054,3.591606874411818,6.754047150728898,0.009453928285618475,0.000638522774006768,0.150390625,,
2.655730000000447,1450,,,,0.03125,0.17578125,-1.150390625,0.0030334880552507853,0.03395479382082365,15.176246719431411,3.5802946297684777,11694,0,54.33543462962176,3.7147878235552305,6.836768397781546,0.00914043962498167,0.0006249106876990489,0.15234375,,
2.6634950000001116,1450,,,,0.03125,-0.1484375,-0.861328125,0.0030334880552507853,0.03395479382082365,15.175551029252638,3.5979415547071807,12024,0,54.600745663727395,3.8196206486228066,6.995546676499463,0.008889572275473562,0.0006218741778719085,0.154296875,,
2.6716850000005214,1450,,,,-0.1875,-0.19140625,-0.8515625,0.0030334880552507853,0.03395479382082365,15.175638675907061,3.614530390266115,12239,0,54.85280718576389,3.888049943773953,7.088151260165641,0.008733116681074647,0.0006190165200813284,0.15625,,
2.680820000000298,1450,,,,0.03125,0.048828125,-1.076171875,0.0030334880552507853,0.03395479382082365,15.17536008282717,3.6261848456082744,12369,0,55.028660758996615,3.9291786726644293,7.1402404101249175,0.008641702668562649,0.0006170383460635537,0.15625,,
2.6932599999997766,1450,,,,-0.15625,-0.01953125,-0.97265625,0.0030334880552507853,0.03395479382082365,15.175585019594005,3.6304425775810936,12475,0,55.09408999483589,3.963034642169753,7.193211908103425,0.008567877116066155,0.0006163055569845389,0.158203125,,
2.7068100000005217,1450,,,,0.03125,0.17578125,-1.0546875,0.0030334880552507853,0.03395479382082365,15.176856706151176,3.595515534033976,12588,0,54.568624044774275,3.998681562328969,7.327803536053976,0.008491497332697634,0.0006222402418093462,0.158203125,,
2.7158450000006704,1450,,,,-0.0625,-0.033203125,-0.9453125,0.0031301118639326113,0.03395479382082365,15.178349436508958,3.570301063061474,12600,0,54.19127712868646,4.1300257879512055,7.621200323704777,0.008221448379301211,0.0006265730504965252,0.16015625,,
2.7250750000001864,1450,,,,0.03125,-0.0703125,-1.021484375,0.0031301118639326113,0.034566709328300874,15.17932962187765,3.56350604762589,12608,0,54.09163290646782,4.132578616086893,7.639959073213251,0.008364440834529563,0.0006390398564611955,0.16015625,,
2.7323499999996277,1450,,,,0,0.04296875,-0.955078125,0.0031301118639326113,0.034566709328300874,15.179427946640232,3.55279449197463,12624,0,53.92938800014918,4.138034437183992,7.673060256445977,0.008353412677692492,0.0006409623882289422,0.16015625,,
2.7407800000002607,1450,,,,0,-0.03515625,-1.0859375,0.0031301118639326113,0.034566709328300874,15.180718588476465,3.5320681836633105,12576,0,53.61933313150392,4.122379513916813,7.688233465728647,0.008385135141392615,0.0006446687660871201,0.16015625,,
2.748769999999553,1450,,,,-0.09375,-0.048828125,-0.931640625,0.0031301118639326113,0.034566709328300874,15.181270242708253,3.5207580818039896,12582,0,53.4495798990655,4.124174203141494,7.716008640160705,0.008381486238377246,0.0006467162023270688,0.16015625,,
2.757379999999888,1450,,,,0.03125,0.048828125,-0.9921875,0.0031301118639326113,0.034566709328300874,15.182155589980718,3.5064120361420783,12591,0,53.234893095290126,4.126993116191594,7.75242115881458,0.008375761324312354,0.0006493242931177993,0.16015625,,
2.7655449999999253,1450,,,,-0.0625,-0.00390625,-0.86328125,0.0031301118639326113,0.034566709328300874,15.182760630220761,3.4972414802156666,12564,0,53.0977802601934,4.118211461023427,7.7559013594223405,0.008393621759216466,0.0006510010241278393,0.16015625,,
2.7737249999996276,1450,,,,-0.03125,0.146484375,-0.931640625,0.0031301118639326113,0.034566709328300874,15.18341551166949,3.4815585665214885,12580,0,52.861950343708166,4.1235279133539,7.8005595452735665,0.008382799887532663,0.000653905296788111,0.16015625,,
2.781655000000261,1450,,,,-0.03125,0.09375,-0.9296875,0.0031301118639326113,0.034566709328300874,15.18392576477023,3.474090855930123,12600,0,52.750337656510055,4.1299845918876565,7.829304560627707,0.008369694501088142,0.0006552888732843003,0.16015625,,
2.7899900000002233,1450,,,,-0.1875,0.19140625,-1.04296875,0.0031301118639326113,0.034566709328300874,15.184918123266879,3.4589272708355128,12563,0,52.523527401972224,4.117825239274034,7.83996323734992,0.008394409019260595,0.0006581185811028168,0.16015625,,
2.7989850000003353,1450,,,,0,0.150390625,-0.98046875,0.0031301118639326113,0.034566709328300874,15.185972649789761,3.460252636049099,12580,0,52.54730189240454,4.1236822876521355,7.847562365991228,0.008382486068775636,0.0006578208220676944,0.16015625,,
2.806425000000745,1450,,,,-0.0625,-0.00390625,-0.95703125,0.0031301118639326113,0.034566709328300874,15.18561637295952,3.4808732125926105,12604,0,52.85920524934255,4.131534291255981,7.8161112558675265,0.008366555107979665,0.000653939255523158,0.16015625,,
2.8139550000000746,1450,,,,0,0.125,-1.0625,0.0031301118639326113,0.034566709328300874,15.185345641884478,3.4976149364089375,12659,0,53.11249173158751,4.149293218669337,7.812273691918758,0.00833074634802172,0.0006508207052869837,0.16015625,,
2.8224400000004097,1450,,,,0,0.01953125,-0.966796875,0.0031301118639326113,0.034566709328300874,15.185938251802755,3.4805284881993246,12671,0,52.85509070543534,4.1534843588123636,7.858248474040062,0.008322340074535585,0.0006539901619116173,0.16015625,,
2.8306500000003725,1450,,,,-0.09375,0.150390625,-0.966796875,0.0031301118639326113,0.034566709328300874,15.186238270667024,3.4601857642135956,12658,0,52.54720547611773,4.149221648484718,7.89617946547225,0.008330890045588315,0.0006578220290708162,0.16015625,,
2.841965000000782,1450,,,,0.125,-0.09375,-1.0546875,0.0031301118639326113,0.034566709328300874,15.186982260727433,3.4399811614263394,12650,0,52.24293287581837,4.1465581820646005,7.937070056769178,0.008336241241667533,0.0006616533074524369,0.16015625,,
2.8593500000005587,1450,,,,0,0.072265625,-1.046875,0.013237733553858048,0.034566709328300874,15.18757506146366,3.425832800690636,12630,0,52.0300928085133,17.507823601894998,33.649418359350534,0.0019743578707612447,0.0006643599398432166,0.162109375,,
2.8790949999997393,1450,,,,-0.01953125,0.060546875,-0.974609375,0.013237733553858048,0.1306682014819713,15.188899383948673,3.3924030563526606,12619,0,51.52686869274052,17.493076525913903,33.9494267160435,0.007469709589871283,0.0025359235831146246,0.162109375,,
2.8861650000009687,1450,,,,-0.125,0.04296875,-0.9609375,0.013237733553858048,0.1306682014819713,15.189212337114629,3.3870660376666173,12586,0,51.44686524594775,17.446971779312424,33.91260419056659,0.007489448778550204,0.0025398671203249548,0.162109375,,
2.8942249999996275,1450,,,,0,0.029296875,-1.01171875,0.013237733553858048,0.1306682014819713,15.189744008990628,3.3789550093126794,12586,0,51.32546160935615,17.446833610773542,33.99255079976358,0.0074895080905272565,0.002545874842324881,0.16015625,,
2.9026699999999255,1450,,,,-0.125,0.046875,-0.96875,0.013237733553858048,0.1306682014819713,15.190133460046416,3.378776510596083,12570,0,51.324066127624434,17.42543186451727,33.951775802771564,0.0074987066316586325,0.0025459440636883025,0.16015625,,
2.9102850000001492,1450,,,,-0.09375,0.021484375,-0.900390625,0.013237733553858048,0.1306682014819713,15.190409298048651,3.3709748876873804,12582,0,51.20648827741489,17.44206741299503,34.06222140932875,0.007491554664249166,0.002551789936737446,0.16015625,,
2.9184050000002606,1450,,,,0.125,0.05078125,-0.87890625,0.013237733553858048,0.1306682014819713,15.190488089311023,3.365287137787254,12601,0,51.120354183668866,17.46779255151226,34.169936477264464,0.007480521714271149,0.002556089517934427,0.16015625,,
2.928125,1450,,,,-0.09375,0.0859375,-0.958984375,0.013237733553858048,0.1306682014819713,15.190780633204369,3.3654823232289317,12594,0,51.1243036970977,17.458804884742094,34.14971671434856,0.007484372632869456,0.00255589205197115,0.158203125,,
2.9479000000003723,1450,,,,-0.0625,0.1796875,-0.96875,0.013237733553858048,0.1306682014819713,15.191672989179894,3.352959066605577,12567,0,50.93705768597777,17.421660794511887,34.20233045637384,0.007500329791929709,0.0025652875807536555,0.16015625,,
2.9620849999999628,1450,,,,-0.09375,0.146484375,-0.8515625,0.013237733553858048,0.1306682014819713,15.19192517455114,3.3555021455593095,12574,0,50.976537518382834,17.430126995901148,34.19244979048568,0.007496686714485736,0.002563300840800546,0.16015625,,
2.968894999999553,1450,,,,-0.0625,-0.0234375,-1.0234375,0.013237733553858048,0.1306682014819713,15.191760581600505,3.3531998173279227,12616,0,50.941008807112354,17.48865545191559,34.33119182648349,0.007471597907640109,0.0025650886101754524,0.16015625,,
2.9935149999996646,1450,,,,0.041015625,0.072265625,-0.9609375,0.013237733553858048,0.1306682014819713,15.192605559827683,3.340684220132967,12572,0,50.75369765642072,17.42832185683091,34.33901895151101,0.007497463184084865,0.002574555303665462,0.16015625,,
3.001035000000149,1450,,,,-0.09375,0.037109375,-0.986328125,0.013237733553858048,0.1306682014819713,15.192570504084124,3.338300972591748,12552,0,50.71737288995273,17.399939263434554,34.307650952641396,0.007509692965225838,0.0025763992501247456,0.162109375,,
3.0092800000002606,1450,,,,-0.0625,0.001953125,-1.025390625,0.01820520294274905,0.1306682014819713,15.192357179060709,3.3356278703458777,12570,0,50.676050022724176,23.964420893766636,47.28944123115456,0.005452591659160823,0.0025785001282336924,0.162109375,,
3.031580000001006,1450,,,,-0.03125,0.080078125,-1.03125,0.01820520294274905,0.17134459623673587,15.19256487917087,3.3246819684263134,12569,0,50.51044650792628,23.96134237004831,47.438389534505916,0.007150876340338791,0.0033922605734607366,0.1640625,,
3.039375,1450,,,,0,0.130859375,-0.912109375,0.01820520294274905,0.17134459623673587,15.192357421711773,3.3212180177256685,12594,0,50.45713120071742,24.010150940953856,47.58524785216578,0.007136339819691647,0.0033958449907730706,0.162109375,,
3.049089999999851,1450,,,,-0.0625,-0.15234375,-0.9453125,0.01820520294274905,0.17134459623673587,15.19248134415122,3.3122517818450663,12559,0,50.32132340281281,23.943030914734248,47.580288624515596,0.007156345278378791,0.003405009738419523,0.162109375,,
3.0572099999999627,1450,,,,-0.08203125,0.009765625,-0.93359375,0.01820520294274905,0.17134459623673587,15.192454152781831,3.307728595415431,12570,0,50.25251503569438,23.96369973279293,47.68656795738781,0.007150172892638141,0.003409672055518609,0.162109375,,
3.0646150000002237,1450,,,,0,0.06640625,-0.96875,0.01820520294274905,0.17134459623673587,15.19266205405697,3.3106147334063953,12556,0,50.297050835825274,23.93826224229417,47.59376910672379,0.0071577708733595495,0.003406652942655071,0.162109375,,
3.0731500000003726,1450,,,,-0.0625,0.1328125,-1.03515625,0.01820520294274905,0.17134459623673587,15.192729200043829,3.3065215820045704,12555,0,50.23508698949595,23.93459334748568,47.64517149634946,0.007158868076391845,0.0034108549721943086,0.162109375,,
3.0819150000000373,1450,,,,-0.03125,0.0234375,-0.958984375,0.01820520294274905,0.17134459623673587,15.192580594648222,3.3051357274053506,12574,0,50.21354091485706,23.97243961495743,47.740986152730216,0.0071475660795836,0.003412318532311248,0.162109375,,
3.0898150000004097,1450,,,,0,-0.2421875,-0.9921875,0.01820520294274905,0.17134459623673587,15.192747675377369,3.302846603839159,12562,0,50.17931506260542,23.94816597018265,47.725175085200156,0.0071548107880191475,0.0034146459755969275,0.1640625,,
3.0975200000004843,1450,,,,-0.03125,0.150390625,-0.96875,0.01820520294274905,0.17134459623673587,15.193106202189322,3.295499430213916,12573,0,50.06887283249442,23.970143596674035,47.874342362102354,0.007148250720555162,0.003422178022860027,0.1640625,,
3.105660000000149,1450,,,,0.03125,-0.1015625,-1.029296875,0.01820520294274905,0.17134459623673587,15.193343913806675,3.2930599205397333,12561,0,50.03259190153305,23.947332231901054,47.86346523688149,0.0071550598863150995,0.0034246596013644795,0.1640625,,
3.113660000000149,1450,,,,-0.3125,0.03515625,-0.91015625,0.01820520294274905,0.17134459623673587,15.193277709561603,3.293699567529312,12593,0,50.042092221335785,24.007025571495323,47.973664780665914,0.0071372688685007865,0.0034240094414693945,0.166015625,,
3.12206500000041,1450,,,,-0.03125,0.126953125,-0.958984375,0.01820520294274905,0.17134459623673587,15.193509066729298,3.275051919652267,12561,0,49.759531035245914,23.94764640642042,48.126752620433074,0.0071549660174871285,0.0034434527953120827,0.166015625,,
3.130105000000447,1450,,,,-0.09375,-0.044921875,-1.013671875,0.01820520294274905,0.17134459623673587,15.193500462601941,3.27561337709194,12546,0,49.76803336015149,23.918557278450688,48.06008126815377,0.007163667701275109,0.0034428645190133006,0.166015625,,
3.138155000000261,1450,,,,0,0.04296875,-1.015625,0.01820520294274905,0.17134459623673587,15.193361762721505,3.2742349269613396,12591,0,49.74663574146165,24.00391958234431,48.25234756998469,0.00713819239599376,0.0034443454051291274,0.166015625,,
3.148570000000298,1450,,,,-0.03125,0.076171875,-0.984375,0.01820520294274905,0.17134459623673587,15.193491437476734,3.2814526371432358,12568,0,49.8567225449212,23.960481275467878,48.05867704977868,0.0071511333293696544,0.0034367400721608482,0.166015625,,
3.156945000000298,1450,,,,-0.125,0.14453125,-0.99609375,0.01820520294274905,0.17134459623673587,15.193570143917468,3.2845515723780143,12580,0,49.90406470623977,23.983695690525554,48.05960362488618,0.007144211569713308,0.003433479762527475,0.166015625,,
3.165344999999739,1450,,,,0.03125,-0.009765625,-0.966796875,0.020317160138275687,0.17134459623673587,15.193485171437908,3.27877995458199,12558,0,49.816094620349325,26.719484395300803,53.636248684147525,0.006412720908150103,0.003439542933715713,0.166015625,,
3.174344999999739,1450,,,,-0.0625,-0.05078125,-0.9453125,0.020317160138275687,0.1873252508946691,15.193804909286229,3.2745795344710156,12546,0,49.75332260669393,26.693971954468118,53.652641785328015,0.007017511339795726,0.0037650802213853737,0.166015625,,
3.183084999999963,1450,,,,0,0.078125,-1.017578125,0.020317160138275687,0.1873252508946691,15.193778725533832,3.280905221488525,12575,0,49.84934795474522,26.754316562056122,53.67034406617418,0.0070016832782916275,0.0037578275058829003,0.166015625,,
3.190804999999702,1450,,,,-0.03125,0.13671875,-0.8671875,0.020317160138275687,0.1873252508946691,15.193756856699059,3.273929672238208,12553,0,49.74329140591978,26.707676028739844,53.69101093612285,0.007013910558638288,0.0037658394850883584,0.166015625,,
3.199035000000149,1450,,,,0.1875,-0.1875,-1.03515625,0.020317160138275687,0.1873252508946691,15.19360578999993,3.278470216947367,12597,0,49.81178407055385,26.800518049383776,53.803569877005984,0.006989613057087016,0.003760661345302147,0.166015625,,
3.206870000000112,1450,,,,-0.0625,-0.076171875,-0.9921875,0.020317160138275687,0.1873252508946691,15.193921708560636,3.2720056493732232,12563,0,49.714597666544854,26.728851507403853,53.764593825509074,0.007008353907117194,0.003768013012015755,0.166015625,,
3.214555000000633,1450,,,,0.09375,0.060546875,-1.025390625,0.020317160138275687,0.1873252508946691,15.19431169351894,3.2663123154654166,12553,0,49.629367409561105,26.70732587139622,53.813552872832005,0.007014002517387789,0.003774483953196245,0.16796875,,
3.2233100000005215,1450,,,,-0.125,0.0234375,-1.0234375,0.020317160138275687,0.1873252508946691,15.193637344080205,3.254280112548997,12549,0,49.44435184612197,26.698373314603263,53.99681119835991,0.007016354468015751,0.003788607675102155,0.166015625,,
3.231620000000112,1450,,,,-0.03125,0.076171875,-0.92578125,0.020317160138275687,0.1873252508946691,15.193447927302815,3.252454375554739,12538,0,49.415996190919124,26.675491086241866,53.981490089121905,0.007022373094802511,0.0037907816361919806,0.166015625,,
3.2387649999996646,1450,,,,0,0.078125,-0.94140625,0.020317160138275687,0.1873252508946691,15.193327289372505,3.258446279336304,12538,0,49.50664077679457,26.67655025042758,53.88479168017351,0.00702209427891324,0.003783840873777781,0.166015625,,
3.247015000000596,1450,,,,-0.0625,0.009765625,-0.955078125,0.020317160138275687,0.1873252508946691,15.193162944071775,3.281273621073705,12543,0,49.85292478905723,26.686533345240903,53.530526961376246,0.007019467402201021,0.003757557890280235,0.1640625,,
3.254620000000112,1450,,,,-0.0625,-0.05859375,-1.056640625,0.020317160138275687,0.1873252508946691,15.192915786463189,3.286722336571397,12580,0,49.93489567301676,26.76569642030336,53.60118622369866,0.006998706402145839,0.0037513896518641117,0.166015625,,
3.2638100000005217,1450,,,,0.125,0.078125,-0.91796875,0.020317160138275687,0.1873252508946691,15.193134065281427,3.282747114664042,12607,0,49.87521701550657,26.82376178782034,53.78174450745876,0.0069835563101267335,0.003755878412246874,0.166015625,,
3.271629999999888,1450,,,,-0.0625,0.044921875,-0.919921875,0.020317160138275687,0.1873252508946691,15.193291532294207,3.287841226083858,12596,0,49.953130259787685,26.8003408005362,53.65097374510381,0.006989659284143178,0.003750020267407868,0.166015625,,
3.2792900000000373,1450,,,,-0.15625,0.1015625,-1.0234375,0.020317160138275687,0.1873252508946691,15.193424981174598,3.2777281437953065,12570,0,49.79991666143865,26.744677304149807,53.70426116567961,0.007004206809614524,0.0037615575176196997,0.16796875,,
3.2891550000002607,1450,,,,-0.125,0.03125,-0.78125,0.020317160138275687,0.1873252508946691,15.193290058706928,3.2663723569591636,12603,0,49.62694265902278,26.81515095109048,54.03345343139965,0.0069857988581284195,0.003774668372818068,0.16796875,,
3.2997350000003354,1450,,,,0.125,0,-1.064453125,0.020317160138275687,0.1873252508946691,15.193292471473779,3.2715732882578332,12566,0,49.705969810362454,26.73647506635773,53.78926347954254,0.007006355565935421,0.003768667055674597,0.16796875,,
3.3071150000002234,1450,,,,-0.0625,0.037109375,-0.91796875,0.021369575712222196,0.1873252508946691,15.193463487894775,3.268680207261365,12580,0,49.66257338262988,28.1506274486019,56.68378726916302,0.006654389897230251,0.0037719602134066717,0.16796875,,
3.316084999999963,1450,,,,-0.09375,0.09765625,-1.103515625,0.021369575712222196,0.1873252508946691,15.193063491714192,3.2768471150441183,12558,0,49.785346271505766,28.10315029616335,56.44863880809835,0.006665631750197158,0.0037626583909467185,0.16796875,,
3.3239050000002606,1450,,,,-0.0625,-0.015625,-0.921875,0.021369575712222196,0.19449151301354722,15.19320527687146,3.276108467154521,12581,0,49.77458845077534,28.153071523952878,56.56113370338542,0.006908358572814059,0.003907445929078649,0.16796875,,
3.3322050000000747,1450,,,,0,-0.08984375,-1.05859375,0.021369575712222196,0.19449151301354722,15.193145790076132,3.272980576559911,12560,0,49.72687106776216,28.10602766122519,56.520804662986876,0.006919921781827101,0.003911195473137978,0.16796875,,
3.3405600000005213,1450,,,,-0.125,0.025390625,-0.96484375,0.021369575712222196,0.19449151301354722,15.193285990852887,3.274817690613886,12575,0,49.755241741401164,28.14125571120844,56.55937892427563,0.006911259220606946,0.003908965291022021,0.16796875,,
3.3488899999996646,1450,,,,0,0.005859375,-0.982421875,0.021369575712222196,0.19449151301354722,15.193361112282854,3.2748629449901085,12607,0,49.75617531646882,28.21236577047605,56.70123475334332,0.00689383919788395,0.003908891947110179,0.16796875,,
3.3574249999998136,1450,,,,-0.0625,0.02734375,-0.9765625,0.021369575712222196,0.19449151301354722,15.1932938504801,3.266963695430202,12565,0,49.63593942352143,28.119285258615047,56.65105886016516,0.0069166591975861075,0.003918360673181533,0.16796875,,
3.3657200000006706,1450,,,,-0.09375,0.197265625,-0.97265625,0.021369575712222196,0.19449151301354722,15.193369522099344,3.2650503139122757,12553,0,49.607115927515665,28.091271422676936,56.62750373096272,0.006923556790546055,0.00392063737988179,0.16796875,,
3.372570000000298,1450,,,,0,0.05859375,-0.9765625,0.021369575712222196,0.19449151301354722,15.193311359597,3.2665596960101806,12578,0,49.629858536193204,28.147549498802388,56.714950090529534,0.006909713864143747,0.0039188407694475255,0.16796875,,
3.38093499999959,1450,,,,0,0.13671875,-0.84375,0.021369575712222196,0.19449151301354722,15.19314770243508,3.2672776224445954,12559,0,49.640231502661656,28.10381932136881,56.615004544976614,0.006920465534934076,0.0039180218771364675,0.16796875,,
3.3901899999994787,1450,,,,-0.09375,0.041015625,-1.048828125,0.021369575712222196,0.19449151301354722,15.193194461452673,3.2655357806266894,12551,0,49.61392013589295,28.085771715183114,56.608652648804906,0.006924912549524338,0.003920099691393732,0.16796875,,
3.400040000000037,1450,,,,0,0.099609375,-0.986328125,0.021369575712222196,0.19449151301354722,15.19300351590223,3.27537431898849,12620,0,49.762773544288,28.241097934339408,56.75145479824456,0.006886825486237832,0.00390837365285625,0.16796875,,
3.4082750000003723,1450,,,,-0.0625,-0.0390625,-1.00390625,0.021369575712222196,0.19449151301354722,15.193025242894755,3.267104435734857,12569,0,49.63720016329311,28.126056477226882,56.66326139407477,0.006914994043726791,0.003918261150381613,0.16796875,,
3.4155300000002606,1450,,,,-0.0625,0.12890625,-0.93359375,0.021369575712222196,0.19449151301354722,15.192692739024862,3.2708514138698788,12578,0,49.69304052593011,28.14755397193926,56.64284912743809,0.006909712766069794,0.003913858177224242,0.16796875,,
3.4235100000007077,1450,,,,-0.125,0.02734375,-1.025390625,0.021369575712222196,0.19449151301354722,15.19257634788815,3.2624273372672454,12568,0,49.56467640087007,28.125543433931018,56.74513681166149,0.006915120181425905,0.003923994407640944,0.16796875,,
3.4315300000002606,1450,,,,-0.09375,0.171875,-1.087890625,0.021369575712222196,0.19449151301354722,15.19274471422545,3.277587072440507,12579,0,49.79554367023418,28.149092544471564,56.52934071949491,0.006909335095128849,0.0039058015773770255,0.16796875,,
3.440070000000298,1450,,,,-0.0625,0.15625,-0.9453125,0.021369575712222196,0.19449151301354722,15.192630335585088,3.282495733055723,12558,0,49.86974425045099,28.10195030568843,56.35070066643523,0.006920925804006494,0.0038999901831617747,0.16796875,,
3.450929999999702,1450,,,,0,-0.12109375,-0.98046875,0.021369575712222196,0.19449151301354722,15.192467587270368,3.2972648195232397,12591,0,50.093588897253696,28.176848438440643,56.248412339219314,0.006902528983625066,0.003882562964543551,0.169921875,,
3.4690400000000374,1450,,,,-0.03125,-0.00390625,-1.013671875,0.021792652318776768,0.1973310532352086,15.192867832032512,3.2749959511217415,12603,0,49.756580635834226,28.76117503595486,57.80376116770639,0.006861021950199236,0.003965928741757078,0.169921875,,
3.476879999999888,1450,,,,0,0.0625,-0.978515625,0.021792652318776768,0.1973310532352086,15.193005641794723,3.263952481631577,12609,0,49.589248467978436,28.77416917456541,58.02501563044644,0.006857923578542003,0.003979311228373069,0.16796875,,
3.484140000000596,1450,,,,0,-0.125,-0.9453125,0.021792652318776768,0.1973310532352086,15.19336098397592,3.2619517917749667,12573,0,49.56001108476412,28.69421078570325,57.897910346764434,0.006877033653545469,0.003981658779246574,0.16796875,,
3.4922400000002236,1450,,,,-0.125,-0.0625,-0.974609375,0.021792652318776768,0.1973310532352086,15.193587245696358,3.259234462066824,12593,0,49.51946315359253,28.738065024313517,58.03387838672204,0.006866539311824192,0.003984919073600511,0.16796875,,
3.5010250000003724,1450,,,,-0.03125,0.05859375,-0.9921875,0.021792652318776768,0.1973310532352086,15.193127986092104,3.2578534347007135,12563,0,49.496984193337696,28.669285710458148,57.92127778628792,0.006883012546183703,0.003986728816940112,0.16796875,,
3.509480000000447,1450,,,,0,0.01171875,-0.98828125,0.021792652318776768,0.1973310532352086,15.193478117225725,3.2496932525406685,12580,0,49.37414332017274,28.708735316659514,58.145282907480876,0.006873554374953554,0.003996647637116273,0.166015625,,
3.5180999999996274,1450,,,,-0.03125,-0.03515625,-0.962890625,0.021792652318776768,0.1973310532352086,15.193505513224016,3.265354385692365,12559,0,49.61217986164717,28.66030419022065,57.768685573069476,0.006885169533634646,0.003977471939058173,0.166015625,,
3.5265550000006334,1450,,,,-0.03125,0.017578125,-0.857421875,0.021792652318776768,0.1973310532352086,15.193570311321956,3.260601122005505,12589,0,49.540172404365904,28.729187958266674,57.99169959233895,0.006868661011994515,0.003983253260091967,0.166015625,,
3.5347700000004845,1450,,,,-0.0625,0.013671875,-1.01171875,0.021792652318776768,0.1973310532352086,15.193503942626538,3.2555497649091687,12565,0,49.46320818856435,28.674755558470892,57.97188781034295,0.0068816995783217575,0.003989451158989533,0.16796875,,
3.5422099999999626,1450,,,,-0.1875,0.01953125,-1.01953125,0.021792652318776768,0.1973310532352086,15.19342242203506,3.26099948409881,12591,0,49.54574267995162,28.733725572277745,57.99433819750707,0.006867576316855803,0.003982805435169254,0.16796875,,
3.549790000000037,1450,,,,0.0625,0.0546875,-0.9375,0.021792652318776768,0.1973310532352086,15.193359961544191,3.27088899283645,12557,0,49.69579386241693,28.656424969283798,57.66368286342153,0.0068861015791999,0.003970779776282892,0.16796875,,
3.556860000000335,1450,,,,0.0625,0.11328125,-0.9453125,0.021792652318776768,0.1973310532352086,15.193242654542168,3.2690165426015816,12584,0,49.666961573458316,28.719256318509682,57.82366266966702,0.00687103631955915,0.003973084863332187,0.166015625,,
3.565195000000298,1450,,,,-0.1875,0.2109375,-1.00390625,0.021792652318776768,0.1973310532352086,15.193279650562188,3.265315630365768,12588,0,49.61085351949887,28.727646392533114,57.905970880428626,0.0068690295939627995,0.003977578276448123,0.16796875,,
3.573264999999665,1450,,,,-0.0625,0.03125,-0.9453125,0.021792652318776768,0.1973310532352086,15.193282292827808,3.2608284368557507,12558,0,49.54268694962986,28.6593547649222,57.84780061295468,0.006885397625097032,0.003983051089575248,0.16796875,,
3.5812949999999253,1450,,,,0,-0.017578125,-1.05859375,0.021792652318776768,0.1973310532352086,15.193017593783006,3.2636376844055346,12575,0,49.58450475890652,28.697583098263568,57.87611117182495,0.006876225519045495,0.003979691925828167,0.16796875,,
3.589320000000298,1450,,,,-0.3125,0.10546875,-0.95703125,0.021792652318776768,0.1973310532352086,15.192968725343254,3.2675571053675827,12558,0,49.643892910122815,28.657972697538998,57.727085886319344,0.00688572968220304,0.003974931087545134,0.16796875,,
3.598265000000596,1450,,,,-0.03125,0.103515625,-0.982421875,0.021792652318776768,0.1973310532352086,15.192626113408874,3.274722785400262,12626,0,49.75163890364706,28.813825790097557,57.91532987667135,0.006848484983310524,0.0039663226696385915,0.16796875,,
3.6087599999997764,1450,,,,-0.09375,0.08203125,-0.939453125,0.021792652318776768,0.1973310532352086,15.192398302241996,3.28786164844589,12586,0,49.9505037258559,28.723544803385632,57.50401429589077,0.006870010459570759,0.003950531796800761,0.16796875,,
3.6231800000006333,1450,,,,-0.0625,-0.14453125,-1.046875,0.02200658826103697,0.19903780446078279,15.19237002118924,3.280172141009006,12581,0,49.83358889940535,28.993008382901078,58.17965156277766,0.006865027658811956,0.0039940491715851085,0.16796875,,
3.631370000000112,1450,,,,-0.03125,0.005859375,-0.935546875,0.02200658826103697,0.19903780446078279,15.192742203950589,3.2776758505074977,12600,0,49.7968842248749,29.03722329978055,58.31132560152361,0.00685457429609969,0.003996993136397035,0.16796875,,
3.640179999999702,1450,,,,-0.0625,0.10546875,-0.9375,0.02200658826103697,0.19903780446078279,15.192557901172922,3.280146609568293,12566,0,49.83381729020234,28.9578815332212,58.108896945597856,0.006873355160060368,0.003994030866664411,0.16796875,,
3.649575000000186,1450,,,,-0.09375,0.068359375,-1,0.02200658826103697,0.19903780446078279,15.192747820332169,3.281095819540144,12582,0,49.848861360619516,28.99472532181457,58.1652710421192,0.006864621142350813,0.0039928254934629695,0.166015625,,
3.656950000000186,1450,,,,0.125,0.06640625,-1.0078125,0.02200658826103697,0.19903780446078279,15.192907418526957,3.275610329532993,12587,0,49.766044475765334,29.006914265164824,58.286557773926305,0.006861736572228663,0.00399947005146669,0.166015625,,
3.6645449999999253,1450,,,,-0.0625,-0.068359375,-0.908203125,0.02200658826103697,0.19903780446078279,15.192867838256207,3.2703033275861464,12602,0,49.685286247025815,29.04077969024121,58.449456335736826,0.006853734871576708,0.004005970771129396,0.166015625,,
3.6722450000001117,1450,,,,-0.03125,0.068359375,-1.037109375,0.02200658826103697,0.19903780446078279,15.192825239354383,3.2828353999317716,12595,0,49.875544520729456,29.02515564726611,58.19516543865014,0.006857424190231008,0.00399068935233495,0.166015625,,
3.6804900000002236,1450,,,,-0.0625,-0.1328125,-0.94921875,0.02200658826103697,0.19903780446078279,15.192784464211156,3.27872072473074,12570,0,49.812897289176334,28.966996692887825,58.15159982509582,0.006871192294148047,0.0039957082461057935,0.166015625,,
3.6889550000000746,1450,,,,-0.125,-0.0234375,-0.966796875,0.02200658826103697,0.19903780446078279,15.192814404602,3.2601060773912254,12580,0,49.530186573119934,28.99060284555436,58.53118037977991,0.006865597294445526,0.0040185151365612,0.166015625,,
3.695985000000335,1450,,,,-0.0625,0.04296875,-0.9921875,0.02200658826103697,0.19903780446078279,15.192779383768048,3.261288305834913,12557,0,49.54803373741249,28.93715449794008,58.40222570949442,0.006878278390328651,0.004017067670447118,0.166015625,,
3.70306500000041,1450,,,,0.0625,0.1796875,-0.8828125,0.02200658826103697,0.19903780446078279,15.192574367245323,3.261299254847122,12551,0,49.54753146310665,28.923336217178193,58.37492880692686,0.0068815645251383535,0.004017108392352248,0.166015625,,
3.7113650000002236,1450,,,,-0.25,0.16015625,-1.03515625,0.02200658826103697,0.19903780446078279,15.192545973716278,3.265238621345052,12584,0,49.60728786993866,28.999859157935038,58.458868450876466,0.0068634059005876725,0.004012269426674241,0.166015625,,
3.719295000000857,1450,,,,-0.125,0.005859375,-0.908203125,0.02200658826103697,0.19903780446078279,15.19271387300773,3.2539860123964437,12561,0,49.436878433108554,28.947261544837534,58.55398330621773,0.006875876813165398,0.004026099761336963,0.16796875,,
3.728139999999665,1450,,,,-0.0625,0.03515625,-0.978515625,0.02200658826103697,0.19903780446078279,15.19274775400725,3.255763517582873,12551,0,49.46399386933594,28.925061662132407,58.47700397695511,0.00688115402434407,0.004023892712476088,0.16796875,,
3.736265000000596,1450,,,,0.03125,0.126953125,-0.943359375,0.02200658826103697,0.19903780446078279,15.192612120370162,3.2576548834598347,12545,0,49.49228706643493,28.910641121736703,58.41443755252027,0.006884586323169934,0.004021592378497453,0.16796875,,
3.7443250000001864,1450,,,,0,0.140625,-1.01953125,0.02200658826103697,0.19903780446078279,15.192778876130006,3.2552292401417877,12577,0,49.455978036586885,28.984488690216214,58.60664340471412,0.006867045563165946,0.0040245449056439085,0.16796875,,
3.7520099999997765,1450,,,,-0.125,-0.052734375,-1.033203125,0.02200658826103697,0.19903780446078279,15.192545681042413,3.2471174503746867,12561,0,49.3319801965274,28.947887816999366,58.679760475208084,0.00687572805722633,0.004034660754907089,0.16796875,,
3.7627350000003355,1450,,,,0,0.05859375,-0.98828125,0.022089445949159542,0.19903780446078279,15.192455067581463,3.246400136000176,12592,0,49.32078819757302,29.128190703721575,59.058648022893756,0.006833167445424362,0.004035576310408134,0.16796875,,
3.7714300000006333,1450,,,,0,-0.005859375,-0.98046875,0.022089445949159542,0.1992592275337674,15.192052976344165,3.242099930878652,12559,0,49.25415390451024,29.052378721249223,58.98462651002695,0.006858620061565804,0.00404553142705637,0.16796875,,
3.779425000000745,1450,,,,-0.09375,-0.060546875,-0.951171875,0.022089445949159542,0.1992592275337674,15.192121123987075,3.240189835835833,12579,0,49.22535645072977,29.097965420346917,59.111741424303155,0.006847874916863921,0.004047898113916316,0.16796875,,
3.786980000000447,1450,,,,0.03125,0.177734375,-1.009765625,0.022089445949159542,0.1992592275337674,15.191775437110199,3.243039012437967,12581,0,49.26752041074523,29.103093933966914,59.0715621393837,0.00684666819225042,0.004044433855662625,0.16796875,,
3.795300000000745,1450,,,,-0.15625,0.087890625,-0.994140625,0.022089445949159542,0.1992592275337674,15.191489131040285,3.2386304775542434,12566,0,49.199619699221095,29.067215695524773,59.08016336960619,0.006855119170029265,0.004050015604834482,0.16796875,,
3.8030400000009688,1450,,,,0,-0.01171875,-1.06640625,0.022089445949159542,0.1992592275337674,15.19157826817422,3.232658763703218,12545,0,49.10918862309675,29.0193001758946,59.0913859290406,0.006866438071421365,0.004057473420362171,0.16796875,,
3.810710000000894,1450,,,,-0.03125,-0.0546875,-0.91796875,0.022089445949159542,0.1992592275337674,15.191306899530373,3.2497438770082567,12564,0,49.367856580502114,29.06209756910594,58.86846134734569,0.006856326425164409,0.004036213871445759,0.16796875,,
3.8184399999994785,1450,,,,-0.0625,0.48828125,-1.04296875,0.022089445949159542,0.1992592275337674,15.191471481124884,3.2489935857449366,12553,0,49.35699340020188,29.037519228447113,58.8316208667774,0.00686212985228296,0.0040371022180810635,0.169921875,,
3.8257700000004844,1450,,,,0.03125,0.064453125,-0.9921875,0.022089445949159542,0.1992592275337674,15.191319865449628,3.2397301650990293,12549,0,49.215777215765286,29.028380448910134,58.98185925551426,0.006864290203322334,0.004048685986613633,0.169921875,,
3.832960000000894,1450,,,,0,-0.03515625,-0.859375,0.022089445949159542,0.1992592275337674,15.19143574530516,3.243065659041226,12570,0,49.266823577130516,29.076237181392074,59.01788479598502,0.006852992231790136,0.004044491060435705,0.169921875,,
3.8402800000002606,1450,,,,-0.1875,0.1328125,-0.90234375,0.022089445949159542,0.1992592275337674,15.191116736787711,3.2432997904712697,12565,0,49.26934572944818,29.064554476202222,58.99115169055391,0.006855746840947414,0.004044284018463647,0.169921875,,
3.8482750000003727,1450,,,,-0.09375,0.19921875,-1.060546875,0.022089445949159542,0.1992592275337674,15.190567904849017,3.2536826267022594,12625,0,49.425286881748185,29.205110041666206,59.089409256319556,0.006822752157053653,0.004031523944625803,0.171875,,
3.8564300000006333,1450,,,,0,0.08203125,-0.86328125,0.022089445949159542,0.1992592275337674,15.190442307332482,3.2572545107244943,12607,0,49.47913672545892,29.16306856844224,58.940132141466236,0.006832587835060284,0.004027136298666279,0.171875,,
3.8653250000001864,1450,,,,-0.09375,0.03515625,-1.0703125,0.022089445949159542,0.1992592275337674,15.190752184122836,3.2401364748014356,12574,0,49.22011023144597,29.08621399446844,59.09416670888662,0.006850641598513376,0.004048329566853829,0.173828125,,
3.873594999999739,1450,,,,0.0625,-0.08203125,-0.96875,0.022089445949159542,0.1992592275337674,15.19074807487632,3.229903354263861,12593,0,49.06464816082031,29.129933299673397,59.370512969324786,0.006840359896601668,0.004061156759560385,0.173828125,,
3.8816500000003726,1450,,,,0.03125,-0.044921875,-0.986328125,0.022089445949159542,0.1992592275337674,15.190959918020779,3.228035140078276,12591,0,49.03695242689168,29.126108999388382,59.396246214142245,0.006841258045760649,0.00406345047300481,0.17578125,,
3.890645000000484,1450,,,,-0.0625,0.1484375,-0.9921875,0.022089445949159542,0.1992592275337674,15.190810550821487,3.241055916894036,12563,0,49.23426641815633,29.06177865239501,59.02754477048078,0.006856401664780633,0.004047165562322377,0.177734375,,
3.898120000001043,1450,,,,-0.1875,0.421875,-0.92578125,0.022089445949159542,0.1992592275337674,15.190803586670507,3.2460061708495385,12580,0,49.309442182495765,29.099550612740888,59.01415494631343,0.006847501880201687,0.00404099536953395,0.177734375,,
3.906120000000112,1450,,,,-0.03125,-0.052734375,-0.9921875,0.022089445949159542,0.1992592275337674,15.190666793591374,3.2532780125759526,12649,0,49.419462275958466,29.25998517875248,59.207413094389025,0.0068099565436028344,0.004031999102319307,0.1796875,,
3.917530000000261,1450,,,,-0.09375,0.05859375,-0.943359375,0.021928255621353775,0.1992592275337674,15.190928560244423,3.2455367837471094,12587,0,49.30271742154779,28.903045450653764,58.62363569846896,0.006894056471452572,0.004041546550671079,0.1796875,,
3.9364600000008942,1450,,,,0.03125,0.115234375,-0.955078125,0.021928255621353775,0.19867936600756073,15.191395243435625,3.2568302669764777,12559,0,49.47579582642364,28.83858010394974,58.28825918257966,0.006889360200516583,0.0040156881296985955,0.1796875,,
3.9444699999997392,1450,,,,0,0.08984375,-0.861328125,0.021928255621353775,0.19867936600756073,15.191153079917418,3.2542675303671986,12597,0,49.43607621681292,28.926622254873667,58.51318403185869,0.006868391485773506,0.004018914550099165,0.1796875,,
3.9530600000005216,1450,,,,-0.25,0.09375,-1.0390625,0.021928255621353775,0.19867936600756073,15.190981210438322,3.249514892038763,12561,0,49.36331966800036,28.84470754379847,58.43348408858526,0.0068878967036112735,0.004024838024342883,0.1796875,,
3.960535000000149,1450,,,,-0.03125,0.037109375,-1.068359375,0.021928255621353775,0.19867936600756073,15.19085360808839,3.2479394439565636,12553,0,49.33897262108016,28.82503018259274,58.42243697283068,0.0068925987153880585,0.004026824140287725,0.1796875,,
3.969179999999702,1450,,,,0.0625,0.013671875,-0.873046875,0.021928255621353775,0.19867936600756073,15.19069628831023,3.2495871348340084,12572,0,49.363491227663644,28.869805329873977,58.484123816783715,0.006881908753363527,0.004024824036275202,0.1796875,,
3.9776650000000373,1450,,,,-0.03125,0.013671875,-1.048828125,0.021928255621353775,0.19867936600756073,15.190760206222002,3.2562850750135963,12547,0,49.465445737631164,28.81304677466524,58.2488368294345,0.006895465361971219,0.0040165283673247905,0.1796875,,
3.985589999999851,1450,,,,-0.1875,0.3046875,-0.9375,0.021928255621353775,0.19867936600756073,15.191148429229461,3.2511620413819564,12551,0,49.388885138109956,28.821222426562716,58.35568538542165,0.006893509340688145,0.004022754622866628,0.181640625,,
3.993890000000596,1450,,,,-0.0625,0.056640625,-1.02734375,0.021928255621353775,0.19867936600756073,15.191413283205788,3.245865633706735,12548,0,49.30928630339367,28.813825769096002,58.43488707544508,0.006895278940037612,0.004029248462147926,0.181640625,,
4.00140500000026,1450,,,,-0.09375,0.03515625,-1.009765625,0.021928255621353775,0.19867936600756073,15.191441620624955,3.2437929733982225,12553,0,49.27789158477253,28.82492337889211,58.494636137799695,0.006892624254226101,0.004031815477855288,0.181640625,,
4.008535000000149,1450,,,,0.1875,0.04296875,-0.93359375,0.021928255621353775,0.19867936600756073,15.191553619922521,3.247277310123459,12557,0,49.3311873754983,28.835445786335395,58.45277059083585,0.006890109051191133,0.004027459637151169,0.181640625,,
4.016150000000373,1450,,,,-0.125,-0.04296875,-0.984375,0.021928255621353775,0.19867936600756073,15.191691018216597,3.245851644668949,12538,0,49.30997527678084,28.791988255799314,58.38978440809913,0.00690050871938455,0.00402919216431072,0.181640625,,
4.02331500000041,1450,,,,-0.1875,0.048828125,-0.998046875,0.021928255621353775,0.19867936600756073,15.19136734165301,3.2433537145213567,12588,0,49.27097769620872,28.905975418214837,58.66734692467668,0.006873297411107765,0.004032381237339413,0.181640625,,
4.031394999999553,1450,,,,0.0625,0,-1.015625,0.021928255621353775,0.19867936600756073,15.191299942265728,3.2339831352118384,12565,0,49.12840781523194,28.854368713701593,58.73255413084135,0.006885590462189428,0.004044083145433456,0.181640625,,
4.039715000000783,1450,,,,-0.1875,0.01953125,-0.82421875,0.021928255621353775,0.19867936600756073,15.191138333934559,3.2340043855318723,12594,0,49.1282079931657,28.919714074502533,58.86580287749473,0.006870032168911695,0.004044099594172034,0.181640625,,
4.047514999999665,1450,,,,-0.09375,0.24609375,-1.00390625,0.021928255621353775,0.19867936600756073,15.19088576218233,3.2400028875997235,12577,0,49.21851373466828,28.880388600517463,58.67789660656666,0.006879386865452389,0.00403667951207588,0.181640625,,
4.056785000000149,1450,,,,0.25,-0.015625,-1.0390625,0.021928255621353775,0.19867936600756073,15.190947378179096,3.2289068209439833,12581,0,49.050153606003605,28.889351355169218,58.897575708373,0.006877252575351115,0.004050535042223454,0.18359375,,
4.067109999999404,1450,,,,-0.15625,-0.080078125,-0.93359375,0.021863692950157547,0.19867936600756073,15.190901394648952,3.2213226567670143,12557,0,48.9347948392963,28.749682136670813,58.75100167699864,0.00691066304883215,0.004060083763711102,0.18359375,,
4.085605000000447,1450,,,,0,0.0625,-0.9375,0.021863692950157547,0.19783761581983866,15.191120111916442,3.206311616444554,12555,0,48.70746488164218,28.744852839729045,59.01529243942024,0.006882540569016304,0.004061751444066709,0.18359375,,
4.092620000000112,1450,,,,-0.125,-0.03125,-1.0390625,0.021863692950157547,0.19783761581983866,15.190985344305746,3.214469422518174,12546,0,48.83095788719254,28.724065924805426,58.823474221338635,0.006887521297915932,0.004051479315168786,0.18359375,,
4.100180000000633,1450,,,,-0.0625,-0.1640625,-0.875,0.021863692950157547,0.19783761581983866,15.190971177255731,3.2274353511134435,12580,0,49.02787739522055,28.802486855787553,58.74716260629987,0.0068687685480215855,0.004035206627956623,0.18359375,,
4.109715000000782,1450,,,,0.09375,0.04296875,-1.033203125,0.021863692950157547,0.19783761581983866,15.191021222464862,3.2196016510197487,12559,0,48.90903700852391,28.755717632234965,58.79428300177613,0.006879940133994919,0.004045011472733747,0.185546875,,
4.116714999999851,1450,,,,-0.03125,0.158203125,-0.90234375,0.021863692950157547,0.19783761581983866,15.191002034116313,3.221346367056194,12572,0,48.93547921454383,28.78467846730052,58.82169527982387,0.0068730180899739,0.004042825757411618,0.185546875,,
4.125020000000484,1450,,,,-0.125,0.19921875,-0.984375,0.021863692950157547,0.19783761581983866,15.191051026118654,3.218209125934064,12597,0,48.88797904478508,28.84064869979251,58.99333386919574,0.006859679817855899,0.004046753817305569,0.185546875,,
4.133389999999665,1450,,,,-0.125,0.125,-1.0625,0.021863692950157547,0.19783761581983866,15.191098265610584,3.220203435727527,12548,0,48.91842682739368,28.729089878973877,58.72856455573089,0.006886316853518956,0.004044235038831057,0.185546875,,
4.141485000000335,1450,,,,0.03125,0.06640625,-0.986328125,0.021863692950157547,0.19783761581983866,15.1909448717284,3.223862616745239,12601,0,48.973519285002986,28.850293375425952,58.909986042723894,0.006857386621529208,0.0040396855016384715,0.185546875,,
4.149514999999664,1450,,,,0.0625,-0.1640625,-1.0078125,0.021863692950157547,0.19783761581983866,15.190995926794221,3.2186013357813663,12568,0,48.893759781829175,28.77490994787253,58.85190682056406,0.0068753513452599275,0.00404627536729877,0.185546875,,
4.158650000000373,1450,,,,-0.15625,0.08203125,-0.904296875,0.021863692950157547,0.19783761581983866,15.190611654532738,3.2121978792986656,12597,0,48.79525054193965,28.84090781654451,59.105973422056046,0.006859618188105356,0.004054444103116075,0.185546875,,
4.167435000000522,1450,,,,-0.03125,0.130859375,-1.06640625,0.021863692950157547,0.19783761581983866,15.190835565064496,3.2224037275915065,12558,0,48.951005150093465,28.75190395587053,58.73608492350976,0.006880852694954986,0.00404154348237037,0.185546875,,0.06648500000033528,154337,
4.175959999999963,1450,,,,-0.09375,0.048828125,-0.98828125,0.021863692950157547,0.19783761581983866,15.19050262185312,3.2278023752700467,12598,0,49.03194044436337,28.844828989605027,58.82865072887602,0.006858685689942364,0.004034872249127594,0.185546875,,
4.193025000000373,1540,,,,0,0.08984375,-0.8828125,0.021863692950157547,0.19783761581983866,15.190528196761154,3.224325840156655,12577,0,48.97921259044526,28.79599722844572,58.79228290016073,0.006870316532202175,0.004039215931748816,0.185546875,,
4.201419999999925,1540,,,,-0.15625,0.046875,-0.98828125,0.021863692950157547,0.19783761581983866,15.190404692849853,3.221215442742201,12558,0,48.931566178111545,28.753002955387394,58.76166491529432,0.006880589694467729,0.004043149060459401,0.1875,,
4.209400000000373,1540,,,,-0.0625,0.091796875,-1.0234375,0.02185349043486688,0.19783761581983866,15.190351955102681,3.225074471700181,12551,0,48.99001630654259,28.72249656568704,58.629285579256205,0.006887897622944894,0.0040383251677631625,0.1875,,
4.222230000000447,1540,,,,0,-0.08984375,-0.8828125,0.02185349043486688,0.19749998911789274,15.183783235877007,3.43298192805792,12644,0,52.12565344831457,28.934654278038227,55.509432235182466,0.006825724863344843,0.003788921117578406,0.1875,,
4.231669999999926,1540,,,,0.01953125,0.068359375,-1.00390625,0.02185349043486688,0.19749998911789274,15.169989228861214,3.8883369944296535,13192,0,58.98603032368043,30.19059735282601,51.182622711102745,0.006541771492951451,0.0033482502218598145,0.1875,,
4.239870000000112,1540,,,,0.375,-0.29296875,-0.65625,0.02185349043486688,0.19749998911789274,15.163848699921406,4.067387779385452,13642,0,61.6772528905103,31.220263946170334,50.61876540058078,0.00632601919889019,0.0032021528174819244,0.193359375,,
4.256290000000037,1540,,,,-0.1875,0.0546875,-1.1875,0.02185349043486688,0.19749998911789274,15.154881670189065,4.329850574205362,14352,0,65.61837310168244,32.84544257007991,50.055252846916076,0.006013010441144201,0.003009827580026194,0.19921875,,
4.264350000000559,1540,,,,0.0625,-0.1015625,-0.931640625,0.02185349043486688,0.19749998911789274,15.152442578681654,4.409611429216307,14511,0,66.81638397549844,33.208092359973314,49.700523111443324,0.005947345212636943,0.002955861681923942,0.205078125,,
4.272835000000894,1540,,,,0,-0.10546875,-0.765625,0.02185349043486688,0.19749998911789274,15.15065207461676,4.46372005810012,14655,0,67.62826955876302,33.53680849401346,49.58992550426404,0.005889051403121672,0.002920376203715853,0.205078125,,
4.281375,1540,,,,-0.15625,0,-1.109375,0.02185349043486688,0.19749998911789274,15.14906194890335,4.5088295888482675,14721,0,68.30453875851083,33.68937192101566,49.32230351503241,0.0058623826404638575,0.002891462159142155,0.20703125,,
4.289945000000298,1540,,,,0.03125,0.046875,-0.90625,0.02185349043486688,0.19749998911789274,15.148027765552902,4.549082488467189,14800,0,68.90962784309147,33.868774320637534,49.14955337990995,0.00583132968580881,0.002866072496685136,0.20703125,,
4.297774999999441,1540,,,,0.125,-0.234375,-0.98046875,0.02185349043486688,0.19749998911789274,15.146989741981251,4.583251094353692,14816,0,69.4224573110997,33.905645842061965,48.839593346749645,0.005824988264133942,0.0028449005806989087,0.20703125,,
4.305804999999702,1540,,,,-0.1875,-0.1796875,-1.185546875,0.02185349043486688,0.19749998911789274,15.145954098949026,4.623907072191042,14874,0,70.0334842732113,34.039577389257246,48.60471778965568,0.005802069363535134,0.0028200794401063234,0.208984375,,
4.313945000000298,1540,,,,-0.09375,0.267578125,-0.8671875,0.02185349043486688,0.19749998911789274,15.145134511428083,4.650416641576332,14866,0,70.4311855708572,34.02058240823324,48.30329367948361,0.005805308878842011,0.002804155396748194,0.2109375,,
4.322705000000075,1540,,,,0.0625,0.150390625,-0.966796875,0.02185349043486688,0.19749998911789274,15.143437993658752,4.680614445038939,14845,0,70.88059462067065,33.97249789816752,47.92919427380233,0.005813525685096766,0.0027863760197674265,0.2109375,,
4.330379999999888,1540,,,,0.0625,-0.13671875,-0.97265625,0.02185349043486688,0.19749998911789274,15.142879818976196,4.707489201014974,14871,0,71.28494322009803,34.03221486336866,47.74109836672162,0.005803324582628805,0.002770570897532955,0.2109375,,
4.338730000000447,1540,,,,0.03125,-0.326171875,-0.9140625,0.02185349043486688,0.19749998911789274,15.141691659469137,4.737311750096726,14865,0,71.73091381474474,34.017732844565096,47.42408960859012,0.0058057951721919845,0.002753345504951526,0.212890625,,
4.349294999999925,1540,,,,-0.09375,-0.068359375,-1.119140625,0.02185349043486688,0.19749998911789274,15.140385278663787,4.777276971836229,14893,0,72.32981393648876,34.08264831404017,47.12116132908541,0.005794737172361505,0.0027305474515849464,0.21484375,,
4.376424999999814,1540,,,,-0.041015625,0.20703125,-1.103515625,0.02199147379426158,0.1988236500586224,15.138323389921965,4.845597295846079,14952,0,73.35421888184932,34.434574131244204,46.9428679851496,0.005773954087563982,0.0027104596448483086,0.216796875,,
4.391105000000447,1540,,,,0.09375,0.078125,-0.958984375,0.02199147379426158,0.1988236500586224,15.138340652137728,4.872707378343677,14942,0,73.76470419155154,34.41159285586679,46.650485802135215,0.005777810137746216,0.002695376497983627,0.21875,,
4.400145000000484,1540,,,,0.1875,-0.0546875,-0.95703125,0.02199147379426158,0.1988236500586224,15.137894344939198,4.875724588768313,14899,0,73.80820367979685,34.311413882312635,46.48726316544204,0.005794679599639437,0.0026937879550785683,0.21875,,
4.408640000000596,1540,,,,-0.03125,-0.259765625,-0.984375,0.02199147379426158,0.1988236500586224,15.137565518346081,4.902339150382327,14901,0,74.20948008206553,34.31597303380309,46.24203403103528,0.0057939097301064535,0.0026792217091232908,0.220703125,,
4.416845000000671,1540,,,,-0.03125,-0.08203125,-0.984375,0.02199147379426158,0.1988236500586224,15.136704620461952,4.906798150303161,14897,0,74.27275423336802,34.30778172606136,46.19161101561537,0.005795293080916077,0.002676939237151626,0.220703125,,
4.424700000000186,1540,,,,-0.1875,0.07421875,-0.76953125,0.02199147379426158,0.1988236500586224,15.13653942402484,4.915022261980052,14881,0,74.39642823842081,34.27099723313671,46.0653798100458,0.005801513411065241,0.002672489187537947,0.220703125,,
4.432645000000484,1540,,,,0,0.091796875,-1.123046875,0.02199147379426158,0.1988236500586224,15.136216031931685,4.914386122219361,14919,0,74.38521001023928,34.357611255002176,46.188766893677894,0.005786888051761031,0.002672892232626001,0.220703125,,
4.440985000000335,1540,,,,-0.125,0.1484375,-1.05859375,0.02199147379426158,0.1988236500586224,15.136402303278885,4.923879101194221,14896,0,74.52981496838298,34.3047996285333,46.02829034673718,0.005795796862583893,0.002667706207817198,0.220703125,,
4.448900000000372,1540,,,,-0.03125,0.357421875,-0.86328125,0.02199147379426158,0.1988236500586224,15.136382856151828,4.938579233957737,14895,0,74.75222605062531,34.303384148166685,45.88944832884978,0.005796036017899661,0.002659768953555587,0.22265625,,
4.456895000000484,1540,,,,0.0625,-0.01171875,-0.98046875,0.02199147379426158,0.1988236500586224,15.136039661391647,4.938866997110982,14893,0,74.7548867506101,34.29840099526585,45.881149027338914,0.0057968781135326304,0.002659674286203099,0.22265625,,
4.466299999999814,1540,,,,0.03125,-0.33203125,-0.84765625,0.02199147379426158,0.1988236500586224,15.135539810175741,4.944680998243119,14899,0,74.84041609752826,34.31202372745883,45.84691736981409,0.005794576607835291,0.0026566347493248224,0.22265625,,
4.474610000000335,1540,,,,0.0625,-0.23046875,-1.18359375,0.02199147379426158,0.1988236500586224,15.13508284546277,4.949818002959717,14897,0,74.9159055447584,34.30650783696703,45.79335668107309,0.005795508275091167,0.002653957775893605,0.224609375,,
4.482780000000261,1540,,,,-0.0625,-0.068359375,-1.138671875,0.02199147379426158,0.1988236500586224,15.134933125443014,4.9492429015677875,14863,0,74.90646033680201,34.22800195998227,45.69432570446242,0.005808800942896913,0.0026542924223711996,0.2265625,,
4.491760000000708,1540,,,,-0.09375,0.35546875,-0.833984375,0.02199147379426158,0.1988236500586224,15.134479022065149,4.96245323349954,14941,0,75.10414436037814,34.40863253160767,45.81455900289871,0.005778307227873225,0.00264730597428274,0.228515625,,
4.500855000000447,1540,,,,-0.0625,0.240234375,-1.04296875,0.02199147379426158,0.1988236500586224,15.134111394550985,4.965126590994673,14911,0,75.14277891616057,34.33947850060863,45.69897333571119,0.005789943783074588,0.002645944865579924,0.228515625,,
4.50800500000082,1540,,,,0.09375,-0.103515625,-0.92578125,0.02199147379426158,0.1988236500586224,15.133949401347538,4.9748806815227775,14906,0,75.28959251190707,34.32685268228403,45.59309133842798,0.005792073392188227,0.0026407853120891628,0.228515625,,
4.515380000000819,1540,,,,0.09375,-0.103515625,-0.92578125,0.027497852225897183,0.1988236500586224,15.13386504641244,4.980047471250975,14886,0,75.3673663546398,42.86542987931731,56.875318791975296,0.004638321617638911,0.002638060206629236,0.228515625,,
4.522889999999665,1540,,,,-0.03125,-0.1875,-1.009765625,0.027497852225897183,0.24876024391689758,15.133612905918168,4.9712412755454425,14918,0,75.23284112602761,42.9580062495772,57.10007173278934,0.005790777217910245,0.0033065379453127725,0.228515625,,
4.534240000000223,1540,,,,-0.03125,-0.0078125,-0.9140625,0.027497852225897183,0.24876024391689758,15.13343361498993,4.975081686958609,14900,0,75.29006843874022,42.905436356087435,56.98684733033209,0.005797872368721485,0.0033040246751708216,0.228515625,,
