Time (s),ESC signal (µs),Servo 1 (µs),Servo 2 (µs),Servo 3 (µs),AccX (g),AccY (g),AccZ (g),Torque (N·m),Thrust (N),Voltage (V),Current (A),Motor Electrical Speed (RPM),Motor Optical Speed (RPM),Electrical Power (W),Mechanical Power (W),Motor Efficiency (%),Propeller Mech. Efficiency (N/W),Overall Efficiency (N/W),Vibration (g),App message,90% settling time (s),Max acceleration (RPM/s),
0,1000,,,,-0.0625,0.0390625,-0.974609375,0.03090190638937691,0.14270873837168735,23.0038917989773,0.06767922693661582,0,0,1.5568856134883402,0,0,0,0,0.0859375,,
0,1140,,,,-0.0625,0.04296875,-0.974609375,0.03090190638937691,0.14270873837168735,23.004367216885996,0.06616070913544554,0,0,1.5219852482813732,0,0,0,0,0.083984375,,
0.008830000000074506,1140,,,,-0.0625,0.078125,-0.97265625,0.03090190638937691,0.14270873837168735,23.004348307100194,0.06668380219789595,0,0,1.534017412202172,0,0,0,0,0.083984375,,
0.018125,1140,,,,-0.0625,0.0546875,-0.97265625,0.03090190638937691,0.14270873837168735,23.0043294276505,0.06673075537444853,0,0,1.5350962795897731,0,0,0,0,0.083984375,,
0.026550000000279395,1140,,,,-0.0625,0.072265625,-0.970703125,0.03090190638937691,0.14270873837168735,23.00423916289192,0.06701048227500342,0,0,1.5415251606749085,0,0,0,0,0.083984375,,
0.0345500000002794,1140,,,,0,0.01953125,-0.970703125,0.03090190638937691,0.14270873837168735,23.0041280514246,0.06682124318717457,0,0,1.5371644348331475,0,0,0,0,0.083984375,,
0.042745000000111756,1140,,,,0,0.080078125,-0.9921875,0.03090190638937691,0.14270873837168735,23.003660950275023,0.06599962926986785,0,0,1.5182330945678877,0,0,0,0,0.083984375,,
0.053225000000093135,1140,,,,-0.0625,0.0390625,-1.03125,0.028242401233284677,0.14270873837168735,23.00066276484603,0.1636229171511933,0,0,3.7634355379949382,0,0,0,0,0.083984375,,
0.06163500000024214,1140,,,,-0.166015625,0.03515625,-0.9453125,0.028242401233284677,0.14270873837168735,22.99717629774943,0.277391521247987,0,0,6.379221717640864,0,0,0,0,0.0859375,,
0.06993000000016764,1140,,,,0.4375,0.09375,-1.03125,0.028242401233284677,0.14270873837168735,22.995403521541963,0.3352783083875589,0,0,7.7098599933919045,0,0,0,0,0.08984375,,
0.07757000000029803,1140,,,,-0.1875,-0.044921875,-0.8984375,0.028242401233284677,0.14270873837168735,22.99410472316931,0.3706762380805568,0,0,8.523368236814763,0,0,0,0,0.09375,,
0.08605500000016764,1140,,,,0,-0.078125,-0.953125,0.028242401233284677,0.14270873837168735,22.99321321180675,0.40008501155443615,0,0,9.199239973519317,0,0,0,0,0.09375,,
0.09472500000055879,1140,,,,0,0.166015625,-0.91796875,0.028242401233284677,0.1425656674141613,22.990797534488173,0.4651708715222106,0,0,10.694649326108554,0,0,0,0,0.095703125,,
0.10297999999998138,1140,,,,0.15625,-0.11328125,-0.984375,0.028242401233284677,0.1425656674141613,22.988899409251626,0.5184443455897023,1,0,11.918464910056954,0.0029224278315735466,0.024520169783841576,0,0.011961747464127074,0.099609375,,
0.11084500000020489,1140,,,,-0.1875,0.126953125,-1.046875,0.028242401233284677,0.1425656674141613,22.988125649627015,0.5318040936997541,2,0,12.225179326955967,0.006653618384307274,0.05442552789091892,0,0.011661642222278936,0.103515625,,
0.11869500000029802,1140,,,,0.0625,-0.140625,-0.91796875,0.028242401233284677,0.1425656674141613,22.988033371695693,0.535484719220365,3,0,12.30974059547085,0.007849294738334718,0.06376490777736395,0,0.011581533039503352,0.103515625,,
0.12893000000016763,1140,,,,-0.125,0.150390625,-0.962890625,0.028242401233284677,0.1425656674141613,22.988031402583584,0.5352704980013031,3,0,12.30481501693051,0.008465566253818054,0.06879880958933608,0,0.011586169090555327,0.10546875,,
0.13745000000018626,1140,,,,-0.09375,0.00390625,-0.970703125,0.028242401233284677,0.1425656674141613,22.988029792353053,0.5326920030240438,3,0,12.245539635664942,0.008655236481110171,0.07068072733929938,0,0.011642252743108277,0.10546875,,
0.14577500000037252,1140,,,,-0.0625,0.109375,-1.033203125,0.028242401233284677,0.1425656674141613,22.98837627227848,0.5257428434457236,3,0,12.085974307587893,0.008725312324549497,0.0721937024065285,0,0.011795959827968095,0.107421875,,
0.15332500000018626,1140,,,,0.0625,0.0625,-0.9375,0.028242401233284677,0.1425656674141613,22.988553492554164,0.5182960878297532,3,0,11.914877340055833,0.008750693272974138,0.07344341887226792,0,0.011965349146724261,0.107421875,,
0.16172500000055878,1140,,,,-0.09375,0.06640625,-0.98828125,0.028242401233284677,0.1425656674141613,22.988819766427028,0.5071927382121649,3,0,11.659762445600066,0.008760719182908229,0.07513634367580257,0,0.012227150259648724,0.107421875,,
0.16962000000011176,1140,,,,0,0.056640625,-0.986328125,0.028242401233284677,0.1425656674141613,22.989177277364615,0.496425517200885,436,0,11.412414219938562,1.2890907011572157,11.295512731259375,0.11059397704613043,0.012492156757251736,0.107421875,,
0.17786000000033528,1140,,,,0,-0.046875,-0.97265625,0.028242401233284677,0.1425656674141613,22.98964040214832,0.4861912882575067,603,0,11.177362883697317,1.7823269618863713,15.945862905515709,0.07998850405274309,0.01275485719642329,0.107421875,,
0.18572999999998138,1140,,,,-0.0625,0.09375,-1.017578125,0.028242401233284677,0.1425656674141613,22.989954777270146,0.47364967858725,669,0,10.889184690989417,1.9790044132421103,18.17403661891874,0.07203908513806831,0.013092409712926583,0.107421875,,
0.19561500000022353,1140,,,,0.0625,0,-1,0.028242401233284677,0.1425656674141613,22.990407585694108,0.45885322249165045,698,0,10.549222607092227,2.0645714419127486,19.57083966096933,0.06905339506298677,0.013514329228232856,0.107421875,,
0.20745999999996276,1140,,,,-0.0625,0.01953125,-0.9375,0.027577510801107406,0.1425656674141613,22.99080252267917,0.4474126330959125,706,0,10.286375493660035,2.0399920810796095,19.83198146263424,0.06988540236818583,0.013859660042745966,0.107421875,,
0.21432000000029802,1140,,,,-0.01953125,0.048828125,-0.99609375,0.027577510801107406,0.1425656674141613,22.991614766462895,0.4309346992905804,736,0,9.907884595590556,2.126201216670264,21.45968895940226,0.06705182289257935,0.014389112634356813,0.107421875,,
0.2291300000003539,1140,,,,-0.03125,0.04296875,-0.96875,0.027577510801107406,0.1425656674141613,22.992365556887737,0.41086178459806355,808,0,9.446684344833946,2.3340615558248596,24.707733111684576,0.06108050880593783,0.015091609099030111,0.107421875,,
0.23653500000014901,1140,,,,-0.125,0.0234375,-0.9453125,0.027577510801107406,0.242631555297178,22.99271768684598,0.40064102544423064,817,0,9.211825991807673,2.3596555752895343,25.61550313030272,0.10282498761176476,0.02633913792042499,0.107421875,,
0.24461500000022351,1140,,,,-0.03125,0.072265625,-0.994140625,0.027577510801107406,0.242631555297178,22.993255574491002,0.3904522457390079,821,0,8.977768275910973,2.370453157735116,26.40359034544792,0.10235661249218857,0.02702582065391504,0.107421875,,
0.2528900000001304,1140,,,,-0.125,0.04296875,-0.9609375,0.027577510801107406,0.242631555297178,22.99329176901808,0.3795981189434367,822,0,8.72821030383687,2.374863495908117,27.209054470927924,0.10216652692469756,0.0277985459619962,0.107421875,,
0.2609250000002794,1140,,,,-0.03125,0.0703125,-0.982421875,0.027577510801107406,0.242631555297178,22.993688160146732,0.36998878900889637,823,0,8.507406837220888,2.3766272373235666,27.93597723486724,0.10209070715288822,0.028520036709145838,0.107421875,,
0.2688300000000745,1140,,,,-0.15625,0.091796875,-0.98046875,0.027577510801107406,0.242631555297178,22.992722641877556,0.40919834890218454,835,0,9.408584141822171,2.410265683645326,25.617730014566543,0.1006658962717413,0.025788317523638287,0.109375,,
0.27697999999998135,1140,,,,0,-0.0234375,-0.9140625,0.027577510801107406,0.242631555297178,22.99183730858819,0.4372494488608196,845,0,10.053168191477818,2.4400258005164024,24.271212358556173,0.09943811055023595,0.02413483497698362,0.109375,,
0.2848750000004657,1140,,,,-0.09375,0.134765625,-1.04296875,0.027577510801107406,0.242631555297178,22.991156653271243,0.45792106659426046,849,0,10.528134976901695,2.4517848018599517,23.287930932107813,0.09896119558009943,0.023046014876281686,0.111328125,,
0.29286500000022353,1140,,,,0.0625,-0.00390625,-0.890625,0.027577510801107406,0.242631555297178,22.99074642652046,0.47439814647389644,851,0,10.906767490792664,2.4563685262259085,22.521508121444228,0.09877652832084186,0.022245963847859054,0.111328125,,
0.3010750000001863,1140,,,,-0.0625,0.017578125,-0.947265625,0.027577510801107406,0.242631555297178,22.990610874996616,0.48431098303837883,851,0,11.134605353522455,2.458219445066238,22.07729297103983,0.09870215443301898,0.021790763802905778,0.111328125,,
0.3086750000002794,1140,,,,0,-0.021484375,-1.001953125,0.027577510801107406,0.242631555297178,22.990287307627725,0.49046757235558025,911,0,11.275990403529478,2.631017293461143,23.332915329881914,0.0922196733180695,0.021517538292798857,0.111328125,,
0.3163100000000559,1140,,,,-0.0625,0.0546875,-0.91015625,0.027577510801107406,0.242631555297178,22.990175515498148,0.49090450229479565,964,0,11.285980669105616,2.7852734626399847,24.67905576220263,0.08711229204302363,0.02149849112903061,0.111328125,,
0.3238900000001304,1140,,,,-0.09375,0.09375,-0.9921875,0.027577510801107406,0.242631555297178,22.990254582336984,0.49282375608381856,984,0,11.330143616590535,2.842242235198868,25.08566820845079,0.08536624791947102,0.021414693715082023,0.111328125,,
0.3320350000006147,1140,,,,0.125,0.05078125,-1.0625,0.027577510801107406,0.242631555297178,22.990339284158637,0.49282687551286974,993,0,11.330257076392687,2.8686614020776284,25.318590590981977,0.08458006062390358,0.0214144792709705,0.11328125,,
0.3529500000001863,1140,,,,-0.041015625,0.037109375,-0.9765625,0.06314517640178888,0.242631555297178,22.99061433460878,0.4792179969972473,1052,0,11.01751615116742,6.9555835573202565,63.13204774910396,0.034882990520878086,0.02202234623195616,0.111328125,,
0.3622450000001118,1140,,,,-0.09375,0.130859375,-1.001953125,0.06314517640178888,0.242631555297178,22.990749166875865,0.4729058360019184,1089,0,10.872459455071839,7.200953241640001,66.23113446774789,0.03369436617004324,0.022316160966136697,0.11328125,,
0.3697250000000931,1140,,,,-0.0625,0.06640625,-0.99609375,0.06314517640178888,0.242631555297178,22.99110610072232,0.4644578908685494,1104,0,10.678400648276527,7.301464279433813,68.37600985323823,0.033230533768494,0.02272171304382911,0.11328125,,
0.37776500000013036,1140,,,,-0.0625,0.060546875,-0.99609375,0.06314517640178888,0.242631555297178,22.9912820156166,0.4580401252877453,1109,0,10.530929694958914,7.336190703797824,69.66327680745613,0.033073234474612516,0.023039898881228326,0.11328125,,
0.3861100000003353,1140,,,,-0.125,0.095703125,-1.015625,0.06314517640178888,0.242631555297178,22.991415531322158,0.4507914542047201,1129,0,10.364333641589702,7.466317612251955,72.03856871503372,0.03249681675730329,0.023410241669908523,0.11328125,,
0.3945800000000745,1140,,,,0.0625,-0.015625,-0.91015625,0.06314517640178888,0.35521259837359215,22.991740042237886,0.44203574623612657,1147,0,10.163170966837656,7.582037377891929,74.60306830055359,0.04684922807283148,0.034950961617456595,0.11328125,,
0.4019550000005402,1140,,,,-0.09375,0.0546875,-1.021484375,0.06314517640178888,0.35521259837359215,22.992097472711926,0.43663473800061575,1152,0,10.039148456082192,7.618667620798399,75.88958021815733,0.046623978896767726,0.03538274186575929,0.11328125,,
0.4101550000002608,1140,,,,0,-0.0234375,-0.9921875,0.06314517640178888,0.35521259837359215,22.992292117929384,0.4293782902294562,1155,0,9.872391078052722,7.635922926465995,77.34623624707685,0.046518620184395856,0.0359804018667032,0.11328125,,
0.4192650000001304,1140,,,,-0.0625,0.0703125,-1.017578125,0.06314517640178888,0.35521259837359215,22.992493957961432,0.4214953777487565,1160,0,9.691229926196955,7.672821454258101,79.17283474533227,0.04629491256784866,0.03665299462283887,0.11328125,,
0.42785000000009316,1140,,,,-0.03125,0.046875,-0.912109375,0.06314517640178888,0.35521259837359215,22.992686580438484,0.41254184492356133,1171,0,9.485445341643302,7.7462401366146345,81.66448551030963,0.045856130472199885,0.03744817302505835,0.111328125,,
0.43613500000024213,1140,,,,0,0.060546875,-0.943359375,0.06314517640178888,0.35521259837359215,22.9929787944005,0.404697301744083,1175,0,9.305196477152801,7.77104527105374,83.51296278519334,0.0457097579519603,0.038173573147622555,0.111328125,,
0.44498500000033525,1140,,,,-0.0625,0.109375,-1.0625,0.06314517640178888,0.35521259837359215,22.99329177262914,0.39593710506445795,1177,0,9.1038973803572,7.781470169450973,85.47405407095724,0.045648520220267635,0.039017640855663414,0.111328125,,
0.4527700000004843,1140,,,,-0.09375,0.0625,-0.984375,0.06314517640178888,0.35521259837359215,22.993422826406224,0.38959883245027616,1177,0,8.958210687203394,7.784967375851213,86.90315117249773,0.04562801373779078,0.03965218175556035,0.111328125,,
0.46163500000024216,1140,,,,-0.0625,0.03515625,-1.0546875,0.06314517640178888,0.35521259837359215,22.993807088491508,0.3824948944033355,1184,0,8.795013814243227,7.8269267251378665,88.9927735242715,0.04538340664832726,0.04038795229614505,0.111328125,,
0.4702700000004843,1140,,,,-0.01953125,0.01953125,-0.96484375,0.06314517640178888,0.35521259837359215,22.99415254808538,0.37739894159049087,1186,0,8.677968834417712,7.844817254675848,90.39923286613454,0.04527990733778664,0.040932688875855675,0.111328125,,
0.47701500000059605,1140,,,,-0.0625,0.0859375,-0.890625,0.06314517640178888,0.35521259837359215,22.994305698573424,0.3714696844264649,1187,0,8.541687481454733,7.85069806715252,91.91038754575776,0.04524598899807507,0.04158576383704171,0.111328125,,
0.48449500000011175,1140,,,,0,0.01171875,-0.94921875,0.06314517640178888,0.35521259837359215,22.99446679248246,0.3668293647173642,1188,0,8.435045645500868,7.852926039983839,93.09879720890993,0.045233152148001526,0.04211152058946562,0.109375,,
0.49202499999990684,1140,,,,0,-0.0546875,-0.8984375,0.06314517640178888,0.35521259837359215,22.994710411910845,0.3619153693266469,1189,0,8.322139111286006,7.8631224957818615,94.48439146034397,0.045174496335793374,0.042682847958149764,0.109375,,
0.5001150000002235,1140,,,,-0.125,0.09375,-1.109375,0.07785861197189604,0.35521259837359215,22.994903497647574,0.3558098091505659,1191,0,8.181812224933664,9.713064474780735,118.7153189018523,0.036570600277170594,0.04341490474336474,0.109375,,
0.5107450000001118,1140,,,,-0.03125,0.037109375,-0.994140625,0.07785861197189604,0.35521259837359215,22.99510800941122,0.349600937815738,1192,0,8.039111325264349,9.721179313721105,120.92355635343122,0.036540072650673355,0.0441855553433217,0.109375,,
0.520035000000149,1140,,,,0,0.052734375,-0.96484375,0.07785861197189604,0.35521259837359215,22.99541150809631,0.34372929892819154,1193,0,7.904196676243212,9.723198949193907,123.01312008616729,0.03653248280012215,0.044939746937372675,0.109375,,
0.5276050000004471,1140,,,,-0.09375,0.0703125,-1.0234375,0.07785861197189604,0.35521259837359215,22.995528918729768,0.33534632656778546,1193,0,7.711466150379307,9.729094788717761,126.16400823129091,0.036510344085197995,0.046062913516921836,0.109375,,
0.537140000000596,1140,,,,-0.09375,0.052734375,-1,0.07785861197189604,0.35521259837359215,22.995552739230853,0.32916424054801807,1195,0,7.56931365339082,9.739748085420953,128.67412464877637,0.036470409219854054,0.04692797981947384,0.109375,,
0.5452900000000372,1140,,,,0.03125,-0.021484375,-0.93359375,0.07785861197189604,0.5973744130438937,22.995719834860182,0.3252545526174405,1195,0,7.479462567003452,9.743979502917938,130.27646593091694,0.0613070268533512,0.07986862795186418,0.109375,,
0.5534250000002794,1140,,,,0,0.0078125,-0.953125,0.07785861197189604,0.5973744130438937,22.99586207214236,0.3213024244509631,1195,0,7.388626236119287,9.745443982836614,131.89791540944412,0.06129781404479589,0.08085053891664325,0.109375,,
0.5615649999999441,1140,,,,-0.0625,0.0859375,-0.935546875,0.07785861197189604,0.5973744130438937,22.995967870031556,0.3185171444527404,1196,0,7.324610019889418,9.748023410838517,133.08590333640296,0.061281594008041895,0.08155716296454954,0.107421875,,
0.5694900000002235,1140,,,,0,0.0625,-0.99609375,0.07785861197189604,0.5973744130438937,22.9959696125416,0.31389489538605664,1196,0,7.218317475829683,9.753224051635655,135.11769306758853,0.061248917268922135,0.08275812404264343,0.107421875,,
0.5779400000004098,1140,,,,-0.03125,-0.013671875,-0.98828125,0.07785861197189604,0.5973744130438937,22.99607069755629,0.31016504769225994,1196,0,7.132577364642128,9.755049841663178,136.76752936492866,0.06123745370244515,0.08375295247482625,0.109375,,
0.5863500000000932,1140,,,,-0.0625,0,-0.94140625,0.07785861197189604,0.5973744130438937,22.996331395315476,0.3072865537902248,1197,0,7.066463424284444,9.755759582087082,138.05717225621893,0.06123299862173268,0.08453654638485365,0.107421875,,
0.5948400000003167,1140,,,,-0.03125,0.01953125,-0.919921875,0.07785861197189604,0.5973744130438937,22.996459620892367,0.30341497277049884,1197,0,6.977470169690934,9.756052563820393,139.8222038440121,0.06123115974786904,0.08561475699871812,0.107421875,,
0.603035000000149,1140,,,,-0.0625,0.080078125,-1.03515625,0.07785861197189604,0.5973744130438937,22.996631863825282,0.3021813280607248,1197,0,6.949152757534304,9.757465097377263,140.41229827331358,0.061222295655914125,0.08596363238615205,0.107421875,,
0.6110250000003725,1140,,,,-0.0625,0,-0.9921875,0.07785861197189604,0.5973744130438937,22.996666725929842,0.29905165787988625,1197,0,6.877191310100534,9.758694970956626,141.89942566559148,0.061214579902514804,0.0868631373052731,0.107421875,,
0.6190900000003167,1140,,,,0,0.0390625,-0.998046875,0.07785861197189604,0.5973744130438937,22.99682890524203,0.29612718417036266,1197,0,6.809986188556926,9.7591719927678,143.3067809912229,0.06121158777471984,0.08772035603356793,0.109375,,
0.6272650000001304,1140,,,,-0.125,0.0703125,-0.98828125,0.07785861197189604,0.5973744130438937,22.99685403411579,0.2954458235048236,1197,0,6.794324478129564,9.75936313598156,143.63993311470833,0.06121038890759668,0.08792256168612472,0.109375,,
0.6357200000002049,1140,,,,0.03125,0.021484375,-0.9140625,0.07785861197189604,0.5973744130438937,22.996880422979558,0.29520568681454534,1197,0,6.788809879857652,9.763288559597356,143.81443481816981,0.0611857786848543,0.08799398180471944,0.107421875,,
0.6435250000003725,1140,,,,-0.09375,0.056640625,-0.96875,0.07785861197189604,0.5973744130438937,22.996842002397642,0.29260923675250045,1198,0,6.729088386039418,9.767945256097404,145.1600082466235,0.06115660943850982,0.08877493930429618,0.107421875,,
0.6520850000004285,1140,,,,-0.0625,0.0234375,-0.98046875,0.06175708532935406,0.5973744130438937,22.99694148869921,0.2864909157129003,1198,0,6.588414825693426,7.749687740708092,117.62598357477351,0.07708367524357974,0.09067043118084486,0.107421875,,
0.6594350000000558,1140,,,,0,0.041015625,-0.9296875,0.06175708532935406,0.5973744130438937,22.997073614792104,0.28331333016932725,1198,0,6.515377509955919,7.750260878862618,118.95336635551381,0.07707797484251405,0.09168684579382651,0.107421875,,
0.6672250000000931,1140,,,,-0.0625,0.0703125,-1.01953125,0.06175708532935406,0.5973744130438937,22.997021681108848,0.2802232780669646,1198,0,6.444300801257379,7.750526881864038,120.2694771844262,0.0770753294775003,0.09269809580076353,0.107421875,,
0.6769300000001677,1140,,,,-0.125,0.0234375,-0.8828125,0.06175708532935406,0.5973744130438937,22.997165792698045,0.27644504414941085,1202,0,6.357452512873732,7.77314512683131,122.2682373339136,0.07685105620656421,0.0939644317962613,0.107421875,,
0.6839150000000372,1140,,,,-0.03125,0,-1.033203125,0.06175708532935406,0.5973744130438937,22.997326303809476,0.27469417222170156,1203,0,6.317231512337307,7.782913468021856,123.20133357186813,0.0767546003817675,0.09456269124809574,0.107421875,,
0.6916899999999441,1140,,,,-0.0625,0.056640625,-0.974609375,0.06175708532935406,0.7097316511572858,22.99745896058076,0.2716323983277614,1204,0,6.246854932906819,7.7861105358416856,124.64048900553885,0.09115355451097036,0.11361423608840389,0.107421875,,
0.6990850000004284,1140,,,,0,0.08984375,-0.85546875,0.06175708532935406,0.7097316511572858,22.997729617992817,0.2702807206777823,1204,0,6.215842935103878,7.787240175096875,125.28051716233941,0.09114033151654481,0.11418107866739796,0.107421875,,
0.7068100000000559,1140,,,,-0.0625,0.05859375,-1.029296875,0.06175708532935406,0.7097316511572858,22.997841370719122,0.2680992139499248,1202,0,6.165703194034858,7.776440256277662,126.12414207354558,0.09126690719244489,0.11510960369353018,0.107421875,,
0.7152350000003352,1140,,,,-0.0625,0.06640625,-0.9375,0.06175708532935406,0.7097316511572858,22.99801459245468,0.26611878277100914,1200,0,6.120203649493946,7.7607663125106345,126.80568747336277,0.09145123336766019,0.11596536517473083,0.107421875,,
0.7231750000002793,1140,,,,0.03125,-0.03125,-0.97265625,0.06175708532935406,0.7097316511572858,22.998046479421316,0.2643664654130239,1199,0,6.079912259169051,7.75468295483099,127.5459681697912,0.0915229746066071,0.1167338640597892,0.107421875,,
0.7311450000004843,1140,,,,-0.03125,0.087890625,-1.009765625,0.06175708532935406,0.7097316511572858,22.998044245688483,0.26343743715647966,1199,0,6.058545835695498,7.752267833155639,127.95591621146345,0.09155148743982214,0.11714554455884729,0.107421875,,
0.7385699999998324,1140,,,,-0.0625,0.0546875,-0.88671875,0.06175708532935406,0.7097316511572858,22.998009928088454,0.2615191037822217,1199,0,6.014418945168329,7.751327006098331,128.87906673553798,0.09156259961667296,0.11800502386476538,0.107421875,,
0.7465150000001304,1140,,,,-0.0625,0.025390625,-1.001953125,0.06175708532935406,0.7097316511572858,22.998009500340586,0.26358127889147775,1198,0,6.061844756058127,7.745744284312749,127.7786646807765,0.09162859308364807,0.11708179270806783,0.107421875,,
0.7544400000004098,1140,,,,-0.125,0.08203125,-0.99609375,0.06175708532935406,0.7097316511572858,22.99798015619162,0.26203696109536795,1197,0,6.026320831460027,7.743645851837492,128.49707256560717,0.09165342330174789,0.11777196584891007,0.107421875,,
0.7621900000004098,1140,,,,-0.03125,0.0390625,-1.01953125,0.06175708532935406,0.7097316511572858,22.998080696487897,0.2628325163757602,1197,0,6.04464342127071,7.74266885718278,128.09140783949022,0.09166498842306504,0.11741497416700974,0.107421875,,
0.7699200000003912,1140,,,,-0.03125,0.0546875,-1.00390625,0.06175708532935406,0.7097316511572858,22.998076826058956,0.26135530520342015,1197,0,6.010669387966343,7.742291877552909,128.80914550138726,0.09166945167941785,0.11807863739406523,0.107421875,,
0.7791350000002422,1140,,,,-0.125,0.11328125,-0.92578125,0.06175708532935406,0.7097316511572858,22.998040111988566,0.25799056645892354,1198,0,5.933277395936975,7.748739964159657,130.59797220109556,0.09159316926881227,0.11961882173978583,0.107421875,,
0.7864900000006891,1140,,,,-0.0625,0.041015625,-1.021484375,0.06175708532935406,0.7097316511572858,22.99828993821329,0.2559122410128629,1200,0,5.88554391755174,7.758270267914035,131.81908718372642,0.09148065569364487,0.12058896528505031,0.107421875,,
0.795160000000149,1140,,,,-0.03125,0.009765625,-1,0.06175708532935406,0.7097316511572858,22.9982754279653,0.2563702273339803,1200,0,5.896073099756957,7.761617829564992,131.64046134171804,0.09144120037111689,0.12037361802494302,0.107421875,,
0.805015000000596,1140,,,,0,0.12109375,-0.9296875,0.05392880095956451,0.7097316511572858,22.998261810310424,0.256961003936426,1200,0,5.909656443570133,6.778883556598016,114.70858959954646,0.10469742476495121,0.12009693929492181,0.10546875,,
0.8137900000000372,1140,,,,-0.0625,0.0625,-0.935546875,0.05392880095956451,0.7097316511572858,22.997917190358613,0.2653774448408675,1201,0,6.103128500639231,6.781494096595851,111.11504691217904,0.10465712143192077,0.11628980957601494,0.10546875,,
0.8209250000002793,1140,,,,-0.125,0.05859375,-1.0859375,0.05392880095956451,0.7097316511572858,22.998008758172016,0.2693653301837824,1201,0,6.194866222714524,6.783882972273299,109.50814316859734,0.10462026748663864,0.11456771230263772,0.10546875,,
0.831195000000298,1140,,,,0,-0.03515625,-0.8984375,0.05392880095956451,0.7097316511572858,22.99832636500105,0.2686126079854615,1201,0,6.17764042420373,6.784903103419323,109.83001012549005,0.10460453750615967,0.1148871741347372,0.10546875,,
0.8399500000001863,1140,,,,-0.01953125,0.0234375,-0.94921875,0.05392880095956451,0.7605323691398046,22.998351065559092,0.2653601734258352,1202,0,6.102846427265002,6.785468975994843,111.18531421141724,0.11208250628370166,0.12461928678756516,0.10546875,,
0.8471100000003353,1140,,,,-0.125,0.015625,-1.0234375,0.05392880095956451,0.7605323691398046,22.99853533072328,0.26247374296148074,1202,0,6.036511650886795,6.785591185395361,112.40914584168031,0.11208048766284354,0.1259887188369923,0.10546875,,
0.855445000000298,1140,,,,0.03125,0.056640625,-0.998046875,0.05392880095956451,0.7605323691398046,22.998607080695404,0.2616434552501594,1209,0,6.0174350225339275,6.82888382341917,113.4849615799182,0.11136993816348333,0.12638813153640774,0.10546875,,
0.8632850000006147,1140,,,,-0.0625,0.0625,-0.99609375,0.05392880095956451,0.7605323691398046,22.998544981284084,0.2595830126989742,1212,0,5.970031593934596,6.845993639043315,114.67265342445883,0.11109159739828275,0.1273916824682279,0.10546875,,
0.8714700000002049,1140,,,,-0.0625,0.095703125,-1.052734375,0.05392880095956451,0.7605323691398046,22.998419118899264,0.2550191959669006,1213,0,5.865038352211485,6.852814888886402,116.84177455212146,0.11098101750467579,0.12967219026846372,0.10546875,,
0.8804400000004098,1140,,,,0,-0.02734375,-0.97265625,0.05392880095956451,0.7605323691398046,22.998432877623934,0.25352613430755,1214,0,5.830703782595659,6.855645322331802,117.57835036647788,0.11093519769210079,0.13043577542216314,0.10546875,,
0.8891499999999068,1140,,,,-0.0625,0.03125,-0.94140625,0.05392880095956451,0.7605323691398046,22.998379088600963,0.25079067065862704,1210,0,5.767778915691579,6.833194824209101,118.47185760915688,0.11129967587713722,0.13185879352461516,0.10546875,,
0.8981650000000373,1140,,,,-0.0625,0.052734375,-0.978515625,0.05392880095956451,0.7605323691398046,22.99831693696101,0.24814888954074474,1208,0,5.707006809212976,6.823452778687415,119.56272362724587,0.11145858171910783,0.1332629160196649,0.10546875,,
0.9071650000000373,1140,,,,-0.09375,0.04296875,-0.947265625,0.05392880095956451,0.7605323691398046,22.998484265751618,0.2448752417031513,1208,0,5.631759393382049,6.820306791581743,121.10437103538851,0.11150999396075913,0.13504347682777706,0.10546875,,
0.9144600000004284,1140,,,,0,-0.01171875,-0.982421875,0.05392880095956451,0.7605323691398046,22.99837523571322,0.2437585030167604,1208,0,5.606049519275189,6.819316311508881,121.64209909423982,0.11152619036841906,0.13566279900398284,0.10546875,,
0.9345350000006146,1140,,,,-0.09375,0.109375,-0.986328125,0.05392880095956451,0.7605323691398046,22.998420197816387,0.2392175580132269,1203,0,5.50162591788371,6.79555463750479,123.51902399279831,0.11191615838719221,0.1382377465300941,0.10546875,,
0.9427749999999069,1140,,,,0,-0.015625,-0.974609375,0.05392880095956451,0.7605323691398046,22.998433450264248,0.23838885700387283,1203,0,5.482570263088129,6.793643418475091,123.91347657163419,0.11194764315588918,0.13871821657446937,0.10546875,,
0.9501650000000372,1140,,,,0,0,-1.0078125,0.049893193399269134,0.7605323691398046,22.998501353049196,0.238837306694045,1203,0,5.492900121161619,6.2846855239191655,114.4147059894128,0.12101359188860931,0.13845734536658022,0.10546875,,
0.9581550000002608,1140,,,,0,0.033203125,-0.966796875,0.049893193399269134,0.7605323691398046,22.998576108880865,0.2398181161523423,1200,0,5.515475196618076,6.268966801333495,113.66140863397295,0.12131701973250662,0.13789063354072198,0.10546875,,
0.9664000000003725,1140,,,,0,0.10546875,-1.02734375,0.049893193399269134,0.7605323691398046,22.998645991562817,0.23945803001384267,1199,0,5.507210462125391,6.262902408453528,113.72186429999797,0.12143449147686776,0.13809756761071618,0.103515625,,
0.9742400000002235,1140,,,,-0.09375,0.0234375,-0.986328125,0.049893193399269134,0.7605323691398046,22.998647002204876,0.24017353097033292,1198,0,5.523666258059808,6.260518993219664,113.33992136263997,0.12148072227933256,0.1376861551021626,0.103515625,,
0.9844050000002608,1140,,,,-0.03125,0.015625,-0.978515625,0.049893193399269134,0.7605323691398046,22.998713976416546,0.24027552994424198,1198,0,5.52602818871953,6.259563895963223,113.27419409008958,0.12149925806017733,0.13762730539310408,0.103515625,,
0.9943600000003353,1140,,,,0,0.02734375,-0.98828125,0.049893193399269134,0.7822855512548553,22.99880690870972,0.2387728765093867,1197,0,5.491491281876575,6.2564366120883355,113.92964662870884,0.12503691793877797,0.1424541187630784,0.103515625,,
1.0031100000003352,1140,,,,-0.125,0.14453125,-1.0625,0.049893193399269134,0.7822855512548553,22.998663655829922,0.23712108272638924,1196,0,5.453468027330449,6.2510790332029185,114.6257574423318,0.12514408266152235,0.14344735264502784,0.10546875,,
1.0178300000000744,1140,,,,-0.03125,0.044921875,-0.955078125,0.049893193399269134,0.7822855512548553,22.998292038011268,0.23850439614188615,1196,0,5.485193754820625,6.248502193798827,113.91579720055236,0.12519569122200444,0.1426176697162883,0.103515625,,
1.0254800000004471,1140,,,,-0.08203125,0.05078125,-1.0078125,0.049893193399269134,0.7822855512548553,22.998179096788114,0.23769323625617575,1196,0,5.4665116175146995,6.248058372843929,114.29699248832024,0.1252045843001275,0.14310507431254935,0.10546875,,
1.033670000000391,1140,,,,0,0.056640625,-0.947265625,0.049893193399269134,0.7822855512548553,22.99825998142442,0.23789485915168032,1195,0,5.471167819014689,6.243503585588379,114.11647005031516,0.12529592408028284,0.1429832856773416,0.103515625,,
1.0430300000002608,1140,,,,-0.0625,0.03125,-0.982421875,0.049893193399269134,0.7822855512548553,22.99820949260885,0.23783573874067873,1195,0,5.469796144387516,6.241333955489834,114.10542167817319,0.12533947980251278,0.14301914195788595,0.103515625,,
1.0510849999999627,1140,,,,-0.125,0.11328125,-0.8984375,0.049893193399269134,0.7822855512548553,22.99829782583955,0.23725017531858597,1194,0,5.456350191209488,6.240590875541986,114.37299031128825,0.12535440423130045,0.1433715806062384,0.103515625,,
1.0592900000000371,1140,,,,-0.0625,0.0234375,-1.021484375,0.049893193399269134,0.7822855512548553,22.998281586576823,0.2375229456558641,1194,0,5.4626195874667465,6.2402832779715895,114.23609457061752,0.12536058323126925,0.14320703441435045,0.103515625,,
1.0675850000004283,1140,,,,-0.0625,-0.001953125,-0.98046875,0.049893193399269134,0.7822855512548553,22.998169569018938,0.23631586546866354,1195,0,5.434832345897791,6.242709099461073,114.86479622822343,0.12531187002168487,0.1439392241501845,0.103515625,,
1.0754850000003353,1140,,,,-0.03125,0.068359375,-0.95703125,0.049893193399269134,0.7822855512548553,22.998128760263235,0.23591543906586673,1195,0,5.425613644170839,6.243663260337742,115.07755011353966,0.1252927197762646,0.1441837923891477,0.103515625,,
1.0836150000002236,1140,,,,0,0.1015625,-0.9609375,0.049893193399269134,0.7822855512548553,22.9981551615401,0.2374512765595206,1195,0,5.460941301621625,6.244041025969877,114.34001358182904,0.12528513954364098,0.14325104557021257,0.1015625,,
1.0912350000003352,1140,,,,-0.0625,0.033203125,-0.953125,0.049893193399269134,0.7822855512548553,22.99824523495328,0.23689084661061924,1195,0,5.448073784266723,6.244189542776524,114.61279325564335,0.12528215966150932,0.1435893826390507,0.1015625,,
1.0994500000001863,1140,,,,-0.0625,0.0390625,-0.984375,0.048207972825200694,0.7822855512548553,22.998331387212687,0.23699332944267973,1195,0,5.450451127081618,6.033746910844848,110.70178908430188,0.1296517011425856,0.14352675274307453,0.1015625,,
1.1074250000002794,1140,,,,-0.0625,0.025390625,-0.962890625,0.048207972825200694,0.7822855512548553,22.998315119891522,0.23677047967376816,1195,0,5.445322102625191,6.034339269848579,110.81693894543764,0.1296389739243954,0.1436619425832891,0.1015625,,
1.11633000000054,1140,,,,-0.03125,0.080078125,-0.970703125,0.048207972825200694,0.7822855512548553,22.998041025653492,0.23486216831809076,1195,0,5.401369782353387,6.034585385216288,111.72324111064671,0.1296336867104942,0.14483095636418583,0.1015625,,
1.1243100000000559,1140,,,,-0.0625,0.0234375,-1.01171875,0.048207972825200694,0.7822855512548553,22.998006337150347,0.23602419412636536,1195,0,5.428085912238954,6.034668597856579,111.17489102834455,0.12963189917880677,0.1441181226500119,0.1015625,,
1.1312950000003912,1140,,,,-0.0625,0.0546875,-0.98046875,0.048207972825200694,0.7822855512548553,22.99791955015927,0.23953448159697335,1196,0,5.5087947372562995,6.03545987257837,109.56044217367918,0.12961490387983643,0.14200666181373806,0.099609375,,
1.141880000000354,1140,,,,0,-0.005859375,-0.939453125,0.048207972825200694,0.79903211382942,22.997822732965595,0.2424606352123976,1196,0,5.576066708336956,6.0374909047051,108.27508386293611,0.13234506294770948,0.14329672789508802,0.099609375,,
1.1494000000003726,1140,,,,0,0.072265625,-0.9609375,0.048207972825200694,0.79903211382942,22.998032525795722,0.24380829060625817,1196,0,5.607110997421381,6.038340549302644,107.69076182154373,0.13232644089967707,0.14250335229619707,0.1015625,,
1.1571800000001677,1140,,,,-0.125,0.10546875,-0.96484375,0.048207972825200694,0.79903211382942,22.99786857883753,0.24378460459653759,1196,0,5.6065262980550425,6.038596546700949,107.70655885081277,0.13232083111529502,0.1425182138370798,0.1015625,,
1.1654050000002607,1140,,,,-0.03125,0.068359375,-0.939453125,0.048207972825200694,0.79903211382942,22.997678596150905,0.2432287578573006,1196,0,5.593696798543213,6.038698550760407,107.95541425007318,0.1323185959876742,0.14284508842837437,0.099609375,,
1.1731699999999254,1140,,,,-0.03125,-0.013671875,-0.98828125,0.048207972825200694,0.79903211382942,22.997858360417155,0.24387347969490916,1200,0,5.60856774388559,6.0588781965148435,108.0289741194653,0.13187789685044915,0.14246633905786688,0.1015625,,
1.1815650000004099,1140,,,,-0.0625,0.0234375,-0.96484375,0.048207972825200694,0.79903211382942,22.99786522426656,0.24379478613312736,1202,0,5.6067596338685535,6.066729803583927,108.2038503476562,0.1317072194903737,0.14251228267442304,0.099609375,,
1.1897450000001117,1140,,,,-0.03125,0.083984375,-0.951171875,0.048207972825200694,0.79903211382942,22.997838641127593,0.24398873145284353,1202,0,5.611213476205909,6.0699477232389984,108.1753126837596,0.1316373962777799,0.14239916503224814,0.099609375,,
1.1982450000001117,1140,,,,-0.1875,0.0703125,-1.01953125,0.048207972825200694,0.79903211382942,22.99759092737268,0.24311711293004004,1203,0,5.591107910608928,6.0712530703839125,108.58765681957105,0.1316090936362324,0.14291123094106,0.099609375,,
1.2064500000001863,1140,,,,-0.0625,0.03515625,-0.978515625,0.048207972825200694,0.79903211382942,22.997611031102885,0.24323352380117455,1202,0,5.593789970103918,6.069772074139949,108.50911647702046,0.13164120564488216,0.14284270916495923,0.099609375,,
1.2147100000004285,1140,,,,-0.0625,-0.02734375,-1.0078125,0.048207972825200694,0.79903211382942,22.997466831355233,0.2424928580368245,1201,0,5.576721459542404,6.0653412881132045,108.76177575149852,0.13173737072229638,0.14327990372590427,0.099609375,,
1.2236150000002235,1140,,,,-0.0625,0.1171875,-0.98828125,0.048207972825200694,0.79903211382942,22.997678650844115,0.24075579017736273,1201,0,5.536824295829041,6.063492660807302,109.51210182658329,0.13177753458730757,0.1443123478618133,0.099609375,,
1.2324350000005215,1140,,,,0,0.0078125,-0.935546875,0.048207972825200694,0.79903211382942,22.99780517730565,0.23888738269440504,1201,0,5.493885486522385,6.06282965674116,110.35595247870585,0.13179194519195989,0.1454402564068013,0.099609375,,
1.2404599999999628,1140,,,,-0.03125,0.017578125,-1.03125,0.048207972825200694,0.79903211382942,22.997848049089928,0.23835215972426435,1201,0,5.481586751511044,6.062048738696048,110.58930586157368,0.1318089227374461,0.14576657271895957,0.099609375,,
1.2485750000001863,1140,,,,-0.03125,0,-0.955078125,0.047209190496656554,0.79903211382942,22.998151858348237,0.2358102916649075,1201,0,5.423200897470932,5.935078312823068,109.43865855293772,0.13462873979321663,0.14733588685642135,0.099609375,,
1.2565550000006334,1140,,,,0,0.1171875,-0.98046875,0.047209190496656554,0.79903211382942,22.99811181855148,0.23415753022205335,1200,0,5.38518106320263,5.93454107492916,110.20132852134445,0.13464092736757372,0.1483760906925247,0.099609375,,
1.264345000000205,1140,,,,-0.0625,0.109375,-1.01171875,0.047209190496656554,0.79903211382942,22.99820519097667,0.2331087340962154,1200,0,5.361082498553581,5.9343281476575855,110.69272202505121,0.13464575836521883,0.1490430550257338,0.099609375,,
1.2714150000000373,1140,,,,-0.0625,0.0078125,-0.90625,0.047209190496656554,0.79903211382942,22.998224771396043,0.23501495185381163,1200,0,5.404926687372779,5.934251414893638,109.7933747881815,0.13464749940051896,0.14783403365972622,0.099609375,,
1.2945849999999628,1140,,,,-0.0625,0.041015625,-0.94140625,0.047209190496656554,0.8020403492761448,22.99840049897964,0.23563371563337485,1198,0,5.419198563199034,5.9241129216797415,109.31714076523245,0.1353857294551252,0.14799980844449595,0.1015625,,
1.3020100000002421,1140,,,,-0.125,0.1328125,-1.05078125,0.047209190496656554,0.8020403492761448,22.998436055983838,0.23602500424437847,1198,0,5.428205967727652,5.922433358135388,109.10480172171191,0.13542412396661532,0.147754221937141,0.1015625,,
1.3114600000004284,1140,,,,-0.0625,0.041015625,-0.994140625,0.047209190496656554,0.8020403492761448,22.998410911645532,0.23506685542235678,1198,0,5.406164132711733,5.9218768145830945,109.5393456286478,0.13543685125314603,0.1483566406027412,0.1015625,,
1.3197650000001304,1140,,,,-0.03125,0.02734375,-0.99609375,0.047209190496656554,0.8020403492761448,22.99862564915683,0.23493600267834072,1197,0,5.403205177108465,5.919666016446519,109.55841620684927,0.13548743240714053,0.14843788510458863,0.1015625,,
1.328225000000093,1140,,,,-0.03125,0.05859375,-0.97265625,0.047209190496656554,0.8020403492761448,22.99862779663106,0.2332213374475543,1197,0,5.363770734188795,5.91879806472522,110.34770794729663,0.13550730072312062,0.14952920044921414,0.099609375,,
1.336480000000447,1140,,,,-0.03125,0.03515625,-0.921875,0.047209190496656554,0.8020403492761448,22.99829546226626,0.23220369255623038,1197,0,5.340289128837423,5.9184794836502785,110.826948520271,0.13551459483669254,0.15018669025711504,0.099609375,,
1.351385000000242,1140,,,,-0.09375,0.0703125,-0.986328125,0.047209190496656554,0.8020403492761448,22.998331757409474,0.2314711455499377,1196,0,5.323450197625083,5.911771317394186,111.05150039783535,0.13566836506620342,0.1506617549712316,0.099609375,,
1.369345000000205,1140,,,,-0.03125,0.04296875,-1.005859375,0.047209190496656554,0.8020403492761448,22.998574797547278,0.231198281230983,1195,0,5.317230963955133,5.907674265223371,111.10433805247095,0.1357624529161171,0.15083797463624948,0.099609375,,
1.3891400000001304,1140,,,,-0.03125,0.091796875,-0.990234375,0.047209190496656554,0.8020403492761448,22.998442540885648,0.23120581419819108,1195,0,5.317373632955781,5.908271351759334,111.11258601692597,0.13574873283999006,0.150833927543721,0.099609375,,
1.3972700000004843,1140,,,,0,-0.029296875,-0.9765625,0.04717214663154548,0.8020403492761448,22.998517572710306,0.2331462738323658,1195,0,5.362018675745594,5.904487079888112,110.11686898063793,0.13583573618241251,0.14957805964087215,0.099609375,,
1.404570000000298,1140,,,,-0.0625,0.09765625,-0.96875,0.04717214663154548,0.8020403492761448,22.998580138110253,0.23503874571146183,1195,0,5.405557428805972,5.904804183117256,109.23580520393365,0.1358284414526906,0.14837329171680017,0.099609375,,
1.4127099999999628,1140,,,,0,0.083984375,-0.966796875,0.04717214663154548,0.8020403492761448,22.998450459013604,0.23490969360205577,1195,0,5.402558950648944,5.904959206868283,109.2993016977444,0.13582487552890476,0.1484556404849234,0.099609375,,
1.4203500000005589,1140,,,,-0.0625,0.09375,-1.0390625,0.04717214663154548,0.8020403492761448,22.99839634107665,0.23394872419832147,1196,0,5.3804454826022265,5.90760052749129,109.79760963276424,0.13576414748150506,0.14906578867299325,0.099609375,,
1.4274950000005775,1140,,,,-0.09375,0.060546875,-1.0078125,0.04717214663154548,0.8020403492761448,22.998293545423316,0.2338853426211634,1197,0,5.378963765573423,5.9109903742390655,109.89087548926678,0.13568628918286696,0.14910685110195074,0.099609375,,
1.4358350000004285,1140,,,,-0.03125,0.03125,-1.025390625,0.04717214663154548,0.8032205166639673,22.99827923792059,0.23572611388822998,1197,0,5.421294990871384,5.9125892207130955,109.06230394525616,0.1358492001862923,0.14816026761437362,0.099609375,,
1.4472350000003353,1140,,,,-0.0625,0.03515625,-0.93359375,0.04717214663154548,0.8032205166639673,22.99815749338086,0.23671155945909664,1197,0,5.443929724944092,5.913250423068465,108.62099111922672,0.13583400992633174,0.14754424785897033,0.099609375,,
1.4558100000005216,1140,,,,-0.03125,0.087890625,-0.974609375,0.04717214663154548,0.8032205166639673,22.998213302383924,0.23492164452779907,1197,0,5.402778090197136,5.91397823539921,109.46180162627077,0.13581729331639109,0.14866805618415832,0.099609375,,
1.4634150000000372,1140,,,,-0.0625,0.091796875,-1.05859375,0.04717214663154548,0.8032205166639673,22.998100018194027,0.23479628867859978,1198,0,5.399868530931196,5.915813061528374,109.55476096578604,0.13577516874011095,0.1487481615641212,0.099609375,,
1.4721499999999068,1140,,,,-0.0625,0.041015625,-1.001953125,0.04717214663154548,0.8032205166639673,22.998191985798663,0.23468379566897268,1198,0,5.397302988750979,5.916490330062303,109.61938476297163,0.13575962637557612,0.14881886718941553,0.099609375,,
1.4807350000003352,1140,,,,-0.03125,0.08203125,-0.9609375,0.04717214663154548,0.8032205166639673,22.99814406710985,0.23480283640232533,1198,0,5.400029458946703,5.916781056415335,109.56942182255108,0.13575295570436338,0.14874372867229482,0.099609375,,
1.4898400000003167,1140,,,,0,0.06640625,-0.9921875,0.04717214663154548,0.8032205166639673,22.998172688695014,0.23396218093638987,1198,0,5.380702639798803,5.916882591828933,109.964868678381,0.1357506261444489,0.14927799776982317,0.09765625,,
1.4977250000000932,1140,,,,-0.0625,0.037109375,-1.01171875,0.04717214663154548,0.8032205166639673,22.998164252934693,0.23548829746360825,1198,0,5.415798544712007,5.918923541615157,109.28995036926553,0.13570381692154523,0.14831063416275572,0.09765625,,
1.5058800000003538,1140,,,,-0.0625,0.04296875,-0.962890625,0.04717214663154548,0.8032205166639673,22.998448535122588,0.235764197556766,1198,0,5.422210763933758,5.919723181948863,109.17545332845316,0.13568548595536437,0.1481352443926837,0.09765625,,
1.5146899999999441,1140,,,,-0.03125,0.076171875,-1.01953125,0.04717214663154548,0.8032205166639673,22.998534699821747,0.23829001704925365,1198,0,5.4803212257283755,5.920061946211966,108.02399535303053,0.13567772161200428,0.1465644956892492,0.09765625,,
1.5215500000002793,1140,,,,-0.125,0.109375,-1,0.04717214663154548,0.8032205166639673,22.998597822490776,0.23747949918103348,1198,0,5.461695492751117,5.92016718127202,108.3943106884922,0.13567530984680498,0.1470643168829202,0.09765625,,
1.5303050000001677,1140,,,,-0.0625,0.05078125,-0.947265625,0.04717214663154548,0.8032205166639673,22.998666850517115,0.23979241919495944,1199,0,5.514905962344417,5.920618074993141,107.3566460682904,0.1356649772861591,0.14564536950372836,0.09765625,,
1.5406000000000932,1140,,,,-0.03125,-0.0078125,-1.015625,0.04717214663154548,0.8032205166639673,22.998089294730473,0.23865379952807406,1199,0,5.488581392073352,5.920822821699772,107.87528504634484,0.13566028588461895,0.14634392009271904,0.09765625,,
1.5515250000003726,1140,,,,-0.03125,0.03125,-0.98828125,0.046870502632894245,0.8032205166639673,22.99804524696325,0.23765856199790006,1199,0,5.465682362155927,5.883019820124379,107.63559662482535,0.1365320092780149,0.14695704277025323,0.09765625,,
1.5589750000005589,1140,,,,-0.03125,0.08203125,-0.982421875,0.046870502632894245,0.8032205166639673,22.998080329912657,0.23761073164959526,1199,0,5.464590693726712,5.883039201489177,107.65745380057172,0.13653155948045487,0.1469864005708708,0.09765625,,
1.5666550000002608,1140,,,,-0.0625,0.10546875,-1.01953125,0.046870502632894245,0.8032205166639673,22.998076909295857,0.23626456680804467,1199,0,5.4336306783928805,5.883787800781378,108.28464702576439,0.13651418845480767,0.14782390710837529,0.09765625,,
1.5739450000002981,1140,,,,-0.09375,0.03515625,-0.9765625,0.046870502632894245,0.8032205166639673,22.99816273264814,0.2340651283266357,1199,0,5.3830679112941375,5.884120069137051,109.30792934623142,0.13650647968197654,0.14921240636380267,0.09765625,,
1.5822700000004843,1140,,,,0.0625,-0.04296875,-0.9765625,0.046870502632894245,0.8032205166639673,22.998122628989705,0.2316735053335641,1199,0,5.328055685549208,5.884268225750166,110.43931544689973,0.1365030426636555,0.15075302588193062,0.09765625,,
1.589820000000298,1140,,,,-0.125,0.056640625,-0.953125,0.046870502632894245,0.8037511940249722,22.998018986992793,0.23250779941389102,1199,0,5.347218785544578,5.88432747862474,110.04463656007786,0.13659185301033272,0.1503120082158964,0.099609375,,
1.5992000000001863,1140,,,,0.0625,0,-0.8515625,0.046870502632894245,0.8037511940249722,22.998050910505373,0.23304042209905815,1199,0,5.359475491639801,5.884351021632702,109.79341226229415,0.13659130651283943,0.14996825627409563,0.099609375,,
1.6077750000003725,1140,,,,-0.09375,0.10546875,-1.029296875,0.046870502632894245,0.8037511940249722,22.99800798579564,0.23222510218305878,1197,0,5.340714754508194,5.876893762214598,110.03946161426812,0.13676462882359364,0.1504950612362346,0.099609375,,
1.6155900000003167,1140,,,,-0.09375,0.025390625,-0.99609375,0.046870502632894245,0.8037511940249722,22.997908084561633,0.23158906914940544,1197,0,5.326064125687214,5.8746365594253644,110.29977147838733,0.13681717769168553,0.15090903433710823,0.099609375,,
1.6234750000005589,1140,,,,-0.03125,0.033203125,-0.96484375,0.046870502632894245,0.8037511940249722,22.998107429759635,0.23274066507424246,1197,0,5.352594818651134,5.873767009167717,109.73681379170634,0.13683743205518456,0.15016103801175057,0.099609375,,
1.6318549999999814,1140,,,,0.03125,0.03515625,-0.921875,0.046870502632894245,0.8037511940249722,22.998102183234344,0.23272736968684063,1197,0,5.352287828893316,5.873419178135826,109.7366092015695,0.13684553573444694,0.15016965075870417,0.099609375,,
1.6396850000000558,1140,,,,-0.125,0.09765625,-1,0.046870502632894245,0.8037511940249722,22.998194690909692,0.2332438004544586,1196,0,5.36418633329933,5.870513490156405,109.43902999256274,0.1369132692349129,0.14983655378179453,0.099609375,,
1.6476900000004098,1140,,,,-0.0625,0.0546875,-0.978515625,0.046870502632894245,0.8037511940249722,22.99828305218833,0.23193276309398464,1196,0,5.334055334711598,5.869360590577245,110.0356149735104,0.13694016266700768,0.15068295013636737,0.099609375,,
1.654380000000354,1140,,,,-0.0625,0.02734375,-1.0546875,0.046870502632894245,0.8037511940249722,22.998242055678702,0.23176840692252265,1196,0,5.330265923263215,5.868934631533065,110.10585055276331,0.1369501015919509,0.150790074190691,0.099609375,,
1.6627050000000745,1140,,,,-0.0625,0.005859375,-0.9609375,0.046870502632894245,0.8037511940249722,22.99832769287167,0.23116798172656103,1196,0,5.31647699584722,5.868736586725324,110.3876983067825,0.13695472307327644,0.15118116652301783,0.099609375,,
1.6721200000001117,1140,,,,0,0.078125,-1.02734375,0.046870502632894245,0.8037511940249722,22.99819886915551,0.23112000685500272,1196,0,5.3153438802919375,5.8680212328078225,110.39777227895047,0.13697141883727998,0.1512133950552278,0.099609375,,
1.6805500000002793,1140,,,,-0.0625,0.060546875,-0.921875,0.046870502632894245,0.8037511940249722,22.99807834978119,0.22976655987664843,1195,0,5.284189346202852,5.8671365892949225,111.03191435619107,0.1369920713097907,0.152104919291459,0.099609375,,
1.6877650000001303,1140,,,,-0.03125,0.06640625,-0.97265625,0.046870502632894245,0.8037511940249722,22.997988322475766,0.22875554312207982,1195,0,5.260917309423194,5.866857041505278,111.51775814831271,0.13699859879639256,0.1527777660723383,0.099609375,,
1.6959950000001118,1140,,,,-0.0625,0,-1.0625,0.046870502632894245,0.8037511940249722,22.997988954775554,0.22797282824904208,1195,0,5.2429165860604146,5.86672625844079,111.89814222944014,0.13700165281592439,0.15330230432464687,0.099609375,,
1.7041150000002234,1140,,,,0,0.017578125,-0.9296875,0.04753282383610138,0.8037511940249722,22.998227518945285,0.22820217147340735,1195,0,5.248245459862788,5.949575445496154,113.36313232673577,0.13509387373739654,0.15314664685023818,0.099609375,,
1.7120550000006334,1140,,,,0,0.0234375,-0.923828125,0.04753282383610138,0.8037511940249722,22.99840555730349,0.22901757016929425,1195,0,5.267038958501638,5.946802730132023,112.90599475314616,0.13515686167836416,0.15260019915509082,0.099609375,,
1.7204950000001118,1140,,,,-0.0625,0.08984375,-1.01953125,0.04753282383610138,0.8037511940249722,22.998483608569575,0.2302467465525931,1194,0,5.295326026516286,5.9456530692294685,112.28115208500245,0.13518299582338983,0.15178502513352285,0.099609375,,
1.7286000000005588,1140,,,,-0.0625,0.009765625,-0.99609375,0.04753282383610138,0.8037511940249722,22.99856661179504,0.23321729712783762,1194,0,5.36366354301737,5.9451712906477425,110.84161493290165,0.13519395064181597,0.14985115818297876,0.099609375,,
1.7370150000001303,1140,,,,-0.0625,0.041015625,-1.009765625,0.04753282383610138,0.802514308674894,22.998637474106694,0.23318049209119845,1194,0,5.3628336036392765,5.9450067163253255,110.85569972357487,0.13498963869479647,0.14964370852944217,0.099609375,,
1.7451049999999815,1140,,,,0,-0.046875,-0.90625,0.04753282383610138,0.802514308674894,22.99863892015057,0.23271691233138828,1195,0,5.352172237321934,5.950184519166574,111.17326302906625,0.13487217179397656,0.14994179430153168,0.099609375,,
1.7555750000001862,1140,,,,-0.03125,0.10546875,-0.98046875,0.04753282383610138,0.802514308674894,22.998567273675366,0.2324647163938789,1196,0,5.3463554187404885,5.9523300019344045,111.33434902344507,0.1348235579032229,0.15010493052180077,0.099609375,,
1.7625449999999254,1140,,,,-0.03125,0.060546875,-0.970703125,0.04753282383610138,0.802514308674894,22.998428464336616,0.23246507542764455,1196,0,5.3463314076792985,5.953092127812471,111.34910415881889,0.1348062975416755,0.15010560466232756,0.09765625,,
1.7702350000003353,1140,,,,-0.0625,0.15234375,-0.9375,0.04753282383610138,0.802514308674894,22.998321737817776,0.23132073215229215,1196,0,5.319988622665984,5.953340391631889,111.90513389948786,0.13480067590338374,0.15084887686709625,0.09765625,,
1.778355000000447,1140,,,,-0.03125,-0.01953125,-0.9921875,0.04753282383610138,0.802514308674894,22.998197377990945,0.23085922784590965,1196,0,5.3093460885308135,5.952617039668849,112.11582255915886,0.13481705665371324,0.15115125201735782,0.09765625,,
1.7867300000004471,1140,,,,-0.0625,0.080078125,-0.982421875,0.04753282383610138,0.802514308674894,22.99822087421412,0.2296363483936721,1195,0,5.281227461105656,5.950735379630708,112.67712711591646,0.134859686656861,0.1519560205624779,0.09765625,,
1.7949050000002609,1140,,,,-0.0625,0.052734375,-0.98046875,0.04753282383610138,0.802514308674894,22.998506966714167,0.22977665538103104,1195,0,5.284520009568922,5.9500100149449375,112.593196812028,0.13487612737779917,0.15186134355092695,0.09765625,,
1.80425,1140,,,,0,0.046875,-0.96484375,0.04753282383610138,0.802514308674894,22.998450386176405,0.22990672000010443,1195,0,5.287498293370952,5.949729421531488,112.52446982329603,0.1348824882305863,0.15177580476593686,0.09765625,,
1.8120150000001305,1140,,,,-0.09375,0.04296875,-1.0078125,0.04753282383610138,0.802514308674894,22.99831498925085,0.230648475223099,1195,0,5.304526284971251,5.94960934903281,112.1609928843072,0.1348852103718967,0.15128859120720586,0.09765625,,
1.8207400000002236,1140,,,,-0.03125,0.02734375,-0.9375,0.04753282383610138,0.802514308674894,22.998399638050707,0.23237534940321924,1195,0,5.344261151606904,5.946721732784866,111.27303782669404,0.13495070809359602,0.15016375246437857,0.09765625,,
1.8279449999998323,1140,,,,0.03125,0.04296875,-0.955078125,0.04753282383610138,0.802514308674894,22.998624507715242,0.23352359800980418,1194,0,5.370721544318124,5.9455774047810435,110.70351266062339,0.13497668166418364,0.14942392787499886,0.095703125,,
1.8351400000001303,1140,,,,-0.0625,0.07421875,-0.953125,0.04753282383610138,0.802514308674894,22.998510504028857,0.23404354965385676,1194,0,5.382653035114425,5.945194106229274,110.45100004486711,0.13498538388074377,0.14909270641068437,0.095703125,,
1.8426150000002235,1140,,,,0,0.04296875,-1.03125,0.04753282383610138,0.802514308674894,22.998517311160867,0.23416413708885617,1194,0,5.385427960491105,5.94502754353269,110.39099561161993,0.13498916578576844,0.14901588407873,0.095703125,,
1.8508599999998696,1140,,,,-0.09375,0.05859375,-0.98046875,0.04746817076293973,0.802514308674894,22.998391690906747,0.23342980657958012,1194,0,5.368510124049784,5.936863637572971,110.58680155928336,0.1351747922246311,0.14948547923562636,0.095703125,,
1.8590849999999628,1140,,,,-0.0625,0.03515625,-0.98828125,0.04746817076293973,0.802514308674894,22.99847013162553,0.23481029648681728,1194,0,5.4002775903502025,5.936833838886686,109.93571607310078,0.135175470706013,0.14860612167583998,0.095703125,,
1.8670200000000186,1140,,,,0,0,-1.02734375,0.04746817076293973,0.802514308674894,22.99854525430623,0.2351213095308652,1194,0,5.407448077497346,5.936821976863151,109.789717659403,0.13517574079236916,0.14840906415994853,0.095703125,,
1.8755950000002048,1140,,,,-0.0625,0.068359375,-0.966796875,0.04746817076293973,0.802514308674894,22.99841983415568,0.23499071607020297,1194,0,5.404415145311402,5.936817285354422,109.85124432020929,0.13517584761360643,0.1484923506239366,0.095703125,,
1.883910000000149,1140,,,,-0.03125,0.068359375,-0.974609375,0.04746817076293973,0.802514308674894,22.99836090558413,0.23426416001038988,1194,0,5.387691699162455,5.936815347902638,110.19218766407045,0.13517589172760894,0.1489532722890675,0.095703125,,
1.891230000000447,1140,,,,-0.0625,0.0078125,-1.04296875,0.04746817076293973,0.7970091391180247,22.99837571389292,0.2342824179790671,1195,0,5.388115071841886,5.940001492689228,110.24266210889746,0.13417658902930565,0.1479198436728214,0.095703125,,
1.8986699999999255,1140,,,,-0.03125,0.033203125,-0.966796875,0.04746817076293973,0.7970091391180247,22.99835919205387,0.23362828055968532,1195,0,5.373067113733579,5.941207141709912,110.57384945972785,0.1341493605773592,0.1483341120159967,0.095703125,,
1.909570000000298,1140,,,,0.0625,0,-1.0390625,0.04746817076293973,0.7970091391180247,22.99824315260606,0.23261058567951073,1195,0,5.349634809327493,5.941756664444865,111.06845375846895,0.13413695378797355,0.14898384049101426,0.095703125,,
1.9183500000005589,1140,,,,-0.041015625,0.10546875,-0.986328125,0.04746817076293973,0.7970091391180247,22.998160603187287,0.23195170859456943,1195,0,5.3344626464416045,5.942005817731134,111.38902287927344,0.1341313293130283,0.1494075770967627,0.095703125,,
1.927880000000354,1140,,,,-0.125,0.046875,-0.8984375,0.04746817076293973,0.7970091391180247,22.998114464611547,0.23246585911211032,1196,0,5.346276436974574,5.944220187878487,111.18430290601069,0.1340813620503651,0.1490774277225828,0.09765625,,
1.9363150000004097,1140,,,,-0.03125,-0.025390625,-1.0234375,0.04746817076293973,0.7970091391180247,22.99821624759839,0.23188069602179356,1196,0,5.332842390752836,5.944989300475541,111.47881120177429,0.13406401573410262,0.14945297098973728,0.09765625,,
1.9449150000000373,1140,,,,-0.0625,0.033203125,-0.98046875,0.04746817076293973,0.7970091391180247,22.99809418394565,0.23119599352267334,1196,0,5.3170672339853295,5.945272319542536,111.81487947983581,0.1340576337434029,0.14989638160370566,0.09765625,,
1.953325000000652,1140,,,,-0.03125,0.091796875,-0.962890625,0.04746817076293973,0.7970091391180247,22.99799180597381,0.23369725755923623,1196,0,5.3745676144258665,5.945367523208493,110.62038753127868,0.13405548706733417,0.14829269930082822,0.09765625,,
1.9709900000002236,1140,,,,-0.09375,0.111328125,-1.00390625,0.04746817076293973,0.7970091391180247,22.998158990815586,0.23636761648136292,1194,0,5.436020024118507,5.935595304429471,109.19009271662816,0.13427619273895783,0.1466162993480264,0.09765625,,
1.9790750000001862,1140,,,,-0.0625,0.0078125,-0.92578125,0.04746817076293973,0.7970091391180247,22.998054024439025,0.2363364466613598,1194,0,5.435278368261905,5.934735779055877,109.18917812398425,0.13429563990544097,0.14663630546909645,0.09765625,,
1.9870800000005402,1140,,,,0.0625,0.00390625,-1.03515625,0.04746817076293973,0.7970091391180247,22.99795434607303,0.237306866311521,1194,0,5.4575724774420165,5.9343943923980635,108.73688653566971,0.1343033655024665,0.14603729816000277,0.09765625,,
1.9966450000000187,1140,,,,-0.0625,0.017578125,-0.923828125,0.04746817076293973,0.7970091391180247,22.99815385659506,0.23738940877307055,1195,0,5.459518146889214,5.941496656990655,108.82822434386574,0.13414282379175937,0.14598525321729236,0.09765625,,
2.0061200000001116,1140,,,,-0.0625,0.060546875,-0.984375,0.047162540289051286,0.7970091391180247,22.998143771112645,0.23631201765889878,1196,0,5.434737756961065,5.906421414035027,108.67905091593073,0.1349394300285019,0.14665089186634228,0.099609375,,
2.014939999999944,1140,,,,-0.03125,-0.01171875,-1.017578125,0.047162540289051286,0.7970091391180247,22.998322863192325,0.23585265047241225,1196,0,5.424215403704187,5.907320746475708,108.9064557141593,0.13491888680558242,0.14693537770895834,0.099609375,,
2.023115000000689,1140,,,,-0.0625,0.044921875,-0.9765625,0.047162540289051286,0.7970091391180247,22.998598821795436,0.23647888472731785,1196,0,5.438682999669191,5.907614782307896,108.62215692047556,0.13491217157640423,0.14654451071454302,0.099609375,,
2.0311500000003724,1140,,,,-0.0625,0.109375,-0.8984375,0.047162540289051286,0.7970091391180247,22.998602170068,0.2372443840610944,1197,0,5.456289206103932,5.9093362239311364,108.30320755945968,0.13487287047407517,0.14607164485093885,0.099609375,,
2.0392100000004283,1140,,,,-0.03125,0.07421875,-1.00390625,0.047162540289051286,0.7948410315933622,22.998572763586285,0.2373293314480107,1197,0,5.4582358982403605,5.911605599466145,108.30615806421892,0.1344543404020629,0.14562233044006123,0.099609375,,
2.0472400000002233,1140,,,,-0.09375,0.0703125,-1.029296875,0.047162540289051286,0.7948410315933622,22.998577390439774,0.23762448479609363,1197,0,5.465025103446338,5.912506552251196,108.18809502856021,0.13443385213513634,0.14544142369851545,0.099609375,,
2.054915000000037,1140,,,,0,-0.025390625,-0.96484375,0.047162540289051286,0.7948410315933622,22.99864733789909,0.2396092010143646,1197,0,5.510687513045144,5.912860169975685,107.29804867321002,0.13442581233857095,0.14423627355239782,0.099609375,,
2.066245000000112,1140,,,,0,0.01171875,-1.01171875,0.047162540289051286,0.7948410315933622,22.99864829115678,0.2390462817177195,1197,0,5.497741358534611,5.912999440520114,107.55324877807979,0.13442264616947894,0.14457592304873762,0.099609375,,
2.0744950000005775,1140,,,,-0.0625,0.09765625,-0.990234375,0.047162540289051286,0.7948410315933622,22.998808950311027,0.23837482760166576,1198,0,5.482337118574038,5.915862769861209,107.90767955181735,0.13435758443261012,0.14498215166310335,0.099609375,,
2.0822650000001306,1140,,,,-0.0625,0.029296875,-0.970703125,0.047162540289051286,0.7948410315933622,22.99886556702278,0.23871261262555918,1198,0,5.49011928692802,5.91657360578386,107.76766945430909,0.13434144228618233,0.1447766414631244,0.099609375,,
2.0941200000001117,1140,,,,-0.0625,0.01171875,-0.99609375,0.047162540289051286,0.7948410315933622,22.999065970122647,0.23665035934023623,1198,0,5.442737226319323,5.916905897906352,108.71195231131317,0.13433389770058876,0.14603700280619228,0.099609375,,
2.102570000000298,1140,,,,0,0.04296875,-0.9765625,0.047162540289051286,0.7948410315933622,22.998973995378023,0.23524460100094488,1198,0,5.41038446097381,5.91588244757946,109.343106580538,0.13435713752537107,0.14691026808292648,0.09765625,,
2.112045000000391,1140,,,,-0.03125,0.080078125,-0.9609375,0.047162540289051286,0.7948410315933622,22.99891769589658,0.23357714430870802,1198,0,5.372021517598534,5.914481565263376,110.09787555555694,0.13438896086202737,0.147959390890281,0.09765625,,
2.1202550000003537,1140,,,,-0.0625,0.107421875,-0.990234375,0.047162540289051286,0.7948410315933622,22.998716689975186,0.23280566443134293,1197,0,5.35423152007789,5.914047519688106,110.45558074040981,0.13439882397753888,0.14845100153267174,0.09765625,,
2.128410000000149,1140,,,,-0.125,0.0546875,-1.0546875,0.047162540289051286,0.7948410315933622,22.998920370010428,0.2314476224105145,1197,0,5.323045437647664,5.9138633549340645,111.09924617790772,0.1344030093171174,0.1493207301917405,0.09765625,,
2.136350000000093,1140,,,,0,0.017578125,-0.95703125,0.047162540289051286,0.7948410315933622,22.999063427219166,0.23194837658376974,1197,0,5.334595424890637,5.910698471927853,110.79937654408023,0.1344749753973009,0.14899743434801468,0.09765625,,
2.144160000000149,1140,,,,-0.0625,0.00390625,-0.9765625,0.047162540289051286,0.7948410315933622,22.999241610036265,0.2321887732644381,1195,0,5.340165695446741,5.902936129938967,110.53844518292884,0.13465180955660797,0.14884201669455285,0.09765625,,
2.153160000000149,1140,,,,-0.0625,0.095703125,-0.953125,0.04671409920384509,0.7948410315933622,22.999502680278475,0.23577307469998546,1195,0,5.422663463499813,5.843632888202632,107.7631486360233,0.13601830347659588,0.1465776065476813,0.09765625,,
2.161485000000335,1140,,,,-0.03125,0.0078125,-0.98828125,0.04671409920384509,0.7948410315933622,22.999658218855586,0.23763784663772555,1194,0,5.465589252532508,5.842553338381617,106.89704382147707,0.1360434360730257,0.1454264114752254,0.09765625,,
2.1691450000004844,1140,,,,-0.0625,0.046875,-0.96875,0.04671409920384509,0.7948410315933622,22.999869934608462,0.23913141007386443,1194,0,5.4999913289784015,5.842130234504612,106.22071718047165,0.13605328873000747,0.14451677903663174,0.09765625,,
2.1771650000000373,1140,,,,-0.0625,0.015625,-0.95703125,0.04671409920384509,0.7948410315933622,23.00000742908548,0.238804186851618,1194,0,5.492498071683931,5.841172641473578,106.34819648981228,0.13607559310091616,0.14471393912563976,0.09765625,,
2.186524999999907,1140,,,,0.03125,0.072265625,-0.943359375,0.04671409920384509,0.7983196567875793,23.000007125909324,0.23970759011147683,1194,0,5.513276280698518,5.84077367200272,105.94015925613488,0.136680464201902,0.14479950144751938,0.09765625,,
2.1951200000005775,1140,,,,-0.0625,0.0234375,-0.986328125,0.04671409920384509,0.7983196567875793,22.999934009311698,0.239549703569967,1194,0,5.50962737405942,5.8406308869869665,106.00772956962545,0.1366838056084404,0.14489539901486806,0.09765625,,
2.203370000000112,1140,,,,-0.09375,0.0546875,-0.990234375,0.04671409920384509,0.7983196567875793,22.999937375705194,0.23898356745983027,1194,0,5.496607085398714,5.840581807986917,106.25794635206769,0.1366849541762925,0.1452386252799932,0.09765625,,
2.2111500000003725,1140,,,,0,-0.00390625,-0.95703125,0.04671409920384509,0.7983196567875793,22.999678997496215,0.23802502864225586,1195,0,5.474499252141727,5.848068506966612,106.82380684733381,0.13650997005875826,0.14582514674292113,0.09765625,,
2.2215400000000374,1140,,,,-0.09375,0.083984375,-0.9921875,0.04671409920384509,0.7983196567875793,22.99958856428819,0.23702392517506107,1196,0,5.451452758919034,5.851165488618174,107.3322240396411,0.1364377162704575,0.14644163530197732,0.09765625,,
2.2296150000002237,1140,,,,-0.0625,0.013671875,-0.931640625,0.04671409920384509,0.7983196567875793,22.99953437699914,0.2375214761853426,1196,0,5.46288335680037,5.852341608732809,107.12917019265346,0.1364102969649506,0.14613521919588596,0.09765625,,
2.2382000000001865,1140,,,,-0.03125,0.0625,-1.0234375,0.04671409920384509,0.7983196567875793,22.999559486370057,0.23689771609022128,1196,0,5.448543113402249,5.852723304573203,107.41813330203367,0.13640140072294005,0.14651983845440883,0.09765625,,
2.2461450000000185,1140,,,,-0.0625,0.01953125,-1.046875,0.04671409920384509,0.7983196567875793,22.99939025065505,0.24360082015740173,1197,0,5.60267032817972,5.856751766736103,104.53500605378174,0.13630757945414396,0.14248913643415273,0.09765625,,
2.2544350000005213,1140,,,,-0.03125,0.060546875,-0.947265625,0.04671409920384509,0.7983196567875793,22.999128447678128,0.2509602567737574,1198,0,5.771867180801931,5.858397872405062,101.49918022872988,0.1362692794471884,0.1383122015424933,0.09765625,,
2.2623800000003538,1140,,,,0,0.01953125,-1.01171875,0.04671409920384509,0.7983196567875793,22.99903987086654,0.25390812493034265,1198,0,5.839643088809913,5.859059148292912,100.33248709189446,0.13625389957365025,0.13670692620193547,0.095703125,,
2.2701150000002235,1140,,,,-0.0625,0.05078125,-0.962890625,0.04671409920384509,0.7983196567875793,22.998988771435783,0.2515739768183426,1198,0,5.785947068030508,5.859317596266553,101.26808156682672,0.13624788956588624,0.13797562393866164,0.095703125,,
2.278195000000298,1140,,,,0,0.00390625,-0.9375,0.04671409920384509,0.7983196567875793,22.998842832364907,0.24979331256984613,1198,0,5.744957136369693,5.859418987951111,101.99238826094617,0.1362455319254668,0.13896007190961343,0.095703125,,
2.2864900000006894,1140,,,,0.0625,0.0078125,-0.94140625,0.04671409920384509,0.7983196567875793,22.999095525945982,0.24766922587078197,1207,0,5.696168184639206,5.903604688597101,103.64168502814377,0.13522579828719655,0.14015029593760928,0.095703125,,
2.294584999999963,1140,,,,-0.0625,0.01953125,-0.96875,0.04671409920384509,0.7983196567875793,22.999074587813702,0.24565410932003437,1210,0,5.649817183054411,5.921024511437885,104.80028502863614,0.13482796013518145,0.14130008651996606,0.095703125,,
2.3034650000003167,1140,,,,0,0.017578125,-0.96875,0.046149974415321024,0.7983196567875793,22.99901510562006,0.244924042728657,1212,0,5.633011758445916,5.856784551484218,103.97252487007125,0.13630681643996456,0.1417216386226445,0.09765625,,
2.3123349999999627,1140,,,,0,0.025390625,-0.9140625,0.046149974415321024,0.7983196567875793,22.99906995999051,0.243869359438269,1212,0,5.608768458818822,5.859374248369402,104.46810723941628,0.13624657223589065,0.14233421519341904,0.095703125,,
2.320500000000466,1140,,,,-0.125,0.17578125,-1.0625,0.046149974415321024,0.7983196567875793,22.999115359241657,0.24331445303007418,1210,0,5.596017173809462,5.848270476139528,104.50772923840665,0.13650525570673572,0.14265854303019,0.09765625,,
2.3297500000004656,1140,,,,-0.0625,-0.0234375,-0.994140625,0.046149974415321024,0.7983196567875793,22.999091114791135,0.2417893142147717,1209,0,5.560934468208398,5.843621626965339,105.08344704245394,0.13661385143482604,0.14355854422517214,0.09765625,,
2.338149999999907,1140,,,,-0.03125,0.037109375,-1.001953125,0.046149974415321024,0.800461105768947,22.998919760084814,0.24127272931857655,1209,0,5.549012141894605,5.841909445619323,105.27836840567291,0.13702045764663287,0.14425290219236117,0.09765625,,
2.346170000000391,1140,,,,-0.0625,0.0703125,-0.986328125,0.046149974415321024,0.800461105768947,22.99903764046108,0.23914860481041203,1209,0,5.500187763698418,5.841338847528809,106.20253523128811,0.13703384218287282,0.14553341452305324,0.09765625,,
2.354625000000466,1140,,,,-0.125,0.07421875,-0.94921875,0.046149974415321024,0.800461105768947,22.99908478691974,0.23670001391187392,1207,0,5.443883689024271,5.83118598261036,107.11444835544432,0.13727243620012555,0.14703861277984373,0.09765625,,
2.3619250000002796,1140,,,,-0.03125,-0.001953125,-1.037109375,0.046149974415321024,0.800461105768947,22.999227280646267,0.23649351297353713,1206,0,5.439168055276847,5.827168832433191,107.13345815413669,0.13736706946153587,0.14716609187913843,0.09765625,,
2.371970000000205,1140,,,,-0.125,0.109375,-0.91796875,0.046149974415321024,0.800461105768947,22.99926496984408,0.23587584713571189,1205,0,5.424971108260675,5.825583528262113,107.38460006526891,0.13740445088214887,0.14755122005167443,0.09765625,,
2.3799150000000373,1140,,,,-0.03125,0.072265625,-0.978515625,0.046149974415321024,0.800461105768947,22.999310593825207,0.23485846801817978,1205,0,5.4015828515400806,5.824875457741611,107.8364549398857,0.13742115373558517,0.14819010052594533,0.09765625,,
2.3882099999999626,1140,,,,-0.03125,0.08984375,-1.013671875,0.046149974415321024,0.800461105768947,22.999446237571124,0.23309908342633628,1203,0,5.361149837291127,5.812926954971633,108.42686982068719,0.13770362365973565,0.1493077287639106,0.09765625,,
2.3960200000000187,1140,,,,-0.09375,0.01953125,-0.990234375,0.046149974415321024,0.800461105768947,22.999344546156607,0.23296429275771505,1201,0,5.358026036086384,5.802686449788688,108.29895955539426,0.13794664121444936,0.14939477717686134,0.09765625,,
2.4043100000005215,1140,,,,0.0625,0.0546875,-0.98046875,0.046149974415321024,0.800461105768947,22.9993764512976,0.23515360438208985,1200,0,5.40838627106319,5.798570231072758,107.21442479242269,0.13804456510322521,0.14800368643262438,0.09765625,,
2.413380000000354,1140,,,,-0.03125,0.0234375,-0.916015625,0.046149974415321024,0.800461105768947,22.999484924672885,0.23548579424675295,1199,0,5.416051974752815,5.796820548018627,107.03037147798402,0.13808623177796098,0.14779420683190167,0.09765625,,
2.4223950000000185,1140,,,,-0.0625,0.08984375,-1.005859375,0.046149974415321024,0.800461105768947,22.999367096181064,0.23460679090030673,1199,0,5.395807707173145,5.7963392164619,107.42301303206729,0.13809769854317647,0.14834870870302144,0.09765625,,
2.4322700000004844,1140,,,,-0.0625,0.029296875,-0.982421875,0.046149974415321024,0.800461105768947,22.999401762723554,0.23520091231751275,1199,0,5.409480277349591,5.796442995426521,107.15341767114317,0.13809522605510358,0.14797375435873444,0.09765625,,
2.440475000000559,1140,,,,-0.03125,0.0234375,-0.978515625,0.046149974415321024,0.800461105768947,22.999507582897714,0.23481336658975258,1199,0,5.400591805446755,5.796480470675718,107.3304682059046,0.13809433324557277,0.1482172944382954,0.095703125,,
2.44944000000041,1140,,,,-0.0625,0.078125,-0.9765625,0.04598702107104159,0.800461105768947,22.9996091215287,0.23335620838190962,1199,0,5.36710157886592,5.776026882877244,107.61910871263463,0.1385833414560233,0.14914215689915936,0.095703125,,
2.457660000000149,1140,,,,-0.0625,0.072265625,-0.919921875,0.04598702107104159,0.800461105768947,22.99962823238871,0.23331315691436838,1199,0,5.3661158707554435,5.776031363731625,107.63896089553641,0.13858323394764366,0.1491695529966739,0.095703125,,
2.465235000000335,1140,,,,-0.0625,0.064453125,-1.00390625,0.04598702107104159,0.800461105768947,22.999580218421535,0.23305422060372968,1199,0,5.36014924201719,5.776033167496472,107.75881242669973,0.1385831906702665,0.14933560048930816,0.095703125,,
2.4733050000001677,1140,,,,0,-0.021484375,-0.96484375,0.04598702107104159,0.800461105768947,22.999600735552356,0.23302587965776972,1199,0,5.359502193179575,5.776033859242316,107.77183497737556,0.13858317407335094,0.1493536296687409,0.095703125,,
2.4817850000006145,1140,,,,0,0.12109375,-0.9140625,0.04598702107104159,0.800461105768947,22.999554791457395,0.23193106479586773,1199,0,5.334311232613615,5.776034135189772,108.2807860905358,0.13858316745260157,0.15005894310684056,0.095703125,,
2.4959700000006704,1140,,,,-0.0625,0.08203125,-1,0.04598702107104159,0.800696154215464,22.999595717065997,0.23198053571330762,1199,0,5.335458535634466,5.776034274241624,108.25750468614162,0.13862385785800985,0.15007072941674532,0.095703125,,
2.5041049999999814,1140,,,,-0.041015625,0.03515625,-0.9765625,0.04598702107104159,0.800696154215464,22.999690401579784,0.23274055876384447,1199,0,5.35296079545911,5.774884896269346,107.8820696981034,0.13865144822760445,0.14958005201433397,0.095703125,,
2.5123500000000933,1140,,,,-0.0625,0.03515625,-0.98828125,0.04598702107104159,0.800696154215464,22.99990367188028,0.23122270073210746,1199,0,5.318099843590473,5.7744045362125,108.58022049307665,0.1386629823376819,0.15056057196453093,0.095703125,,
2.5233150000004096,1140,,,,0,0.048828125,-0.943359375,0.04598702107104159,0.800696154215464,22.99990837307694,0.2319186837798048,1199,0,5.3341084769401155,5.774218039799648,108.25085512906554,0.13866746089194207,0.1501087122012898,0.095703125,,
2.5316099999998696,1140,,,,-0.0625,0.04296875,-1.03125,0.04598702107104159,0.800696154215464,22.999914906797947,0.23331927779503395,1199,0,5.366323535401333,5.7716823576169025,107.55375294727276,0.13872838188310613,0.1492075811183051,0.095703125,,
2.5394600000004286,1140,,,,-0.0625,0.046875,-0.994140625,0.04598702107104159,0.800696154215464,23.000109225208092,0.23389990695051158,1198,0,5.379723407627775,5.7700431851230976,107.25538745991842,0.13876779228964853,0.14883593328983735,0.095703125,,
2.5485800000000745,1140,,,,0,0.021484375,-0.970703125,0.04598702107104159,0.800696154215464,23.00003332471517,0.2338247384319354,1198,0,5.377976776077322,5.769343940801324,107.27721931535494,0.13878461094213299,0.1488842714563541,0.09765625,,
2.556785000000149,1140,,,,0,0.09765625,-0.99609375,0.04598702107104159,0.800696154215464,22.9998320428001,0.23505615257580578,1198,0,5.406252029870327,5.769091581349575,106.71148051320041,0.13879068184737597,0.14810559141370058,0.09765625,,
2.5652000000001864,1140,,,,-0.0625,0.072265625,-0.9609375,0.04598702107104159,0.800696154215464,22.99973200203199,0.23740497627199655,1197,0,5.460250830204685,5.76596999358806,105.59899486104587,0.13886582051343718,0.14664091066773371,0.095703125,,
2.573415000000503,1140,,,,-0.0625,0.029296875,-0.978515625,0.04598702107104159,0.800696154215464,22.99954898815246,0.23716301736265807,1196,0,5.454642436010507,5.75919168727613,105.58330366909199,0.13902925925949894,0.14679168499284595,0.09765625,,
2.5813999999999067,1140,,,,-0.0625,-0.01171875,-1.01171875,0.04598702107104159,0.800696154215464,22.99950587936739,0.23544919118581495,1195,0,5.415215056970448,5.756522907656772,106.30275708527945,0.13909371456690553,0.14786045351694954,0.09765625,,
2.5884300000001677,1140,,,,-0.03125,0.017578125,-0.951171875,0.04598702107104159,0.800696154215464,22.99952754744726,0.2353190211045492,1195,0,5.412226308332403,5.755530149204564,106.34311688599618,0.13911770652893257,0.14794210526317994,0.09765625,,
2.5968000000002793,1140,,,,-0.0625,0.07421875,-1.04296875,0.04598702107104159,0.800696154215464,22.999551221944053,0.23387720412967744,1195,0,5.379070736025581,5.755069038613466,106.99002338953618,0.13912885298911565,0.14885399235464825,0.09765625,,
2.6056400000001303,1140,,,,-0.03125,0.046875,-0.939453125,0.04627659191791951,0.800696154215464,22.999503815269836,0.23415080748516157,1196,0,5.3853523901034865,5.796037542293859,107.62596618459132,0.13814543959951267,0.14868036410892652,0.09765625,,
2.614375,1140,,,,-0.03125,0.068359375,-0.984375,0.04627659191791951,0.800696154215464,22.999531222588537,0.23358075321466257,1196,0,5.37224782655638,5.797794146113008,107.92119673729579,0.13810358457660518,0.14904304121217576,0.09765625,,
2.622700000000186,1140,,,,0,-0.017578125,-0.970703125,0.04627659191791951,0.800696154215464,22.99955402517225,0.23573481326261683,1197,0,5.421795573247448,5.7983829994984735,106.94580644296524,0.1380895595004193,0.14768099302126173,0.09765625,,
2.630185000000056,1140,,,,-0.125,0.05078125,-0.94140625,0.04627659191791951,0.800696154215464,22.999444755466968,0.23685668375843613,1197,0,5.447572213065262,5.798619885092186,106.4441123182357,0.1380839182568241,0.1469822010427146,0.09765625,,0.2004149999995716,2888,
2.639149999999907,1140,,,,0,0.060546875,-0.9375,0.04627659191791951,0.7984063856009311,22.999471930063173,0.238389262832813,1196,0,5.482827158951735,5.796368724880389,105.71861116243176,0.13774251147513164,0.14561947011176238,0.09765625,,
2.6598700000005775,1350,,,,-0.125,0.068359375,-1.017578125,0.04627659191791951,0.7984063856009311,22.999307825381454,0.24068867440362493,1195,0,5.53567291269198,5.793321251695718,104.65432736123212,0.1378149684634243,0.14422932824849088,0.09765625,,
2.6670250000003723,1350,,,,-0.03125,0.02734375,-0.93359375,0.04627659191791951,0.7984063856009311,22.999347867277205,0.23927491861826575,1195,0,5.503167089215937,5.793077788605559,105.26807008927157,0.13782076035148738,0.14508125460437074,0.09765625,,
2.677320000000298,1350,,,,0,0.00390625,-1.03515625,0.04627659191791951,0.7984063856009311,22.999567198983033,0.23742126151471102,1196,0,5.460586258674921,5.797219771092531,106.16478701133639,0.13772229053349572,0.14621257641201962,0.09765625,,
2.6857650000001305,1350,,,,0.4375,-0.111328125,-1.146484375,0.04627659191791951,0.7984063856009311,22.986344517222697,0.9978047046972867,1197,0,22.93588270307749,5.799138986827491,25.28413256163616,0.13767671156260936,0.03481036225799161,0.1015625,,
2.694155000000261,1350,,,,-0.625,-0.046875,-0.908203125,0.04627659191791951,0.7984063856009311,22.957269083320732,1.5514889284265752,1197,0,35.61794880968183,5.799711302524109,16.28311426217673,0.13766312562031396,0.022415844041639613,0.11328125,,
2.703089999999851,1350,,,,-0.0625,-0.263671875,-0.96484375,0.04627659191791951,0.7984063856009311,22.940532279866645,2.0589035931017476,1197,0,47.23234433868406,5.79993664325004,12.27958663593117,0.1376577770948784,0.016903805999462604,0.125,,
2.7108950000000185,1350,,,,-0.21875,0.01953125,-0.9765625,0.04627659191791951,0.7984063856009311,22.926258010487793,2.449509568944225,1308,0,56.15808837677404,6.340194785246815,11.289904924664429,0.12592773765543708,0.014217121855079694,0.1328125,,
2.718670000000391,1350,,,,-0.125,0.2578125,-1.15625,0.04627659191791951,0.7984063856009311,22.919116559059297,2.6869311744832043,1344,0,61.582088774150655,6.514827232186691,10.57909428190964,0.12255219626644609,0.012964912387578279,0.138671875,,
2.726649999999907,1350,,,,-0.03125,0.169921875,-0.9921875,0.04627659191791951,0.7984063856009311,22.91265892612504,2.8555332895234757,1571,0,65.42786031504727,7.614858604504247,11.638556675760588,0.10484848466242928,0.01220285031111298,0.140625,,
2.7345850000004286,1350,,,,0.4375,-0.1875,-0.97265625,0.04627659191791951,0.7984063856009311,22.907731446462698,2.9831532203959115,1765,0,68.33727283647988,8.55381846323237,12.517061492489292,0.09333917817320903,0.011683322328524717,0.142578125,,
2.742665000000503,1350,,,,-0.28125,0.31640625,-1.072265625,0.04627659191791951,0.7984063856009311,22.904527462552537,3.070368253260919,1841,0,70.32533397696419,8.923815626231367,12.689332736271764,0.08946917092886059,0.011353040795546847,0.146484375,,
2.7504350000005213,1350,,,,-0.28125,0.603515625,-1.107421875,0.04673257365925089,0.7984063856009311,22.902338420551658,3.1391494154504143,2067,0,71.8938622653223,10.114863062539978,14.069160765367366,0.07893397870682005,0.011105348362763355,0.15625,,
2.757545000000391,1350,,,,0,0.0859375,-0.92578125,0.04673257365925089,0.7984063856009311,22.901188724771565,3.172103694627482,2150,0,72.64494536520911,10.52154043235016,14.483513449497481,0.07588303164678273,0.010990529094448207,0.15625,,
2.765675000000279,1350,,,,-0.03125,-0.189453125,-0.935546875,0.04673257365925089,0.7984063856009311,22.900452521755746,3.1867701936726625,2296,0,72.97847951794716,11.234663036435887,15.394487677251501,0.07106634021969026,0.010940298987793844,0.158203125,,
2.773845000000205,1350,,,,-0.0625,0.3203125,-1.0625,0.04673257365925089,0.7984063856009311,22.900226944327528,3.1880533417822696,2355,0,73.00714503743575,11.525479509195875,15.786782928281848,0.0692731599552022,0.010936003389689239,0.16015625,,
2.78156500000041,1350,,,,0.0625,0.115234375,-0.994140625,0.04673257365925089,0.7974083499449983,22.900591472907937,3.1795124623859343,2467,0,72.81271598411985,12.070919374392789,16.57803751892102,0.06606028300020113,0.010951498500878743,0.158203125,,
2.7892350000003354,1350,,,,0,-0.09375,-0.90234375,0.04673257365925089,0.7974083499449983,22.901048391066723,3.160185133297954,2513,0,72.37155266238608,12.298464905697998,16.993507052516122,0.06483803922354174,0.011018256768165735,0.158203125,,
2.7965800000000747,1350,,,,-0.1875,0.2421875,-1.0234375,0.04673257365925089,0.7974083499449983,22.90176369259011,3.133373324400735,2555,0,71.75977543609112,12.503349438548776,17.423897110274815,0.06377557900497668,0.011112191267309163,0.16015625,,
2.8045850000004284,1350,,,,0.03125,-0.05859375,-0.90625,0.04673257365925089,0.7974083499449983,22.90285762748964,3.0976390313586664,2600,0,70.94478571656246,12.723946781930904,17.934999244011284,0.06266989037374682,0.011239844364754191,0.16015625,,
2.8127400000002236,1350,,,,-0.1875,-0.05078125,-0.8984375,0.04673257365925089,0.7974083499449983,22.90418615711299,3.061458083934869,2636,0,70.12020586664268,12.901847575264808,18.399614513114866,0.06180574877304979,0.011372019521185382,0.162109375,,
2.820845000000205,1350,,,,-0.0625,0.283203125,-1.107421875,0.04673257365925089,0.7974083499449983,22.90554696045523,3.015769219780639,2668,0,69.07784348558086,13.058573406371176,18.904141686323765,0.06106397116517713,0.011543619628360974,0.1640625,,
2.8320250000003724,1350,,,,0.0625,-0.171875,-0.9140625,0.04673257365925089,0.7974083499449983,22.90690060633679,2.973293201657351,2694,0,68.10893184386182,13.18525537231058,19.35906938393554,0.06047727764299348,0.011707838140422446,0.1640625,,
2.842010000000242,1350,,,,-0.103515625,0.107421875,-0.97265625,0.04673257365925089,0.7974083499449983,22.90943767191916,2.8973843765419427,2723,0,66.37744678598,13.327529376289105,20.07840015187824,0.05983167077940648,0.012013242276643637,0.16796875,,
2.849560000000056,1350,,,,0,-0.203125,-0.865234375,0.04673257365925089,0.7974083499449983,22.91104902592335,2.8494789174870507,2747,0,65.28455117688081,13.445530515146736,20.595271427565844,0.059306573961265215,0.01221434988171266,0.169921875,,
2.8573000000002793,1350,,,,-0.0625,0.17578125,-1.05859375,0.04673257365925089,0.7974083499449983,22.91267488473635,2.795520655981912,2762,0,64.05285592407844,13.51688348439932,21.10270227516603,0.058993506222446694,0.012449223979804473,0.171875,,
2.865310000000056,1350,,,,0,0.30859375,-1.00390625,0.04673257365925089,0.7974083499449983,22.914314270315668,2.7469714997100336,2776,0,62.944968235956054,13.587489941012427,21.586300417339547,0.05868695052631495,0.012668341446385777,0.171875,,
2.872885000000242,1350,,,,-0.0625,-0.43359375,-0.8046875,0.04673257365925089,0.7974083499449983,22.915784923102162,2.702541146936113,2786,0,61.930851669021806,13.635803730092622,22.017788166335414,0.05847901346549976,0.0128757853065965,0.17578125,,
2.880230000000447,1350,,,,-0.03125,0.060546875,-0.943359375,0.04673257365925089,0.7974083499449983,22.91725778601084,2.6576951324423916,2796,0,60.90708446680851,13.681640438819272,22.46313472166792,0.058283095036066795,0.013092210157909434,0.177734375,,
2.888385000000242,1350,,,,0,0.140625,-1.05859375,0.04673257365925089,0.7974083499449983,22.91846500515053,2.619273172543746,2802,0,60.02972054387345,13.71235055650818,22.842602684592446,0.05815256448257377,0.01328355925565575,0.1796875,,
2.8969000000003726,1350,,,,-0.0625,-0.48828125,-0.80078125,0.04673257365925089,0.7974083499449983,22.920272304231485,2.5725249557733996,2809,0,58.96297249575738,13.744627061865037,23.310607454286703,0.05801600482543731,0.013523883145517725,0.18359375,,
2.9048050000001675,1350,,,,-0.09375,0.361328125,-1.05078125,0.1080172158042282,0.7974083499449983,22.921625617290406,2.531399898087708,2814,0,58.023800751613535,31.826557655734405,54.850866788228046,0.02505480984058997,0.013742780369705856,0.18359375,,
2.9133050000001677,1350,,,,-0.03125,-0.2265625,-0.908203125,0.1080172158042282,0.7974083499449983,22.923279916767925,2.484058175356204,2819,0,56.94276088322604,31.885380462874664,55.99549436716428,0.02500858821093418,0.014003682602960959,0.185546875,,
2.9200550000001675,1350,,,,0,0,-0.921875,0.1080172158042282,0.7974083499449983,22.924494003281225,2.448325137640425,2824,0,56.1266149359206,31.946160912356344,56.91802534114889,0.024961007118591564,0.014207312357165925,0.1875,,
2.927870000000112,1350,,,,0,0.39453125,-1.09375,0.1080172158042282,0.7974083499449983,22.925850443836644,2.4095494530067736,2827,0,55.24097039666169,31.975494185633504,57.883657647632205,0.02493810870648784,0.014435089467457784,0.189453125,,
2.9367450000001116,1350,,,,-0.0625,-0.484375,-0.8671875,0.1080172158042282,1.9857499006218218,22.927147020153388,2.37246145550681,2831,0,54.393772590051725,32.02826875250549,58.88223454161232,0.06199991376263451,0.036506934637311826,0.193359375,,
2.944760000000242,1350,,,,-0.03125,0.0234375,-0.9921875,0.1080172158042282,1.9857499006218218,22.92822151058084,2.332178033101096,2833,0,53.47269454505266,32.04933463516327,59.9358886022857,0.06195916149981894,0.037135774015441776,0.1953125,,
2.952880000000354,1350,,,,-0.0625,0.169921875,-0.990234375,0.1080172158042282,1.9857499006218218,22.92934084427287,2.299996524242549,2835,0,52.73740424500031,32.06364777653682,60.79868403757578,0.061931503067312633,0.03765353886961696,0.197265625,,
2.9739250000002793,1350,,,,-0.041015625,0.265625,-1.0703125,0.1080172158042282,1.9857499006218218,22.932370574899135,2.211275420475913,2838,0,50.70978738551953,32.099033184592436,63.299482880021884,0.061863230870610256,0.03915910523397036,0.203125,,
2.983555000000168,1350,,,,0.03125,-0.24609375,-0.759765625,0.1080172158042282,1.9857499006218218,22.933423063011098,2.1818522617178693,2840,0,50.037340978963506,32.120388880321464,64.19283729290368,0.061822100224894545,0.0396853602084224,0.20703125,,
2.9937299999999816,1350,,,,-0.125,0.6484375,-1.1953125,0.1080172158042282,1.9857499006218218,22.93478270243232,2.1433253366916882,2842,0,49.156700857641454,32.14469151101403,65.39228823371516,0.06177536032478104,0.04039632168099693,0.208984375,,
3.0020250000003723,1350,,,,-0.01953125,-0.1875,-0.892578125,0.1080172158042282,1.9857499006218218,22.935944006932345,2.110957912831994,2843,0,48.416812489705386,32.157624122616255,66.41830072860282,0.06175051655091822,0.041013643784254525,0.212890625,,
3.0107700000004844,1350,,,,-0.125,0.41796875,-1.1796875,0.1080172158042282,1.9857499006218218,22.936928684889796,2.0843965830867823,2843,0,47.80965577728949,32.15644888574466,67.25931898681353,0.061752773376108974,0.04153449482824119,0.21484375,,
3.018510000000242,1350,,,,0,0.169921875,-0.951171875,0.1080172158042282,1.9857499006218218,22.937756339594834,2.0586895514684036,2842,0,47.22171931045202,32.15089652469539,68.08497656200149,0.061763437890341555,0.04205162221152539,0.21875,,
3.025910000000149,1350,,,,-0.09375,-0.10546875,-0.974609375,0.1080172158042282,1.9857499006218218,22.938770763298084,2.0380668188773607,2843,0,46.75074755851193,32.16200302704909,68.79462833572025,0.06174210912646685,0.04247525450018767,0.220703125,,
3.0332200000002048,1350,,,,0,0.6328125,-1.2421875,0.1080172158042282,1.9857499006218218,22.93936619605995,2.017164961034418,2844,0,46.27248571902952,32.173193386115464,69.52985750857181,0.061720634218385806,0.04291426902543046,0.224609375,,
3.040285000000149,1350,,,,-0.03125,-0.3828125,-0.826171875,0.1080172158042282,1.9857499006218218,22.940087873427004,1.9964961002902877,2845,0,45.799795979613535,32.180235955699175,70.26283691312355,0.0617071268015405,0.04335717786834076,0.2265625,,
3.047855000000447,1350,,,,0,0.09765625,-1,0.1080172158042282,1.9857499006218218,22.94051871478093,1.983264608374159,2845,0,45.497118864770066,32.185936713778275,70.74280199905344,0.0616961972640602,0.04364561867145953,0.2265625,,
3.0593950000004844,1350,,,,-0.25,0.66015625,-1.26953125,0.1328996565362685,1.9857499006218218,22.94097119445282,1.9628349224245412,2846,0,45.02933941480744,39.6140386222437,87.97383913923692,0.05012742880264681,0.04409902357947602,0.23046875,,
3.0772800000002607,1350,,,,0.03125,0.4609375,-1.15625,0.1328996565362685,1.9857499006218218,22.942293180132257,1.9144948810012854,2848,0,43.92290285179391,39.64026096935891,90.24963833359188,0.05009426911081046,0.04520989669836268,0.236328125,,
3.0858750000004656,1350,,,,-0.09375,-0.431640625,-0.77734375,0.1328996565362685,3.1678235158275143,22.942945804502074,1.8967275580048237,2850,0,43.51651756921024,39.660122251002605,91.13808840040042,0.07987427511642205,0.07279588746478377,0.240234375,,
3.0937950000003913,1350,,,,0.0625,0.34375,-1.125,0.1328996565362685,3.1678235158275143,22.943512644257655,1.8793085450392744,2851,0,43.117939365570045,39.68407336928349,92.03610829549864,0.07982606740868221,0.0734688058482925,0.2421875,,
3.1035650000004096,1350,,,,-0.03125,0.169921875,-1.0234375,0.1328996565362685,3.1678235158275143,22.943907868967354,1.8692566517522027,2851,0,42.888052401256935,39.67166815502593,92.50051222625174,0.07985102878579581,0.07386261064479285,0.244140625,,
3.111945000000298,1350,,,,-0.0625,-0.23828125,-0.908203125,0.1328996565362685,3.1678235158275143,22.943758717474072,1.870485384592915,2849,0,42.91596534866154,39.65555571143953,92.40280485191582,0.07988347304672078,0.07381456970829417,0.248046875,,
3.120589999999851,1350,,,,-0.03125,0.431640625,-1.06640625,0.1328996565362685,3.1678235158275143,22.943771311335066,1.87062153011223,2854,0,42.91911259695468,39.722998270452635,92.55316773085185,0.07974784517169373,0.07380915690349774,0.25,,
3.127925000000279,1350,,,,-0.0625,-0.59765625,-0.640625,0.1328996565362685,3.1678235158275143,22.944181974847723,1.8525598718443588,2856,0,42.50547081889754,39.7457630651421,93.50740575133565,0.07970216877294689,0.07452743034713379,0.25390625,,
3.1394050000002607,1350,,,,-0.15625,0.3515625,-1.16015625,0.1328996565362685,3.1678235158275143,22.944759510112366,1.8331916538357602,2861,0,42.06214163320668,39.820750095745225,94.67123772011658,0.07955208046585718,0.07531293920913008,0.255859375,,
3.1544000000003725,1350,,,,-0.125,0.16796875,-1.0703125,0.1328996565362685,3.1678235158275143,22.94624285409361,1.790257628081983,2863,0,41.079686305362785,39.83821086808283,96.9778848162288,0.07951721341897605,0.07711411163852944,0.263671875,,
3.1629250000002793,1350,,,,0.125,0.46484375,-1.0234375,0.1328996565362685,3.1678235158275143,22.94679377309865,1.7757332616037713,2860,0,40.74738495005358,39.799136181904494,97.67285981833827,0.07959528320787604,0.07774298938963808,0.265625,,
3.170850000000093,1350,,,,-0.1875,-0.474609375,-0.841796875,0.1328996565362685,3.1678235158275143,22.947244785943912,1.7635932835113133,2859,0,40.46960677958069,39.783975441980246,98.30581171362806,0.0796256151034321,0.07827660725939814,0.26953125,,
3.1789500000001865,1350,,,,0.09375,0.474609375,-1.083984375,0.1328996565362685,3.1678235158275143,22.947741121492648,1.75094626771843,2856,0,40.18026166924629,39.74586322872061,98.91887602897775,0.07970196791545403,0.07884029083494361,0.2734375,,
3.1881800000001674,1350,,,,-0.3125,-0.26171875,-0.921875,0.1328996565362685,3.1678235158275143,22.94845238689265,1.7380144516290115,2855,0,39.88474189093971,39.72957417220602,99.61095970193821,0.07973464558408624,0.07942444568124742,0.275390625,,
3.196045000000391,1350,,,,0.09375,-0.185546875,-0.845703125,0.1328996565362685,3.1678235158275143,22.948698439212297,1.7278603925589497,2853,0,39.652147093894314,39.70488470342124,100.13300064029838,0.07978422653761172,0.07989034006976384,0.27734375,,
3.2036650000000373,1350,,,,-0.0625,0.31640625,-1.125,0.12787068931167997,3.1678235158275143,22.948932520705096,1.7216277551638166,2852,0,39.50951917902742,38.19392955934614,96.67019582364436,0.08294049741347813,0.08017874126671401,0.279296875,,
3.2109300000001677,1350,,,,0.125,-0.640625,-0.6328125,0.12787068931167997,3.1678235158275143,22.949182033172505,1.717174489610361,2852,0,39.407749944788264,38.19606775678318,96.92526929423096,0.08293585444446556,0.08038580026176967,0.283203125,,
3.2183100000000557,1350,,,,-0.1875,0.3828125,-1.08984375,0.12787068931167997,3.1678235158275143,22.94951137671804,1.7092930692917048,2853,0,39.227440739855275,38.19705036597916,97.37329187313198,0.08293372094115908,0.08075529415328361,0.283203125,,
3.2274050000002608,1350,,,,0.125,0.20703125,-1.05859375,0.12787068931167997,3.1678235158275143,22.949767352733925,1.7003013283532635,2851,0,39.02151991525185,38.17269344563607,97.82472217520156,0.0829866386122057,0.08118144866492878,0.28515625,,
3.2356699999999257,1350,,,,-0.125,-0.369140625,-0.779296875,0.12787068931167997,3.661552997251209,22.949999126986185,1.6930118742047107,2851,0,38.85462103497535,38.17135952296128,98.2414922760435,0.09592409185867926,0.09423725929420924,0.287109375,,
3.243905000000261,1350,,,,0,0.46875,-1.16015625,0.12787068931167997,3.661552997251209,22.950227964737863,1.6857772378862326,2851,0,38.688971907255166,38.175002090738964,98.67153405433392,0.09591493901029756,0.09464074170873936,0.2890625,,
3.2517050000000745,1350,,,,-0.09375,-0.4453125,-0.771484375,0.12787068931167997,3.661552997251209,22.950414312292704,1.6812012794998292,2851,0,38.58426590687769,38.17232894179443,98.93237060392063,0.09592165578459684,0.09489756799023441,0.29296875,,
3.260185000000056,1350,,,,0,0.27734375,-1.09765625,0.12787068931167997,3.661552997251209,22.950558929211034,1.676088604282639,2850,0,38.46717028316778,38.169218148023674,99.22543786571563,0.09592947340580507,0.09518644002918529,0.29296875,,
3.2691150000002236,1350,,,,-0.0625,0.34375,-1.033203125,0.12787068931167997,3.661552997251209,22.950784909784055,1.6705695747145735,2850,0,38.3408829861036,38.16793508537309,99.54892040229434,0.09593269819446974,0.09549996536538594,0.296875,,
3.2781699999999256,1350,,,,0,-0.23828125,-0.87890625,0.12787068931167997,3.661552997251209,22.95074211140821,1.666699309089638,2850,0,38.25198602017853,38.16747744663592,99.77907402376958,0.0959338484543714,0.09572190566313817,0.30078125,,
3.288005000000354,1350,,,,-0.03125,0.32421875,-1.185546875,0.12787068931167997,3.661552997251209,22.951132843050402,1.6587918896798755,2851,0,38.07115301901743,38.17348919666606,100.2688024121505,0.09591874031706267,0.09617657220473931,0.3046875,,
3.2965150000001304,1350,,,,0,-0.58203125,-0.6796875,0.12787068931167997,3.661552997251209,22.95125082142443,1.6513648566702588,2851,0,37.90088902312471,38.18077084248299,100.73845713536565,0.09590044717423753,0.09660863086924325,0.306640625,,
3.3041200000001116,1350,,,,-0.09375,0.271484375,-1.103515625,0.12787068931167997,3.661552997251209,22.951379844019648,1.6480266298322976,2852,0,37.82448517434062,38.18477069017864,100.95251928526558,0.09589040162006218,0.09680377618821191,0.306640625,,
3.311780000000261,1350,,,,0.09375,-0.068359375,-0.873046875,0.12787068931167997,3.661552997251209,22.95141016824183,1.6402646121582527,2851,0,37.64638589809616,38.178261952952994,101.41282102429845,0.09590674928479809,0.09726174000241493,0.30859375,,
3.3199500000001865,1350,,,,-0.375,-0.32421875,-0.8828125,0.12787068931167997,3.661552997251209,22.95163245011204,1.6377733166878292,2851,0,37.589571201220004,38.171623477103644,101.54844085017056,0.09592342855020315,0.09740874610275868,0.310546875,,
3.3275250000003727,1350,,,,0.09375,0.560546875,-1.1484375,0.12787068931167997,3.661552997251209,22.951747970610633,1.6330622369485839,2850,0,37.48163288276552,38.160798842246926,101.81199672278338,0.09595063804580499,0.09768926046268472,0.314453125,,
3.336140000000596,1350,,,,-0.1875,-0.41015625,-0.84765625,0.12787068931167997,3.661552997251209,22.95189457743754,1.6306224856350122,2849,0,37.42587538589396,38.15229364747373,101.94095195927886,0.0959720280799857,0.09783479903936383,0.31640625,,
3.345060000000056,1350,,,,0,-0.111328125,-0.955078125,0.12787068931167997,3.661552997251209,22.95204874905591,1.6258854374906948,2850,0,37.31740182166652,38.16847429701496,102.28063164583527,0.09593134293915352,0.09811918350449862,0.318359375,,
3.3541950000002982,1350,,,,-0.09375,0.232421875,-1.119140625,0.12415670284895573,3.661552997251209,22.952260720853534,1.6199366905305073,2851,0,37.18120927233283,37.065355900506574,99.68840881161856,0.09878639792586387,0.09847858821460745,0.322265625,,
3.3620600000005214,1350,,,,0,-0.267578125,-0.837890625,0.12415670284895573,3.661552997251209,22.952313751705155,1.6235492202344934,2851,0,37.26421109415835,37.06728074037941,99.47152952391414,0.09878126811882587,0.09825923828091467,0.322265625,,
3.3701049999999815,1350,,,,-0.125,0.455078125,-1.126953125,0.12415670284895573,3.661552997251209,22.951806462225285,1.6351844558259196,2852,0,37.53043716015568,37.07601993641708,98.7892034888924,0.09875798436645923,0.09756222613730996,0.32421875,,
3.377945000000298,1350,,,,0.125,-0.53125,-0.640625,0.12415670284895573,3.661552997251209,22.95142245764033,1.6458203187039988,2853,0,37.77391742394372,37.095418827517754,98.20379075643373,0.09870633929963966,0.09693336690915365,0.326171875,,
3.3859350000005217,1350,,,,-0.25,0.173828125,-1.04296875,0.12415670284895573,3.810139833909253,22.951450565040833,1.6375761679680958,2857,0,37.584748465608754,37.146782968907644,98.83472548152913,0.10256984668358472,0.10137462639654628,0.328125,,
3.393915000000037,1350,,,,0.1875,0.515625,-1.11328125,0.12415670284895573,3.810139833909253,22.951808084396472,1.6278534538792535,2860,0,37.36218006295857,37.18957543734798,99.53802314179812,0.10245182390769872,0.10197852019043942,0.330078125,,
3.40206500000041,1350,,,,-0.125,-0.435546875,-0.802734375,0.12415670284895573,3.810139833909253,22.952011601966454,1.6304364196993262,2862,0,37.42179562120758,37.21013055857269,99.43438026123222,0.10239522884531913,0.10181606121941356,0.33203125,,
3.40933000000054,1350,,,,-0.0625,0.375,-1.21875,0.12415670284895573,3.810139833909253,22.951750205152592,1.63615028104593,2863,0,37.552512548656395,37.22034142921338,99.11544901552824,0.10236713817242857,0.1014616486439488,0.333984375,,
3.4171800000006334,1350,,,,0.03125,0.28125,-0.939453125,0.12415670284895573,3.810139833909253,22.951496992626055,1.6417078135462366,2865,0,37.679651945377145,37.25068092239064,98.86153135488522,0.10228376339878002,0.10111929482344152,0.337890625,,
3.425155000000261,1350,,,,-0.03125,-0.232421875,-0.892578125,0.12415670284895573,3.810139833909253,22.951715205405105,1.6336781185772877,2867,0,37.49571491488794,37.27841647871734,99.42047128141482,0.10220766314160647,0.10161534038110606,0.341796875,,
3.4348400000003165,1350,,,,-0.1875,0.70703125,-1.26953125,0.12415670284895573,3.810139833909253,22.952191543758392,1.6241426951704838,2868,0,37.277634233948945,37.28351960724608,100.01578794743303,0.10219367361360245,0.10220980789707244,0.34375,,
3.444800000000279,1350,,,,0,-0.353515625,-0.76953125,0.12415670284895573,3.810139833909253,22.952737897061215,1.6163289088915689,2868,0,37.09917380123112,37.2840458655005,100.49831854817006,0.10219223116649027,0.10270147400918174,0.34375,,
3.4530600000005216,1350,,,,-0.15625,0.396484375,-1.146484375,0.12415670284895573,3.810139833909253,22.95310670560664,1.6065220852566093,2867,0,36.87467284780864,37.279145942846185,101.09688592142068,0.1022056631809832,0.10332674271131002,0.345703125,,
3.463595000000205,1350,,,,0.0625,-0.212890625,-0.83984375,0.12415670284895573,3.810139833909253,22.953538604842972,1.5958958529823424,2865,0,36.631457070739,37.25045068934203,101.68978705217128,0.10228439558180694,0.10401278405473996,0.345703125,,
3.470584999999963,1350,,,,-0.1875,0.1796875,-1.11328125,0.12415670284895573,3.810139833909253,22.953651943341022,1.593072784392053,2863,0,36.56683821334434,37.219299024626245,101.78429649146916,0.10237000517898696,0.10419658958971242,0.34765625,,
3.4781450000000187,1350,,,,0.0625,0.0625,-0.865234375,0.12415670284895573,3.810139833909253,22.953759995348396,1.5903813932642237,2860,0,36.505232802054785,37.18896337079279,101.87296591818891,0.1024535100890076,0.10437242941496296,0.3515625,,
3.486975000000093,1350,,,,-0.25,-0.4921875,-0.89453125,0.12415670284895573,3.810139833909253,22.953808126767132,1.5856942331869366,2859,0,36.397721176294084,37.17538266910957,102.13656643241164,0.102490937829007,0.10468072480292545,0.353515625,,
3.4955150000001303,1350,,,,0.03125,0.595703125,-1.146484375,0.12415670284895573,3.810139833909253,22.953850658983995,1.5819863702069221,2858,0,36.31267888627786,37.15247505228427,102.31268028623401,0.10255413208803144,0.10492588128354972,0.35546875,,
3.5031100000003352,1350,,,,-0.15625,-0.546875,-0.80078125,0.12151226950147832,3.810139833909253,22.953955104081142,1.5771534209410742,2857,0,36.201908816529404,36.34855217952312,100.40507080368857,0.10482232731282451,0.10524693195651562,0.359375,,
3.511345000000205,1350,,,,0.0625,0.47265625,-1.03515625,0.12151226950147832,3.810139833909253,22.95405411002501,1.5738301555677126,2856,0,36.12578255089035,36.335787291469266,100.58131540896889,0.10485915175983483,0.1054687141667288,0.361328125,,
3.519149999999907,1350,,,,-0.09375,0.197265625,-1.1015625,0.12151226950147832,3.810139833909253,22.954151173891184,1.5739276670871925,2855,0,36.12817360708929,36.324715526713376,100.54401288523903,0.10489111280464833,0.10546173397377621,0.36328125,,
3.526714999999851,1350,,,,0.0625,-0.609375,-0.67578125,0.12151226950147832,3.810139833909253,22.95414399662726,1.5726557530199288,2854,0,36.098966611943716,36.31466955143051,100.59753217261192,0.10492012955021268,0.10554706107982131,0.3671875,,
3.534,1350,,,,-0.09375,0.328125,-1.09375,0.12151226950147832,3.830727306737654,22.954224459359263,1.5729794563082058,2853,0,36.10652351005945,36.302690282484726,100.54330008362788,0.10552185738658323,0.10609515772601022,0.365234375,,
3.5419900000002236,1350,,,,-0.0625,0.3046875,-1.046875,0.12151226950147832,3.830727306737654,22.95424649210174,1.5698852251387891,2852,0,36.0355324221444,36.28824431097581,100.70128529216935,0.10556386453722713,0.10630416839307227,0.365234375,,
3.5496150000002236,1350,,,,-0.03125,-0.376953125,-0.78515625,0.12151226950147832,3.830727306737654,22.95432998281426,1.5691335187489501,2851,0,36.01840857645787,36.282732480068915,100.73385780787606,0.10557990109598211,0.10635470744372282,0.3671875,,
3.5581450000000188,1350,,,,0.0625,0.556640625,-1.1328125,0.12151226950147832,3.830727306737654,22.954480830144842,1.5679422141550967,2851,0,35.99129949759803,36.28044032242904,100.80336311516149,0.10558657151604217,0.10643481508616569,0.37109375,,
3.566095000000205,1350,,,,-0.1875,-0.51171875,-0.8125,0.12151226950147832,3.830727306737654,22.95435879610188,1.5700374641603467,2851,0,36.039203275658544,36.27370350570065,100.6506809494329,0.10560618124189139,0.10629334054465596,0.373046875,,
3.5745950000002047,1350,,,,-0.03125,0.04296875,-0.96875,0.12151226950147832,3.830727306737654,22.954145586132128,1.5738731497747416,2850,0,36.12691341403375,36.271065334825714,100.39901532450311,0.10561386249274504,0.10603527798889072,0.375,,
3.583135000000242,1350,,,,-0.125,0.109375,-1.033203125,0.12151226950147832,3.830727306737654,22.95413771903661,1.5717120044750323,2851,0,36.07729380538298,36.274086025923864,100.54547389724537,0.10560506759563736,0.10618111567353988,0.376953125,,
3.5921350000002423,1350,,,,0.03125,-0.181640625,-0.87109375,0.12151226950147832,3.830727306737654,22.9542402608337,1.5712197874666793,2851,0,36.06615650408622,36.27723456798263,100.5852524481573,0.10559590201284408,0.10621390461452802,0.37890625,,
3.6021700000003913,1350,,,,-0.1875,0.7734375,-1.26953125,0.12151226950147832,3.830727306737654,22.954263418618105,1.5670051645963514,2851,0,35.96944932647967,36.27220806177575,100.84171078780793,0.1056105352123445,0.10649947048028847,0.380859375,,
3.6111500000003725,1350,,,,0.03125,-0.369140625,-0.8046875,0.12151226950147832,3.830727306737654,22.954205892234608,1.5659376452457672,2851,0,35.94485512337238,36.27244294592048,100.91136220030303,0.10560985132567398,0.1065723395904524,0.37890625,,
3.619149999999907,1350,,,,-0.125,0.439453125,-1.1015625,0.12151226950147832,3.830727306737654,22.954303190943154,1.5652957080569982,2851,0,35.93027226622238,36.27661712294089,100.9639360763879,0.10559769930463413,0.1066155936240671,0.380859375,,
3.626410000000149,1350,,,,0,-0.306640625,-0.869140625,0.12151226950147832,3.830727306737654,22.954291408783497,1.5653667034138943,2850,0,35.9318834717693,36.26248020927961,100.92006514985515,0.10563886652621644,0.10661081292182616,0.3828125,,
3.6343599999998695,1350,,,,0,-0.17578125,-0.859375,0.12151226950147832,3.830727306737654,22.954182187297288,1.5652427607520363,2849,0,35.92886749765042,36.255069870297206,100.90791164700117,0.1056604585356506,0.10661976214497061,0.3828125,,
3.6421699999999255,1350,,,,-0.03125,0.470703125,-1.201171875,0.12151226950147832,3.830727306737654,22.9541733046412,1.5659785345974098,2847,0,35.945742674497005,36.228601738603466,100.78690560567314,0.10573765265292627,0.10656970816895935,0.384765625,,
3.6504500000001863,1350,,,,-0.0625,-0.26171875,-0.796875,0.12159205304421646,3.830727306737654,22.95426240803352,1.5660335299682702,2846,0,35.9471445866707,36.24208786097352,100.82049152358039,0.10569830638434842,0.10656555202880003,0.384765625,,
3.6584400000004096,1350,,,,-0.09375,-0.044921875,-0.9921875,0.12159205304421646,3.830727306737654,22.9541378722859,1.566809896060317,2849,0,35.96477037383046,36.270782900503306,100.85086745582426,0.10561468488965253,0.10651332587194991,0.38671875,,
3.666215000000317,1350,,,,-0.03125,0.203125,-1.076171875,0.12159205304421646,3.830727306737654,22.95404622047865,1.5668226329049013,2850,0,35.964919134991156,36.29420605080887,100.91557807924372,0.10554652446109318,0.10651288530246256,0.388671875,,
3.6745600000005214,1350,,,,-0.0625,-0.67578125,-0.71484375,0.12159205304421646,3.830727306737654,22.953814470287956,1.568330252616573,2851,0,35.99916164670066,36.305285906887015,100.85036497013651,0.1055143131653723,0.10641156992301075,0.392578125,,
3.683285000000149,1350,,,,-0.03125,0.44140625,-1.083984375,0.12159205304421646,3.839385653405637,22.953716007407504,1.5689713543450283,2852,0,36.01372289139331,36.3098715402985,100.82232167387497,0.1057394446891528,0.10660896306066674,0.392578125,,
3.6912900000000373,1350,,,,0.03125,-0.28125,-0.861328125,0.12159205304421646,3.839385653405637,22.953630903149172,1.5662950041659305,2853,0,35.95215741107126,36.323244585780174,101.03216942022688,0.10570051484081024,0.10679152323201946,0.392578125,,
3.699254999999888,1350,,,,-0.0625,-0.16796875,-0.84375,0.12159205304421646,3.839385653405637,22.95348658343408,1.5663345734616132,2853,0,35.952839617120084,36.325497213793184,101.03651784015315,0.10569396010766183,0.1067894968601421,0.392578125,,
3.7083000000002793,1350,,,,-0.03125,0.4609375,-1.177734375,0.12159205304421646,3.839385653405637,22.95369842866965,1.5623149236249565,2853,0,35.86090560749731,36.32334206582968,101.28952811006448,0.105700231174968,0.10706326536837237,0.39453125,,
3.7163100000005214,1350,,,,-0.1875,-0.416015625,-0.7734375,0.12159205304421646,3.839385653405637,22.95381129844208,1.5599970295238048,2853,0,35.80787744181959,36.326519080568744,101.44840095476711,0.10569098693134477,0.10722181619516115,0.396484375,,
3.72444000000041,1350,,,,0.125,0.5625,-1.15625,0.12159205304421646,3.839385653405637,22.95378778272926,1.5603493255128673,2853,0,35.8159272847471,36.32974520316344,101.43460733078706,0.10568160145178557,0.10719771745350604,0.3984375,,
3.7341750000002794,1350,,,,-0.03125,0.087890625,-1.02734375,0.12159205304421646,3.839385653405637,22.953691246620636,1.5624726514680034,2853,0,35.864514823085244,36.33106281434731,101.30086240832613,0.10567776871887836,0.10705249108610009,0.400390625,,
3.7415600000005216,1350,,,,0,-0.076171875,-0.904296875,0.12159205304421646,3.839385653405637,22.953816298677136,1.565779783064049,2853,0,35.94062150463472,36.331542874284466,101.0876867268401,0.1056763723657649,0.10682580024139342,0.40234375,,
3.7490200000004843,1350,,,,-0.125,0.6171875,-1.2109375,0.12159205304421646,3.839385653405637,22.953854349253156,1.5619611575353234,2854,0,35.85302890925668,36.33726419162092,101.35061192065481,0.10565973357705254,0.10708678653407631,0.40234375,,
3.7606750000002793,1350,,,,0,-0.404296875,-0.841796875,0.12159205304421646,3.839385653405637,22.95394736031115,1.558801686296923,2854,0,35.78065185242382,36.3396539837827,101.56230281567946,0.10565278511234698,0.10730340154900093,0.404296875,,
3.778850000000093,1350,,,,-0.041015625,-0.171875,-0.86328125,0.12159205304421646,3.839385653405637,22.954054948405265,1.555328541044274,2854,0,35.70109679395326,36.34560907736027,101.80530107275632,0.10563547429439546,0.10754251264504341,0.404296875,,
3.7862400000002236,1350,,,,-0.1875,0.6015625,-1.25390625,0.12159205304421646,3.839385653405637,22.954137455537495,1.5530680051028356,2854,0,35.6493364669279,36.337914357962006,101.93153073598693,0.10565784308874043,0.10769865680298027,0.40625,,
3.794290000000503,1350,,,,0.03125,-0.01171875,-0.96484375,0.12159205304421646,3.839385653405637,22.95429653865949,1.5548453420712893,2853,0,35.69038105365783,36.328292919022644,101.78734955058553,0.10568582625018456,0.10757480139069982,0.40625,,
3.8021750000002794,1350,,,,-0.25,-0.39453125,-0.88671875,0.12207550649504163,3.839385653405637,22.95428210350987,1.5602393085854278,2853,0,35.814173238255094,36.46899400182257,101.82838441979732,0.10527807959862454,0.1072029676034676,0.408203125,,
3.8104600000004285,1350,,,,0.0625,0.501953125,-1.134765625,0.12207550649504163,3.839385653405637,22.954104010882176,1.5616472334977887,2852,0,35.846213026014645,36.4616244246619,101.7168100803302,0.10529935827019148,0.10710714826749712,0.408203125,,
3.818310000000056,1350,,,,-0.09375,-0.412109375,-0.796875,0.12207550649504163,3.839385653405637,22.954001591828522,1.5625474958279386,2852,0,35.866717706542175,36.460697438488474,101.6560749628839,0.10530203542822861,0.10704591607236266,0.41015625,,
3.8264400000004097,1350,,,,0.125,0.1953125,-1.05078125,0.12207550649504163,3.839385653405637,22.954035409744932,1.5614567743822863,2852,0,35.8417340899571,36.46431144204472,101.73701794261696,0.1052915988694272,0.10712053283385746,0.41015625,,
3.834345000000205,1350,,,,-0.09375,0.341796875,-1.1171875,0.12207550649504163,3.9171252275849193,22.954128708333634,1.5611071853583582,2852,0,35.833855260220204,36.463724766659475,101.75774976447623,0.10742526312524535,0.1093135304348173,0.41015625,,
3.8424600000004285,1350,,,,0,-0.59375,-0.671875,0.12207550649504163,3.9171252275849193,22.954350138844955,1.560128455557534,2852,0,35.81173483044305,36.45957548873228,101.80901780200413,0.10743748864534902,0.10938105194096955,0.412109375,,
3.8504300000006335,1350,,,,-0.09375,0.38671875,-1.111328125,0.12207550649504163,3.9171252275849193,22.95423516873377,1.5611068849600886,2851,0,35.83401456090329,36.45010715779271,101.71929549183587,0.10746539675803046,0.1093130444797748,0.41015625,,
3.8586400000005963,1350,,,,0,0.1796875,-0.97265625,0.12207550649504163,3.9171252275849193,22.954321942169006,1.5607619387980198,2851,0,35.82623201825363,36.44243942300889,101.71998943243963,0.1074880082015514,0.1093367905837579,0.41015625,,
3.8672050000000744,1350,,,,-0.09375,-0.376953125,-0.8203125,0.12207550649504163,3.9171252275849193,22.95426781815404,1.5634948550776715,2850,0,35.88887963575881,36.439243081716846,101.53352083303729,0.10749743672777637,0.10914593231497788,0.412109375,,
3.8743349999999626,1350,,,,0.03125,0.388671875,-1.185546875,0.12207550649504163,3.9171252275849193,22.953996359570645,1.565061586799633,2850,0,35.924417965902634,36.438233036280295,101.43026693115904,0.10750041649068912,0.10903795939861369,0.412109375,,
3.882855000000447,1350,,,,-0.09375,-0.365234375,-0.787109375,0.12207550649504163,3.9171252275849193,22.954107095880318,1.5637362102709569,2851,0,35.89416844026557,36.446051327762156,101.53752799264599,0.10747735584186911,0.1091298502736936,0.412109375,,
3.891465000000317,1350,,,,0.0625,0.265625,-1.15625,0.12207550649504163,3.9171252275849193,22.954134438932634,1.563054254784231,2851,0,35.878557499662904,36.45257148924811,101.599880345219,0.10745813169148569,0.10917733321975731,0.41015625,,
3.9000900000003167,1350,,,,-0.03125,0.265625,-1.0390625,0.12207550649504163,3.9171252275849193,22.95409054452867,1.5616047158328648,2851,0,35.84521604199054,36.44909276305283,101.68467870400025,0.10746838756863578,0.10927888460753703,0.412109375,,
3.9098100000000557,1350,,,,-0.0625,-0.171875,-0.890625,0.12207550649504163,3.9171252275849193,22.95417234690669,1.5596104843574334,2851,0,35.79956785198315,36.44800465555994,101.81129785213558,0.10747159589674228,0.10941822660487581,0.4140625,,
3.9179400000004097,1350,,,,-0.09375,0.2734375,-1.1640625,0.12207550649504163,3.9171252275849193,22.95438787908865,1.5583469931571812,2851,0,35.770901331141445,36.44056688372432,101.87209583114385,0.10749353159306776,0.10950591351677089,0.416015625,,
3.9254850000003354,1350,,,,0,-0.5546875,-0.64453125,0.12207550649504163,3.9171252275849193,22.954399570213564,1.5576258392060522,2850,0,35.75436589402495,36.436169315841205,101.90690956130253,0.10750650524290671,0.10955655707040593,0.416015625,,
3.9344150000000373,1350,,,,-0.09375,0.296875,-1.111328125,0.12207550649504163,3.9171252275849193,22.95448808380369,1.5563508887537576,2850,0,35.72523793011541,36.43076347292376,101.97486590345031,0.10752245778478464,0.10964588214212813,0.416015625,,
3.942510000000242,1350,,,,0.0625,-0.07421875,-0.892578125,0.12207550649504163,3.9171252275849193,22.954366509327023,1.557301793584395,2849,0,35.74687613556854,36.42504763025988,101.8971489763732,0.1075393302802655,0.10957951158387617,0.416015625,,
3.950735000000335,1350,,,,-0.25,-0.3125,-0.9375,0.12227116828783045,3.9171252275849193,22.95438134251469,1.5575706193994483,2849,0,35.75306996559175,36.479199030822976,102.03095584779165,0.1073796939531254,0.10956052812680718,0.41796875,,
3.95825,1350,,,,0.0625,0.544921875,-1.107421875,0.12227116828783045,3.9171252275849193,22.9544609340759,1.5618750145223304,2849,0,35.851999004762064,36.477534013548414,101.74477023918043,0.10738459529994622,0.10925820976020403,0.41796875,,
3.9664850000003353,1350,,,,-0.21875,-0.462890625,-0.828125,0.12227116828783045,3.9171252275849193,22.954341421557928,1.5589655218417122,2849,0,35.78502685279189,36.47688198486574,101.93336485374157,0.10738651481259102,0.10946268794763563,0.419921875,,
3.9745750000001863,1350,,,,0.1875,0.38671875,-1.03125,0.12227116828783045,3.9171252275849193,22.954226319330317,1.556161695819433,2851,0,35.72048775531213,36.500181704611094,102.18276400546355,0.10731796513467949,0.10966046304903519,0.419921875,,
3.9835850000004283,1350,,,,-0.09375,0.255859375,-1.095703125,0.12227116828783045,4.02447241966078,22.954543725784173,1.564457004346049,2851,0,35.911396713370706,36.509873095899394,101.66653607851977,0.11022970167794936,0.11206671942565712,0.421875,,
3.990715000000317,1350,,,,0.0625,-0.30859375,-0.8046875,0.12227116828783045,4.02447241966078,22.954037667003387,1.5771876542356673,2852,0,36.20282482325822,36.51893173893968,100.87315538835627,0.11020235883213242,0.1111645966663709,0.421875,,
4.003995000000112,1350,,,,-0.3125,0.8046875,-1.3046875,0.12227116828783045,4.02447241966078,22.9533969475308,1.5853913345777533,2856,0,36.390116619738784,36.56580259285818,100.48278485874403,0.11006109901295635,0.11059245733435819,0.423828125,,
4.012765000000596,1350,,,,0,-0.1484375,-0.8515625,0.12227116828783045,4.02447241966078,22.953649692511288,1.5783144047453446,2860,0,36.22807595116912,36.61471217739087,101.06722815405071,0.10991408044293849,0.1110871144546915,0.421875,,
4.021149999999907,1350,,,,-0.03125,0.435546875,-1.20703125,0.12227116828783045,4.02447241966078,22.95392763841354,1.5738430782745154,2860,0,36.12588013293124,36.62603800014683,101.38448631666597,0.10988009185281375,0.11140136668925595,0.423828125,,
4.02970500000054,1350,,,,0.0625,-0.4375,-0.62890625,0.12227116828783045,4.02447241966078,22.953931321823653,1.5719068841606416,2861,0,36.08144266332518,36.626866151024515,101.51164545383806,0.10987760741163516,0.11153856726885916,0.423828125,,
4.037360000000335,1350,,,,-0.15625,0.06640625,-1.072265625,0.12227116828783045,4.02447241966078,22.954032282309818,1.568920754056572,2860,0,36.013057637000415,36.62423832797565,101.69710857971496,0.10988549123181798,0.11175036733137511,0.423828125,,
4.049725000000559,1350,,,,0.0625,0.166015625,-0.982421875,0.12227116828783045,4.02447241966078,22.954030034329787,1.563400518089051,2859,0,35.88634244790282,36.60513098434461,102.00295847225244,0.10994284985298858,0.1121449594787548,0.42578125,,
4.059325000000186,1350,,,,-0.09375,-0.12109375,-0.9375,0.12227116828783045,4.02447241966078,22.95393580121542,1.561005719055457,2857,0,35.83122506052907,36.58666339690459,102.10832405283206,0.10999834491606769,0.11231746647965031,0.427734375,,
4.076870000000578,1350,,,,0.03125,-0.205078125,-0.830078125,0.12227116828783045,4.02447241966078,22.95378848755509,1.5626822036272243,2853,0,35.8694767753258,36.53596534059554,101.85809391490261,0.11015098087990415,0.11219768955283921,0.431640625,,
4.0845050000003535,1350,,,,-0.09375,0.30078125,-1.162109375,0.12227116828783045,4.02447241966078,22.953707909334174,1.5611202650656233,2854,0,35.83349857565866,36.540883527266246,101.97408843603148,0.11013615520976061,0.11231034031364619,0.4296875,,
4.092950000000187,1350,,,,0.125,-0.46875,-0.65234375,0.12227116828783045,4.02447241966078,22.953755197787075,1.5597049790657715,2853,0,35.801086270245335,36.52534975313137,102.02302097042228,0.11018299473821619,0.1124120198276096,0.4296875,,
4.100745000000112,1350,,,,-0.1875,0.1796875,-1.064453125,0.12188726399061141,4.02447241966078,22.953572414902318,1.5587975078364495,2852,0,35.779971476293206,36.40462007684592,101.7458051943015,0.11054839773538595,0.1124783574052674,0.4296875,,
4.108460000000428,1350,,,,0.1875,0.44921875,-1.01171875,0.12188726399061141,4.02447241966078,22.95342782372536,1.5564033825560746,2851,0,35.72479270610287,36.39627739957574,101.87960417012624,0.11057373740391628,0.11265208598322474,0.431640625,,
4.116765000000131,1350,,,,-0.1875,-0.427734375,-0.849609375,0.12188726399061141,4.02447241966078,22.953456310318543,1.555965438863162,2851,0,35.71478472131121,36.39303284893567,101.8990682231937,0.11058359539217347,0.11268365331233132,0.431640625,,
4.1248700000001115,1350,,,,0.09375,0.48046875,-1.123046875,0.12188726399061141,4.02447241966078,22.953482748670076,1.5520943611955713,2850,0,35.62597114401065,36.38014394724468,102.11691858219231,0.11062277338695305,0.11296456743291795,0.43359375,,
4.132600000000559,1350,,,,-0.1875,-0.359375,-0.81640625,0.12188726399061141,4.108614200009677,22.95360611437186,1.551979317956733,2850,0,35.62352196203033,36.37496968564854,102.10941446053296,0.112951687259569,0.11533430648403833,0.43359375,,
4.140245000000112,1350,,,,0.03125,-0.130859375,-0.916015625,0.12188726399061141,4.108614200009677,22.95332775313753,1.5603298940619903,2850,0,35.814763461423226,36.378809626212224,101.57489847837901,0.11293976472086857,0.11471845135694236,0.43359375,,
4.149075000000186,1350,,,,-0.1875,0.62890625,-1.22265625,0.12188726399061141,4.108614200009677,22.952847777409197,1.576424258790463,2850,0,36.18342604463262,36.38033654601197,100.54420082038793,0.11293502452384722,0.1135496178538113,0.435546875,,
4.157570000000298,1350,,,,0.0625,-0.318359375,-0.767578125,0.12188726399061141,4.108614200009677,22.95211385503709,1.5915628418715055,2853,0,36.52973155408119,36.41714725134637,99.69180090314067,0.11282086901680027,0.11247315611742163,0.43359375,,
4.1664850000003355,1350,,,,-0.1875,0.359375,-1.1796875,0.12188726399061141,4.108614200009677,22.952329142655056,1.5821561724164779,2858,0,36.314169224386305,36.48165793299789,100.46122136947886,0.11262136736097755,0.11314080117384567,0.43359375,,
4.17455000000028,1350,,,,0.09375,-0.1171875,-0.83203125,0.12188726399061141,4.108614200009677,22.952506492885615,1.5751451256448064,2862,0,36.15352872359954,36.526497131584954,101.03162380313364,0.11248311561901464,0.11364351821424673,0.435546875,,
4.182755000000354,1350,,,,-0.125,-0.3125,-0.890625,0.12188726399061141,4.108614200009677,22.95267924352388,1.5713150869064485,2862,0,36.06589118027356,36.532753699249376,101.29447104645834,0.11246385185834198,0.11391966385838002,0.435546875,,
4.190160000000149,1350,,,,-0.03125,0.544921875,-1.171875,0.12188726399061141,4.108614200009677,22.952942103678254,1.5662798336233665,2862,0,35.95073033931594,36.53520602222885,101.62576859328425,0.1124563030384967,0.11428458229446514,0.4375,,
