Time (s),ESC signal (µs),Servo 1 (µs),Servo 2 (µs),Servo 3 (µs),AccX (g),AccY (g),AccZ (g),Torque (N·m),Thrust (N),Voltage (V),Current (A),Motor Electrical Speed (RPM),Motor Optical Speed (RPM),Electrical Power (W),Mechanical Power (W),Motor Efficiency (%),Propeller Mech. Efficiency (N/W),Overall Efficiency (N/W),Vibration (g),App message,90% settling time (s),Max acceleration (RPM/s),
0,1000,,,,-0.03125,0.056640625,-0.96484375,0.024628516515214135,0.1337546196617946,23.01082061020033,0.08057125027853426,0,0,1.8540105864989054,0,0,0,0,0.076171875,,
0,1140,,,,-0.0625,0.03515625,-0.953125,0.024628516515214135,0.1337546196617946,23.01108940202569,0.07922635911462805,0,0,1.823084832583699,0,0,0,0,0.078125,,
0.008234999999869614,1140,,,,-0.125,0.111328125,-0.994140625,0.024628516515214135,0.1337546196617946,23.01113519927482,0.07842175760141258,0,0,1.8045736667308625,0,0,0,0,0.080078125,,
0.016664999999571592,1140,,,,0.125,-0.0546875,-0.953125,0.024284716407453256,0.1337546196617946,23.01090227202203,0.07808051453785428,0,0,1.7967030893797602,0,0,0,0,0.080078125,,
0.025419999999925495,1140,,,,-0.09375,0.037109375,-0.94921875,0.024284716407453256,0.1337546196617946,23.010958648780456,0.07698299064041443,0,0,1.7714524142860293,0,0,0,0,0.08203125,,
0.03344500000029802,1140,,,,-0.09375,0.060546875,-0.951171875,0.024284716407453256,0.1337546196617946,23.01094444555762,0.07652217460110727,0,0,1.7608475085993398,0,0,0,0,0.08203125,,
0.0416750000002794,1140,,,,0.0625,-0.05859375,-0.96875,0.024284716407453256,0.1337546196617946,23.010996894581627,0.08049546423751527,0,0,1.8522808775973705,0,0,0,0,0.08203125,,
0.04950999999977648,1140,,,,0.09375,-0.017578125,-1.00390625,0.024284716407453256,0.1337546196617946,23.0082849762246,0.1730648834829209,0,0,3.98192615855215,0,0,0,0,0.083984375,,
0.056760000000242145,1140,,,,-0.5,0.1171875,-0.890625,0.024284716407453256,0.1337546196617946,23.006109813957412,0.2372586811089107,0,0,5.458399271906303,0,0,0,0,0.087890625,,
0.06475499999988824,1140,,,,0.15625,-0.03515625,-0.998046875,0.024284716407453256,0.1337546196617946,23.00423399325663,0.28415845125479167,0,0,6.536847503826635,0,0,0,0,0.08984375,,
0.07269499999983237,1140,,,,-0.09375,0.021484375,-0.974609375,0.024284716407453256,0.1337546196617946,23.003112219469898,0.3172170784658387,0,0,7.296980053882075,0,0,0,0,0.091796875,,
0.08083000000007451,1140,,,,-0.125,0.1171875,-0.921875,0.024284716407453256,0.1337546196617946,23.002112014176575,0.3488505384673971,0,0,8.024299162032882,0,0,0,0,0.09375,,
0.08858499999996275,1140,,,,-0.09375,0.0234375,-1,0.024284716407453256,0.1337546196617946,23.00103359070824,0.3685774374840869,0,0,8.47766202034865,0,0,0,0,0.095703125,,
0.09714000000013039,1140,,,,-0.125,-0.099609375,-0.94921875,0.024284716407453256,0.1337546196617946,23.000320337002783,0.41477705935429815,0,0,9.540005233588873,0,0,0,0,0.095703125,,
0.10611499999975786,1140,,,,0.125,-0.16015625,-1.05078125,0.024284716407453256,0.1586573384090005,22.999126137402364,0.44333430125786377,1,0,10.196301515666748,0.002347815829958682,0.023026151456498545,0,0.015560283124741012,0.09765625,,
0.11460999999986962,1140,,,,-0.125,0.138671875,-1.021484375,0.024284716407453256,0.1586573384090005,22.998883821454644,0.44885747028325695,2,0,10.323220811436657,0.003845795781564078,0.03725383629596961,0,0.01536897653426446,0.1015625,,
0.12664500000001863,1140,,,,-0.0625,0.07421875,-0.953125,0.024284716407453256,0.1586573384090005,22.998892444376033,0.44778166021673055,2,0,10.29848224188872,0.004463103926771485,0.043337492088086176,0,0.015405895226353576,0.1015625,,
0.13697999999998137,1140,,,,-0.0625,0.01171875,-0.89453125,0.024284716407453256,0.1586573384090005,22.998880495508924,0.4436229041031993,2,0,10.202830156540097,0.0046095676453573545,0.045179303924828974,0,0.01555032632855305,0.103515625,,
0.15016500000003724,1140,,,,0,0.037109375,-0.986328125,0.024284716407453256,0.1586573384090005,22.998888797627917,0.43656183854843394,2,0,10.040437178063424,0.004670210706640905,0.046514017505577224,0,0.01580183567660168,0.103515625,,
0.16786000000033527,1140,,,,-0.03125,0.1015625,-1.0234375,0.0241427328814313,0.1586573384090005,22.999449443977056,0.41423536397534555,462,0,9.527185311658394,1.1685225146173455,12.265138930250755,0.13577602179189147,0.01665311770674303,0.103515625,,
0.17553500000014902,1140,,,,-0.0625,-0.01171875,-0.916015625,0.0241427328814313,0.1586573384090005,22.999798292619406,0.40545142859237143,637,0,9.325301075078924,1.6107584514211049,17.272991386044577,0.09849852922952151,0.01701364246919585,0.103515625,,
0.18265499999979512,1140,,,,-0.125,0.1015625,-0.9453125,0.0241427328814313,0.1586573384090005,23.00007015673152,0.39730397769858106,703,0,9.13801936061586,1.7777901280104684,19.454873729777844,0.0892441328755462,0.017362333362172667,0.10546875,,
0.19065999999968336,1140,,,,-0.0625,0.072265625,-1.009765625,0.0241427328814313,0.1586573384090005,23.000361175775105,0.3879315576566816,734,0,8.9225659375847,1.85449875900425,20.784365976972033,0.08555267974090723,0.017781582060456966,0.10546875,,
0.19796499999985098,1140,,,,-0.0625,-0.01171875,-0.94140625,0.0241427328814313,0.1586573384090005,23.000636113693126,0.3817221851715844,745,0,8.7798530776554,1.8828021192449684,21.44457432934354,0.08426660284014575,0.018070614280867772,0.10546875,,
0.20588999999966473,1140,,,,-0.09375,0.103515625,-1.01171875,0.0241427328814313,0.1586573384090005,23.000800464212126,0.3731619774641739,750,0,8.583024184484286,1.8958458142259549,22.088319611788062,0.08368683635476859,0.018485015887035335,0.10546875,,
0.21359499999973924,1140,,,,0.0625,0.0078125,-0.96484375,0.0241427328814313,0.1586573384090005,23.001152755208913,0.36309993434129956,777,0,8.351717055190559,1.9635559336851411,23.510805271651282,0.08080102821987725,0.01899697240226734,0.10546875,,
0.23512000000011177,1140,,,,-0.03125,0.04296875,-0.99609375,0.0241427328814313,0.1586573384090005,23.001874770799304,0.3417655181098316,829,0,7.861247648539687,2.0964550270167166,26.66822266318192,0.0756788656872702,0.020182208410451596,0.10546875,,
0.24252499999990687,1140,,,,-0.03125,0.01171875,-0.98046875,0.0241427328814313,0.1586573384090005,23.001978315321626,0.33327501844343727,833,0,7.665984747274359,2.105413564664649,27.464358905921753,0.07535685200844211,0.02069627629580285,0.10546875,,
0.25099500000011177,1140,,,,-0.03125,0.03515625,-0.95703125,0.0241427328814313,0.1586573384090005,23.002372784728486,0.3260788118961686,834,0,7.500586388437028,2.1089873555896066,28.117633027210253,0.07522915582613576,0.02115265796466102,0.10546875,,
0.2599249999998137,1140,,,,-0.0625,0.03125,-0.947265625,0.0241427328814313,0.26363606889390484,23.002608495118633,0.31713596946685046,835,0,7.294954545365858,2.110474725657499,28.930608306506645,0.12491789912896087,0.03613950810171675,0.10546875,,
0.2677799999997951,1140,,,,0.0625,0.03515625,-1.01171875,0.0241427328814313,0.26363606889390484,23.001822520717283,0.35332678375196647,842,0,8.127159971678587,2.1296394327326,26.203980728248705,0.12379375815540097,0.032438892529816084,0.103515625,,
0.2744550000000745,1140,,,,-0.15625,0.0859375,-0.9609375,0.0241427328814313,0.26363606889390484,23.000822000162245,0.38051652451281004,848,0,8.752192848439517,2.1450385439647017,24.508584089839314,0.12290504971841809,0.030122287460897314,0.10546875,,
0.2830449999999255,1140,,,,0,-0.00390625,-1.01171875,0.0241427328814313,0.26363606889390484,23.000037033942103,0.40533561216024233,851,0,9.322734090861166,2.1526400966538333,23.090223057675864,0.12247103884374974,0.02827883605007467,0.10546875,,
0.29099500000011175,1140,,,,-0.0625,0.095703125,-0.966796875,0.0241427328814313,0.26363606889390484,22.999550265987803,0.4228455401437715,853,0,9.725257255285436,2.1554942265654886,22.163878753891378,0.12230887266813793,0.027108390243417484,0.107421875,,
0.3019500000001863,1140,,,,-0.15625,0.0078125,-0.9765625,0.0241427328814313,0.26363606889390484,22.99917685272588,0.43565591745361765,853,0,10.0197274924523,2.15664220696584,21.523960692448014,0.12224376766919161,0.026311700502084277,0.107421875,,
0.320214999999851,1140,,,,0,-0.021484375,-0.958984375,0.042112168011135896,0.26363606889390484,22.998555494063524,0.45253683966514635,960,0,10.407693620146995,4.23530535937471,40.69398575661465,0.062247239932855136,0.025330882952161814,0.109375,,
0.32876499999966474,1140,,,,-0.0625,0.1171875,-0.953125,0.042112168011135896,0.26363606889390484,22.998620284091153,0.45230278357967024,979,0,10.402339972986296,4.319313243036921,41.52251564795701,0.061036570875915803,0.025343919692928513,0.109375,,
0.3370099999997765,1140,,,,-0.0625,0.009765625,-0.990234375,0.042112168011135896,0.26363606889390484,22.998623086302267,0.4491252275231966,989,0,10.329261826355747,4.360676514962021,42.21672940689224,0.06045760743529973,0.02552322453684165,0.109375,,
0.344679999999702,1140,,,,0,0.041015625,-1.001953125,0.042112168011135896,0.26363606889390484,22.99868344179721,0.4496159580340978,1013,0,10.340575089206594,4.465204639068454,43.18139562401319,0.05904232620991486,0.025495300466323766,0.109375,,
0.35312999999988826,1140,,,,-0.09375,0.052734375,-0.970703125,0.042112168011135896,0.26363606889390484,22.998748284714647,0.4527091372466771,1068,0,10.411743493726663,4.711842042303441,45.25507226664241,0.05595180537185902,0.025321029955525907,0.109375,,
0.36203499999968336,1140,,,,0.0625,0.04296875,-0.95703125,0.042112168011135896,0.26363606889390484,22.998817636610333,0.4531312885460633,1092,0,10.421483870713168,4.814665702311084,46.19942574436479,0.05475687933377329,0.02529736380773802,0.109375,,
0.37009999999962745,1140,,,,-0.09375,0.091796875,-0.970703125,0.042112168011135896,0.26363606889390484,22.9988752568989,0.4458795391580618,1100,0,10.25472790069983,4.849011671680442,47.285620044092276,0.054369031618053586,0.025708733712565213,0.109375,,
0.3785,1140,,,,-0.0625,0.06640625,-0.94140625,0.042112168011135896,0.26363606889390484,22.999065226412092,0.4396544803943286,1103,0,10.11164207167348,4.862839155655722,48.09148821909319,0.0542144332672988,0.026072527787791146,0.107421875,,
0.387054999999702,1140,,,,-0.0625,0.021484375,-0.994140625,0.042112168011135896,0.26363606889390484,22.999335531298765,0.431870363311597,1129,0,9.93273139182732,4.980313041799128,50.14041803140821,0.052935642133584995,0.026542152253389774,0.109375,,
0.39559500000020487,1140,,,,-0.0625,-0.01171875,-0.96875,0.042112168011135896,0.26363606889390484,22.999631546208633,0.4238569107498076,1150,0,9.748552775559812,5.073434277734722,52.04294826668136,0.05196402564056034,0.02704361098140185,0.109375,,
0.4036549999997951,1140,,,,0,0.00390625,-0.95703125,0.042112168011135896,0.3770973519914261,22.999759978153538,0.41666043910099076,1159,0,9.583090091714848,5.111766293059526,53.34152391491084,0.0737704602230012,0.03935028768199197,0.107421875,,
0.41066500000003725,1140,,,,-0.125,0.02734375,-0.9453125,0.042112168011135896,0.3770973519914261,23.000055104966968,0.40981620941038893,1162,0,9.425795399347628,5.124012968303396,54.36159762875859,0.07359414473072386,0.040006952836842344,0.107421875,,
0.4179350000000559,1140,,,,0.03125,0.044921875,-0.9765625,0.042112168011135896,0.3770973519914261,23.00032231286122,0.4024309087402417,1163,0,9.256040609683197,5.129554479906045,55.41845262152121,0.07351464020289207,0.04074067605072152,0.107421875,,
0.42620000000018626,1140,,,,-0.03125,0.080078125,-1.025390625,0.042112168011135896,0.3770973519914261,23.000445411038488,0.3973817548770657,1177,0,9.139957360392627,5.190493761401121,56.789036936799796,0.07265153746945888,0.041258108448683946,0.107421875,,
0.4331349999997765,1140,,,,-0.0625,0.04296875,-0.921875,0.042112168011135896,0.3770973519914261,23.00059819354788,0.39756908987199285,1182,0,9.144326890320233,5.2108830940399535,56.98487331589115,0.07236726389481628,0.04123839365263769,0.107421875,,
0.44643500000005587,1140,,,,-0.03125,0.00390625,-0.9921875,0.042112168011135896,0.3770973519914261,23.000869911797327,0.39478363603935346,1184,0,9.080367055847512,5.222708986338981,57.516496351055515,0.07220340114254845,0.04152886658349185,0.107421875,,
0.4649049999997951,1140,,,,-0.0625,0.064453125,-1.01953125,0.06456187740233206,0.3770973519914261,23.001092728740982,0.3759695190723238,1196,0,8.64770977136267,8.087215704713346,93.5185837468155,0.046628823288545194,0.04360661515725274,0.107421875,,
0.47302000000001865,1140,,,,-0.125,-0.01171875,-0.9453125,0.06456187740233206,0.3770973519914261,23.001318303390544,0.3678830717501533,1198,0,8.461795631754338,8.102640446054124,95.75556771481904,0.04654005746670733,0.044564696242048625,0.107421875,,
0.4816699999999255,1140,,,,-0.03125,0.05078125,-0.94921875,0.06456187740233206,0.3770973519914261,23.001545978589263,0.35872642740629535,1200,0,8.251262413720966,8.109778549688377,98.28530645447276,0.04649909361654718,0.045701776659575574,0.107421875,,
0.48920000000018626,1140,,,,-0.125,0.10546875,-1.0390625,0.06456187740233206,0.3770973519914261,23.00159726443618,0.3513709032072152,1200,0,8.082092006013552,8.113951033740276,100.39419283649605,0.04647518211822336,0.04665838395688189,0.107421875,,
0.496554999999702,1140,,,,-0.03125,0.0625,-0.947265625,0.06456187740233206,0.3770973519914261,23.001883549083253,0.34707718668125664,1201,0,7.983429030585694,8.119511219017248,101.70455812796986,0.04644335623407986,0.047235010237669864,0.107421875,,
0.5040449999999255,1140,,,,-0.03125,0,-1.02734375,0.06456187740233206,0.3770973519914261,23.001981345033226,0.34238678143457574,1201,0,7.875574359344079,8.121914762438287,103.12790397060925,0.04642961210765247,0.04788188578830621,0.107421875,,
0.5114399999999442,1140,,,,-0.0625,0.0546875,-0.95703125,0.06456187740233206,0.3770973519914261,23.00219212448493,0.33685790546067707,1201,0,7.748470260058076,8.122894152625792,104.83222984668086,0.04642401401593129,0.04866732907723642,0.10546875,,
0.5195949999997392,1140,,,,0,0.033203125,-0.916015625,0.06456187740233206,0.3770973519914261,23.002281569391233,0.32911878614697704,1202,0,7.570482988729024,8.123331501307534,107.302684827396,0.04642151461265964,0.04981153151692575,0.10546875,,
0.5276949999998324,1140,,,,-0.0625,0.1171875,-0.97265625,0.06456187740233206,0.3770973519914261,23.002368125499416,0.324042522087639,1200,0,7.453745381375148,8.115149872424821,108.87345163013403,0.04646831641061839,0.050591659990652245,0.10546875,,
0.5349950000001118,1140,,,,-0.0625,0.0546875,-0.990234375,0.06456187740233206,0.3770973519914261,23.002714429196345,0.31811655237703274,1199,0,7.317544209529366,8.10425501668441,110.75102226414349,0.046530785521320256,0.05153332063239825,0.10546875,,
0.5491149999997579,1140,,,,-0.0625,0.0078125,-1.0625,0.06456187740233206,0.3770973519914261,23.002815149270308,0.30886783767391796,1198,0,7.104829775567962,8.098415664847023,113.98465439236556,0.046564336482295056,0.05307619800944221,0.10546875,,
0.5611099999998697,1140,,,,-0.0625,0.0390625,-0.9765625,0.06456187740233206,0.6202135414839615,23.003344017293646,0.3041319131270977,1198,0,6.996051024300294,8.09690501632921,115.7353625381687,0.0765988411909443,0.08865194655237549,0.10546875,,
0.5689749999996274,1140,,,,-0.03125,0.095703125,-0.994140625,0.06456187740233206,0.6202135414839615,23.00359952554531,0.30295396703679967,1196,0,6.969031732389794,8.089153463018159,116.07284589367562,0.07667224318582187,0.08899565467630324,0.10546875,,
0.5863149999999441,1140,,,,-0.0625,0.05078125,-1.015625,0.06456187740233206,0.6202135414839615,23.00359040604731,0.2955263689310472,1195,0,6.798167545076235,8.080607842334723,118.8644997163586,0.07675332766857346,0.09123245894890727,0.10546875,,
0.5938250000001862,1140,,,,-0.03125,0.056640625,-0.974609375,0.06456187740233206,0.6202135414839615,23.00354550061887,0.291387388289175,1195,0,6.702943044816535,8.079767521996725,120.5405963913852,0.07676131024753668,0.09252854117022223,0.10546875,,
0.601005000000354,1140,,,,0,0.0078125,-0.890625,0.06456187740233206,0.6202135414839615,23.003479451010016,0.2880289081214207,1195,0,6.625667069267952,8.079458427481908,121.9418111869388,0.07676424689238248,0.09360771300458458,0.10546875,,
0.6120699999998324,1140,,,,-0.0625,0.064453125,-1.00390625,0.06456187740233206,0.6202135414839615,23.0035048412423,0.2843777316547178,1195,0,6.541684526860805,8.07931284431903,123.50508208007543,0.07676563012658491,0.0948094544971258,0.10546875,,
0.6199950000001118,1140,,,,-0.125,0.052734375,-0.9921875,0.06692396938123887,0.6202135414839615,23.003404039091734,0.2795838137405835,1195,0,6.431379430264809,8.374836806640166,130.21835980054027,0.07405679129081202,0.09643553893980478,0.10546875,,
0.6364449999998324,1140,,,,-0.0625,0.05859375,-1.01171875,0.06692396938123887,0.6202135414839615,23.00378185018928,0.27676700395282877,1194,0,6.366687782261347,8.369334271719717,131.45507613924585,0.07410548095559827,0.09741541641353606,0.10546875,,
0.6449899999997578,1140,,,,-0.03125,0.068359375,-0.94140625,0.06692396938123887,0.6202135414839615,23.0036491089729,0.2755411981551178,1194,0,6.338453037426301,8.366874445314961,132.0018369768074,0.07412726765981896,0.09784935501167588,0.10546875,,
0.6531750000002794,1140,,,,0,0.060546875,-0.95703125,0.06692396938123887,0.6202135414839615,23.003666681040958,0.2750169033941171,1194,0,6.326397177330311,8.36602089585147,132.239893597415,0.07413483054907405,0.09803582103671944,0.10546875,,
0.6611549999997951,1140,,,,-0.1875,0.11328125,-1.0859375,0.06692396938123887,0.6202135414839615,23.003877840718776,0.27421292853139173,1194,0,6.3079607102818835,8.365692659743003,132.62119160170172,0.07413773930143576,0.09832235328812725,0.10546875,,
0.6687850000001491,1140,,,,-0.03125,0.029296875,-0.962890625,0.06692396938123887,0.6202135414839615,23.00395060124237,0.27505399282040127,1194,0,6.327328463514984,8.367841298937229,132.24920038825817,0.07411870270086654,0.09802139166004632,0.10546875,,
0.6758449999997392,1140,,,,-0.0625,0.0546875,-1.0390625,0.06692396938123887,0.6202135414839615,23.00403645123429,0.27326936300883553,1194,0,6.286298387660827,8.370664936528511,133.15729576182733,0.07409370058254618,0.09866116802558379,0.10546875,,
0.6841350000002422,1140,,,,-0.0625,0.1015625,-0.9921875,0.06692396938123887,0.6202135414839615,23.004034737684936,0.2717437407895662,1195,0,6.251202452871632,8.372044110291156,133.92693923143167,0.07408149471185624,0.09921507840448396,0.10546875,,
0.6912349999998696,1140,,,,0,0.0234375,-0.96875,0.06692396938123887,0.6202135414839615,23.004162154584332,0.26984234167273297,1195,0,6.207496984012298,8.372582432226633,134.87855819810488,0.07407673158244675,0.09991362751868438,0.103515625,,
0.698339999999851,1140,,,,-0.09375,0.025390625,-0.982421875,0.06692396938123887,0.7196840441989097,23.00432813217774,0.2676637709996374,1195,0,6.157425217171739,8.372783639791539,135.97864926465758,0.08595517036635478,0.11688067963730445,0.103515625,,
0.7070799999996088,1140,,,,0.0625,-0.046875,-0.94140625,0.06692396938123887,0.7196840441989097,23.004512660126338,0.2658968824378703,1195,0,6.116828198330111,8.377465683481976,136.95767498863245,0.08590713127216096,0.11765640963978405,0.103515625,,
0.7148049999997019,1140,,,,-0.03125,0.033203125,-0.986328125,0.06692396938123887,0.7196840441989097,23.00468271263931,0.2629981985512936,1196,0,6.050190111668224,8.383765948949135,138.57028943240053,0.08584257344268047,0.11895230247574333,0.103515625,,
0.7243249999997206,1140,,,,-0.03125,0.078125,-0.955078125,0.06692396938123887,0.7196840441989097,23.004583236636403,0.2608455969865499,1197,0,6.000644247787201,8.38628231409257,139.75636561332723,0.0858168157527359,0.11993446278110899,0.103515625,,
0.7326000000000932,1140,,,,-0.03125,0.0625,-0.970703125,0.06692396938123887,0.7196840441989097,23.00455140701148,0.26071745750650344,1197,0,5.997688153913689,8.387322761295868,139.84259511430025,0.0858061701786371,0.11999357514599893,0.103515625,,
0.741,1140,,,,-0.0625,0.001953125,-1.01953125,0.06692396938123887,0.7196840441989097,23.004593981164017,0.25871078682303483,1197,0,5.951536609411394,8.388491002320507,140.94664206644487,0.08579422020001258,0.12092407245900927,0.103515625,,
0.7492650000001304,1140,,,,-0.0625,0.0078125,-0.9453125,0.06692396938123887,0.7196840441989097,23.004564912259806,0.25886073339526555,1197,0,5.954978544626566,8.389270835145066,140.87827138714155,0.0857862451148849,0.12085417920578602,0.103515625,,
0.7582349999998697,1140,,,,-0.0625,0.04296875,-0.9375,0.06692396938123887,0.7196840441989097,23.004607871574464,0.2616262662991165,1197,0,6.018609665115292,8.38959915575727,139.39430570459763,0.08578288793512077,0.11957646105051466,0.103515625,,
0.7703849999997765,1140,,,,-0.0625,0.083984375,-1.033203125,0.05714740010985891,0.7196840441989097,23.004643372934414,0.2622160693857131,1197,0,6.032187162870956,7.164099644447799,118.76454511464662,0.1004570120345363,0.11930731337858286,0.103515625,,
0.7884500000001863,1140,,,,-0.03125,0.068359375,-0.953125,0.05714740010985891,0.7196840441989097,23.004559440405334,0.25888508785655123,1200,0,5.95553739183059,7.183782210277157,120.62357664199024,0.10018177376943943,0.12084283866408504,0.1015625,,
0.796160000000149,1140,,,,0,0.052734375,-0.9375,0.05714740010985891,0.7196840441989097,23.004721450931434,0.25764257759699855,1201,0,5.926995731518939,7.186431397149559,121.24914075664195,0.10014484302798281,0.12142476168351701,0.1015625,,
0.8046000000000931,1140,,,,-0.0625,0.033203125,-1.001953125,0.05714740010985891,0.7196840441989097,23.004488441244074,0.2570426991673802,1201,0,5.913135801902176,7.187539640833443,121.55208135962832,0.10012940173717882,0.12170937186448468,0.1015625,,
0.8126499999999068,1140,,,,-0.0625,0.0390625,-0.96875,0.05714740010985891,0.7196840441989097,23.00452962317395,0.2539447170598292,1201,0,5.841878766251368,7.186999203421822,123.02547675143889,0.10013693112088548,0.12319393691572936,0.1015625,,
0.8203999999999069,1140,,,,0,0.0625,-1,0.05714740010985891,0.7196840441989097,23.00450366520276,0.25400927314722094,1201,0,5.843357255110733,7.185806996555618,122.9739460182885,0.10015354497328928,0.12316276633085507,0.1015625,,
0.8282050000000745,1140,,,,-0.0625,0.0859375,-1,0.05714740010985891,0.7196840441989097,23.00434666405886,0.251438179545558,1201,0,5.7841710468458905,7.185335810769605,124.2241239509639,0.10016011264501028,0.1244230224815626,0.099609375,,
0.8364699999997393,1140,,,,-0.0625,0.0625,-0.95703125,0.05714740010985891,0.7196840441989097,23.00432978319123,0.24923486669338948,1201,0,5.733481066884436,7.185152578327025,125.31919953180251,0.10016266688194386,0.12552305236615788,0.099609375,,
0.8523349999999628,1140,,,,-0.0625,0.033203125,-1.013671875,0.05714740010985891,0.7712229339736452,23.00434063091981,0.2460576493575455,1199,0,5.660393980664404,7.177168575765714,126.79627249061689,0.10745503966254064,0.1362489848954155,0.1015625,,
0.8603449999997392,1140,,,,0,0.02734375,-0.927734375,0.05714740010985891,0.7712229339736452,23.004324186967974,0.24571443205633328,1199,0,5.652494452440607,7.173678926944981,126.91173759308272,0.10750731135691934,0.1364393968826719,0.1015625,,
0.8684850000003352,1140,,,,-0.0625,0.0625,-0.9765625,0.05714740010985891,0.7712229339736452,23.004439138744544,0.24336207672075286,1198,0,5.59840808260104,7.172281738209504,128.1128783823354,0.10752825420466179,0.1377575415358668,0.099609375,,
0.8773349999999628,1140,,,,-0.03125,0.0546875,-0.970703125,0.05714740010985891,0.7712229339736452,23.00463461838833,0.24085765589555966,1198,0,5.540842368918856,7.171698032988518,129.4333524667275,0.10753700594003801,0.1391887519305351,0.099609375,,
0.8864999999995343,1140,,,,-0.03125,0.021484375,-0.982421875,0.05714740010985891,0.7712229339736452,23.00460397121818,0.24076683397677193,1198,0,5.538745665039676,7.167006990376669,129.39765470031435,0.10760739245952831,0.13924144212679254,0.1015625,,
0.8953100000000559,1140,,,,-0.0625,0.052734375,-0.958984375,0.05714740010985891,0.7712229339736452,23.004567371403827,0.24026303518235123,1197,0,5.527147179710367,7.162406459570047,129.58595504499252,0.10767651044757114,0.1395336344226062,0.1015625,,
0.9032299999999813,1140,,,,-0.0625,0.060546875,-0.9453125,0.05714740010985891,0.7712229339736452,23.004639410239303,0.23987114571268145,1197,0,5.518149212041206,7.161028043345702,129.77227994704376,0.1076972369477445,0.139761159827058,0.1015625,,
0.9112550000003539,1140,,,,0,0.1015625,-1.0625,0.05714740010985891,0.7712229339736452,23.00460847144933,0.2384552389263814,1197,0,5.485569409467308,7.160504650466551,130.53348004508968,0.10770510901398482,0.14059122698231194,0.1015625,,
0.9235999999996275,1140,,,,-0.125,0.06640625,-0.98828125,0.05214563323854039,0.7712229339736452,23.00468552244399,0.23884453276725467,1196,0,5.494543365065763,6.530151579757645,118.84793959906233,0.11810184259187866,0.14036160654897564,0.1015625,,
0.9403199999998324,1140,,,,0,0.013671875,-0.953125,0.05214563323854039,0.7712229339736452,23.004551909575184,0.23745660509357788,1194,0,5.462582798146707,6.5188696360425284,119.33676571921596,0.11830623666863795,0.14118283648447366,0.1015625,,
0.9483050000001676,1140,,,,-0.03125,0.07421875,-0.955078125,0.05214563323854039,0.7712229339736452,23.004623083276027,0.2376913346265531,1194,0,5.46799956324469,6.518017217687109,119.20295790622453,0.11832170861422033,0.1410429765133347,0.099609375,,
0.9554599999999628,1140,,,,0,-0.03125,-0.88671875,0.05214563323854039,0.7712229339736452,23.004654068814617,0.23935469536324314,1194,0,5.5062719665779145,6.517977402477688,118.37369171084617,0.11832243138499975,0.14006263015245712,0.099609375,,
0.9644799999999814,1140,,,,-0.0625,0.0546875,-1.044921875,0.05214563323854039,0.7712229339736452,23.004814528130378,0.2396489128557919,1194,0,5.513078792115572,6.518103999912981,118.22983573597254,0.11832013327555702,0.13988969921427485,0.1015625,,
0.9716049999999814,1140,,,,-0.0625,0.021484375,-0.984375,0.05214563323854039,0.7712229339736452,23.004770263938752,0.23973094646725537,1194,0,5.51495534863581,6.518158436796081,118.19059311891664,0.1183191451161979,0.139842099386066,0.1015625,,
0.9785299999997951,1140,,,,0,0.0859375,-0.9921875,0.05214563323854039,0.7712229339736452,23.004822933543245,0.23942014990929514,1194,0,5.507818155385714,6.518175658770754,118.34406065852194,0.11831883249968875,0.14002331090388662,0.1015625,,
0.9864749999996275,1140,,,,-0.0625,0.0625,-0.99609375,0.05214563323854039,0.7712229339736452,23.00469795964267,0.2406981071362114,1194,0,5.5371872541262555,6.518183361857962,117.71650592095612,0.118318692672342,0.13928063086523534,0.1015625,,
0.9961949999998324,1140,,,,-0.03125,0.01953125,-0.966796875,0.05214563323854039,0.7712229339736452,23.004659995880694,0.24048564072583736,1195,0,5.532290398789407,6.524702701338465,117.93854318938537,0.11820047123609755,0.13940391381884193,0.099609375,,
1.0048799999998883,1140,,,,-0.03125,0.056640625,-1.060546875,0.05214563323854039,0.7926965289054838,23.004701120511573,0.24211317383409733,1195,0,5.569741201391873,6.527171451302992,117.18985165184802,0.12144564223868227,0.14232196797714583,0.1015625,,
1.0124349999995903,1140,,,,-0.03125,0.025390625,-0.986328125,0.05214563323854039,0.7926965289054838,23.004671089330344,0.2419786421105283,1195,0,5.566639072395485,6.527846185067751,117.2672792356669,0.12143308932718927,0.14240127994581186,0.1015625,,
1.0204449999998324,1140,,,,0,0.0859375,-0.984375,0.05214563323854039,0.7926965289054838,23.004769922149475,0.2427964454856418,1195,0,5.585476366312897,6.528165779995163,116.87751145753316,0.12142714441085642,0.14192102462135403,0.099609375,,
1.0285150000001304,1140,,,,-0.03125,0.08984375,-1.013671875,0.05214563323854039,0.7926965289054838,23.005026837374054,0.24292889516761337,1196,0,5.5885857529045735,6.531827456904428,116.87800358989966,0.121359073572522,0.14184206236676122,0.099609375,,
1.0362350000003353,1140,,,,-0.125,0.083984375,-1.021484375,0.05214563323854039,0.7926965289054838,23.00504187901922,0.2419943091270386,1197,0,5.567089215951846,6.535027716377842,117.38679699352545,0.12129964298680132,0.14238976566678763,0.099609375,,
1.044375,1140,,,,0,0.00390625,-1.0546875,0.05214563323854039,0.7926965289054838,23.005253848072513,0.24023844047400858,1197,0,5.526746307169625,6.536301954288435,118.26672676849948,0.12127599588409461,0.14342915068801884,0.1015625,,
1.0526499999999068,1140,,,,-0.0625,0.029296875,-0.962890625,0.05214563323854039,0.7926965289054838,23.005290578404573,0.23889476278868169,1197,0,5.495843435612654,6.536800938515394,118.94081436449613,0.121266738326824,0.14423564611918702,0.1015625,,
1.0605149999996648,1140,,,,0,0.0390625,-0.83203125,0.05214563323854039,0.7926965289054838,23.0054231975734,0.23709411899651125,1197,0,5.454450545170568,6.536996789452322,119.84702648445962,0.12126310512872332,0.14533022571949913,0.1015625,,
1.068625,1140,,,,-0.03125,0.0390625,-1.015625,0.04843899339685863,0.7926965289054838,23.005647488446513,0.23623040772562617,1197,0,5.434633486187748,6.07117199398094,111.71262992087637,0.13056729898137892,0.145860163508752,0.1015625,,
1.0798950000000187,1140,,,,-0.09375,0.0703125,-1.001953125,0.04843899339685863,0.7926965289054838,23.00555702269574,0.23566594494780954,1197,0,5.421626334804308,6.070686355829827,111.97168489570845,0.1305777440048831,0.14621010006107255,0.1015625,,
1.0876350000002422,1140,,,,-0.03125,0.02734375,-0.97265625,0.04843899339685863,0.7926965289054838,23.005462330821047,0.23765138147502582,1197,0,5.467279904391289,6.0705038709635915,111.03334705961909,0.13058166929060147,0.14498919805967758,0.099609375,,
1.1036999999997206,1140,,,,-0.0625,0.00390625,-0.95703125,0.04843899339685863,0.7926965289054838,23.005542698577877,0.24043667797327303,1195,0,5.531376261418352,6.0615669319074374,109.58514925457511,0.13077419383638483,0.1433090955020697,0.099609375,,
1.1132949999999255,1140,,,,-0.0625,0.08984375,-0.9921875,0.04843899339685863,0.7926965289054838,23.00553116339865,0.24348739302346709,1194,0,5.601556808096067,6.057243939445165,108.13500865849441,0.13086752602836293,0.1415136106019277,0.099609375,,
1.1215449999999254,1140,,,,-0.09375,0.046875,-1.017578125,0.04843899339685863,0.7926965289054838,23.00552025677139,0.24480376779969773,1194,0,5.631838039049906,6.055707048572108,107.526299701504,0.13090073917832531,0.14075272112037016,0.099609375,,
1.1293899999996648,1140,,,,-0.0625,-0.03515625,-0.94921875,0.04843899339685863,0.7926965289054838,23.00551103682519,0.2446220551233815,1194,0,5.627655388991814,6.055190499930421,107.59703786722447,0.13091190589537893,0.14085733295895614,0.099609375,,
1.1377900000000372,1140,,,,0,0.05859375,-0.94921875,0.04843899339685863,0.7926965289054838,23.005630415210874,0.24310330143589412,1194,0,5.592744705551783,6.057620055582687,108.312114614662,0.13085940049589884,0.1417365838491775,0.099609375,,
1.1464250000002794,1140,,,,-0.0625,0.07421875,-0.97265625,0.04843899339685863,0.7926965289054838,23.005430587293343,0.2426969631484492,1195,0,5.583348139458539,6.061487686819375,108.56367067605434,0.13077590351774399,0.14197512121863815,0.099609375,,
1.1548199999998323,1140,,,,0,0.046875,-0.94140625,0.04843899339685863,0.8013578870442516,23.005425875116092,0.24326148248502624,1195,0,5.596334003580123,6.062794287985547,108.33510444707227,0.1321763281053883,0.14319336310727732,0.099609375,,
1.1726749999998138,1140,,,,-0.09375,0.078125,-1.015625,0.04843899339685863,0.8013578870442516,23.00549887564063,0.24049052256318168,1195,0,5.532604446429503,6.063011673167963,109.58693562632624,0.1321715890125504,0.14484279416747609,0.099609375,,
1.1804550000000744,1140,,,,-0.03125,0.064453125,-0.97265625,0.04843899339685863,0.8013578870442516,23.005523477661818,0.2400972403328466,1195,0,5.523562699399115,6.062574285215785,109.758404405825,0.13218112460880616,0.14507989329630094,0.099609375,,
1.1875499999998138,1140,,,,0,0,-1.02734375,0.04843899339685863,0.8013578870442516,23.00539892694502,0.23966961405723594,1195,0,5.513695082053663,6.062412508491676,109.95190010096884,0.13218465188929035,0.14533953639412595,0.09765625,,
1.195564999999944,1140,,,,-0.09375,0.05859375,-1,0.04843899339685863,0.8013578870442516,23.00552546812464,0.23931960099782887,1195,0,5.5056731757769795,6.062338259855579,110.11075424033032,0.13218627082404702,0.14555129980652387,0.099609375,,
1.203589999999851,1140,,,,0,0.0234375,-1.0234375,0.04843899339685863,0.8013578870442516,23.005646743534925,0.23919667933999353,1195,0,5.5028743071224895,6.062308639866977,110.16622044265847,0.1321869166763234,0.1456253300219917,0.09765625,,
1.2115550000001676,1140,,,,-0.0625,0.015625,-0.97265625,0.04843899339685863,0.8013578870442516,23.00556620918537,0.24109723744487196,1194,0,5.546578458889688,6.055765903938735,109.18020810168032,0.13232973330805933,0.14447787820613772,0.099609375,,
1.2203150000004097,1140,,,,-0.03125,0.078125,-0.91015625,0.04693141456998553,0.8013578870442516,23.00548141824907,0.2427476133314587,1193,0,5.584525707821183,5.864649942460945,105.01607923923504,0.13664206643303642,0.1434961407594457,0.09765625,,
1.2329900000002234,1140,,,,-0.0625,0.05859375,-0.94921875,0.04693141456998553,0.8013578870442516,23.005391271004825,0.24331186937643703,1193,0,5.597484755884551,5.8636385815316325,104.75488254554473,0.1366656344693963,0.14316392486853957,0.09765625,,
1.2430449999999256,1140,,,,-0.041015625,0.046875,-1.01171875,0.04693141456998553,0.8013578870442516,23.005225638432307,0.24301154497186997,1193,0,5.590535424821908,5.864403523778174,104.89878121047754,0.1366478080498752,0.14334188519515187,0.09765625,,
1.250779999999795,1140,,,,-0.0625,0.00390625,-0.994140625,0.04693141456998553,0.8013578870442516,23.00527073113852,0.24381849969011468,1194,0,5.609110594631102,5.868745855300531,104.62881336156833,0.13654670125483137,0.14286719320729582,0.099609375,,
1.2578099999995902,1140,,,,-0.03125,0.052734375,-0.95703125,0.04693141456998553,0.8013578870442516,23.005215520895526,0.24332486563946396,1194,0,5.597740975628814,5.8700184162132665,104.86405930124101,0.1365170993042992,0.14315737197079437,0.09765625,,
1.2654500000001863,1140,,,,0.0625,0.00390625,-0.95703125,0.04693141456998553,0.8013578870442516,23.005249835672693,0.2417109523257238,1195,0,5.5606208462716475,5.870571487074803,105.57402940016985,0.13650423792787394,0.14411302428245143,0.09765625,,
1.2731649999995716,1140,,,,-0.0625,0.0859375,-0.9375,0.04693141456998553,0.8013578870442516,23.00537036006019,0.2399765887456012,1195,0,5.520750301836408,5.870810508557387,106.34080854199357,0.13649868035702728,0.14515380034081418,0.09765625,,
1.2807549999998882,1140,,,,-0.0625,0.10546875,-1.05078125,0.04693141456998553,0.8013578870442516,23.00540092610051,0.23961232167648241,1195,0,5.512377527001242,5.872299855214997,106.52934829754948,0.13646406123702826,0.14537427509617504,0.09765625,,
1.2886150000002234,1140,,,,-0.0625,-0.005859375,-0.966796875,0.04693141456998553,0.8013578870442516,23.005626857401413,0.24213725088644547,1195,0,5.570519242170554,5.874285763441824,105.45310963063666,0.13641792710042167,0.14385694622104964,0.09765625,,
1.296439999999944,1140,,,,0.0625,0.015625,-0.98828125,0.04693141456998553,0.8019606161378237,23.005612623917607,0.24283011958915737,1195,0,5.586455664687741,5.875065621109009,105.16624446239832,0.1365024099911996,0.1435544581884102,0.09765625,,
1.3048300000000745,1140,,,,-0.0625,0.048828125,-0.966796875,0.04693141456998553,0.8019606161378237,23.00553342315027,0.2423208597847861,1195,0,5.574720638905406,5.87537594938847,105.39319061810598,0.13649520014481706,0.1438566464731923,0.09765625,,
1.3127549999998882,1140,,,,-0.0625,0.076171875,-0.947265625,0.04693141456998553,0.8019606161378237,23.00555631691639,0.24183810663456898,1195,0,5.563620181758008,5.8751010630895975,105.59852885631685,0.1365015865303411,0.14414366724157257,0.09765625,,
1.320510000000242,1140,,,,-0.0625,0.046875,-1.015625,0.04693141456998553,0.8019606161378237,23.005675935243335,0.24074349851220286,1195,0,5.538466910288475,5.874200390180428,106.06184861858216,0.13652251589482994,0.14479830413865433,0.09765625,,
1.3288149999999441,1140,,,,-0.09375,0.013671875,-0.986328125,0.04693141456998553,0.8019606161378237,23.005790048585332,0.2403373156802218,1195,0,5.529149825379758,5.873843393099043,106.23411516427139,0.13653081338191905,0.14504230152286438,0.09765625,,
1.3386349999997764,1140,,,,-0.0625,0.07421875,-0.955078125,0.04693141456998553,0.8019606161378237,23.006044002647894,0.23907744453105687,1195,0,5.500226208922105,5.873687845161078,106.78993230556897,0.1365344290126863,0.14580502431644285,0.09765625,,
1.3463199999998323,1140,,,,0.0625,0.00390625,-0.94921875,0.04693141456998553,0.8019606161378237,23.006075038124017,0.23896476871645386,1195,0,5.497641400558688,5.8736410876364085,106.83929088280495,0.13653551590441798,0.14587357699545953,0.09765625,,
1.3534750000000932,1140,,,,-0.03125,0.076171875,-0.9375,0.04693141456998553,0.8019606161378237,23.005815400664456,0.23840883226249873,1194,0,5.484789584919023,5.867391454066905,106.97568909844573,0.1366809462801319,0.1462153841494475,0.09765625,,
1.3616650000000372,1140,,,,-0.09375,0.068359375,-0.994140625,0.04693141456998553,0.8019606161378237,23.005922604795142,0.23747962858784336,1193,0,5.46343795550742,5.864426135462014,107.33948446418025,0.13675005833706239,0.14678680762346852,0.09765625,,
1.369704999999609,1140,,,,-0.0625,-0.0078125,-1.0078125,0.04617004036002481,0.8019606161378237,23.00592641428959,0.235961486432366,1193,0,5.428512593469404,5.768137867843078,106.25632286056128,0.13903284465662516,0.14773118830056625,0.09765625,,
1.3776299999998882,1140,,,,-0.03125,-0.01171875,-0.953125,0.04617004036002481,0.8019606161378237,23.00583149959253,0.23450434782382804,1193,0,5.3949675119568266,5.767681291564106,106.90854539496738,0.13904385065637778,0.14864975819788429,0.09765625,,
1.3887000000001863,1140,,,,-0.0625,0.10546875,-1.03515625,0.04617004036002481,0.8019606161378237,23.00580706853844,0.235151617137534,1193,0,5.409852735720925,5.765686407177445,106.57751123439965,0.13909195878906955,0.14824074800456713,0.09765625,,
1.406755000000354,1140,,,,-0.0625,0.05078125,-1.01953125,0.04617004036002481,0.8019606161378237,23.005857158915116,0.23530322700587122,1192,0,5.413352429528851,5.763173136238538,106.46218237706968,0.1391526156129401,0.148144911416311,0.09765625,,
1.41475,1140,,,,0.0625,-0.05078125,-0.89453125,0.04617004036002481,0.8019606161378237,23.005832402022882,0.2357861780747724,1192,0,5.424457295501736,5.763007873172506,106.2411879977655,0.1391566060270448,0.14784163142050255,0.09765625,,
1.4236049999999814,1140,,,,-0.0625,0.017578125,-0.953125,0.04617004036002481,0.8019606161378237,23.005729277133575,0.2364540928715508,1191,0,5.439798847073098,5.758780833605003,105.86385628401563,0.13925874925783477,0.14742468217723184,0.09765625,,
1.4322199999997391,1140,,,,-0.03125,0.0625,-0.966796875,0.04617004036002481,0.8019606161378237,23.00564640575189,0.23735606010011143,1191,0,5.460529590925558,5.7574108958428,105.43685919055557,0.13929188495420536,0.14686498860303615,0.095703125,,
1.4405200000000187,1140,,,,-0.03125,0.01953125,-0.958984375,0.04617004036002481,0.8019606161378237,23.00548130464697,0.23708510826021342,1191,0,5.454257025690543,5.756818500224177,105.54725369758913,0.13930621854876865,0.1470338879081868,0.095703125,,
1.4494900000002235,1140,,,,-0.125,0.03515625,-1.015625,0.04617004036002481,0.801630590842117,23.005402037890306,0.2371867127243262,1191,0,5.456575684268716,5.756611248661586,105.49860538465308,0.1392539041138997,0.1469109267838462,0.095703125,,
1.4581200000001118,1140,,,,-0.03125,0.01171875,-0.947265625,0.04617004036002481,0.801630590842117,23.005329531806865,0.23671722387356928,1191,0,5.44575774106596,5.758332616591364,105.73978664471807,0.13921227622947577,0.14720276386830322,0.095703125,,
1.4669850000003353,1140,,,,0,0.037109375,-1.005859375,0.04617004036002481,0.801630590842117,23.00525900994762,0.2359143345924357,1192,0,5.4272703714584285,5.76080746773271,106.1455773058281,0.1391524704361654,0.14770419307978955,0.095703125,,
1.4750849999999627,1140,,,,-0.125,0.09375,-0.90625,0.04617004036002481,0.801630590842117,23.005327904953734,0.235003254703113,1192,0,5.406326933176476,5.761681965806238,106.57294753021853,0.13913135011608438,0.14827638075729924,0.095703125,,
1.4838700000001117,1140,,,,0,0.060546875,-0.98046875,0.04617004036002481,0.801630590842117,23.00532828444261,0.23687863346290375,1192,0,5.449470726384253,5.762047843245559,105.73591698268837,0.13912251557956287,0.1471024675774343,0.095703125,,
1.491589999999851,1140,,,,-0.0625,0.0546875,-1.048828125,0.04617004036002481,0.801630590842117,23.005262864449364,0.23569818854356198,1192,0,5.4222987841191905,5.763341980672728,106.28964227409202,0.13909127612596509,0.14783961982875782,0.095703125,,
1.4982999999998137,1140,,,,-0.125,0.04296875,-0.96484375,0.04617004036002481,0.801630590842117,23.005381255445936,0.23743630905325744,1193,0,5.462312813656077,5.765988966338354,105.55947934587473,0.1390274236600189,0.14675662456349942,0.095703125,,
1.5060300000002607,1140,,,,-0.03125,0,-0.9921875,0.04617004036002481,0.801630590842117,23.00532169294769,0.23778410305934536,1193,0,5.470299784349267,5.767139592070603,105.42639013259576,0.1389996857270978,0.14654235095773216,0.095703125,,
1.5139249999998137,1140,,,,-0.03125,0.041015625,-0.95703125,0.04617004036002481,0.801630590842117,23.00546555924507,0.23854747786265637,1193,0,5.487895786214117,5.767703525721526,105.09863434743605,0.13898609511865206,0.14607248790253183,0.095703125,,
1.5221499999999069,1140,,,,-0.0625,0.109375,-0.8984375,0.04617004036002481,0.801630590842117,23.00548883158607,0.23828333152558637,1193,0,5.481824522164998,5.767887708048369,105.21839370681631,0.1389816569631793,0.14623426700377487,0.095703125,,
1.5288400000003166,1140,,,,-0.0625,0.0703125,-0.978515625,0.045868400058257965,0.801630590842117,23.005513742836005,0.23768305486052863,1194,0,5.4680207850331355,5.733374194919363,104.85282372394309,0.1398182926124869,0.1466034278867978,0.095703125,,
1.5396049999999815,1140,,,,-0.0625,0.03125,-0.88671875,0.045868400058257965,0.801630590842117,23.005504409766377,0.23820340155211886,1195,0,5.479989404828622,5.737872998967603,104.70591410107018,0.13970866747771374,0.14628323736096469,0.095703125,,
1.5474099999996833,1140,,,,-0.03125,-0.021484375,-0.974609375,0.045868400058257965,0.801630590842117,23.005415871175956,0.2386333753325305,1195,0,5.489860040267287,5.7396627687700885,104.55025677650318,0.139665102835631,0.1460202236418194,0.095703125,,
1.556339999999851,1140,,,,-0.09375,0.076171875,-0.966796875,0.045868400058257965,0.801630590842117,23.005476385997127,0.23875508822234467,1195,0,5.492674544135811,5.740208796224061,104.50662514407534,0.1396518174337898,0.14594540135241918,0.09765625,,
1.5647599999997766,1140,,,,-0.09375,0.103515625,-0.958984375,0.045868400058257965,0.801630590842117,23.005468547891937,0.23648294297793301,1195,0,5.44040090679176,5.742370143419408,105.55049603514829,0.13959925445780652,0.14734770554158363,0.09765625,,
1.572910000000149,1140,,,,-0.0625,0.05859375,-1.015625,0.045868400058257965,0.801630590842117,23.005396349074537,0.23371849064908662,1196,0,5.376786511489708,5.746728967351484,106.8803634860942,0.13949337012348562,0.14909102102698416,0.09765625,,
1.5807999999998137,1140,,,,-0.0625,0.01953125,-1.021484375,0.045868400058257965,0.801630590842117,23.00532811400603,0.23238342912555296,1197,0,5.346057035291211,5.748434513370825,107.52662149736484,0.13945198279245052,0.1499480057078086,0.09765625,,
1.5903049999997019,1140,,,,-0.0625,0.06640625,-0.9453125,0.045868400058257965,0.801630590842117,23.00532848467851,0.23322323972283893,1197,0,5.365377240084831,5.749150530730245,107.15277367224503,0.13943461500220894,0.14940805743408314,0.09765625,,
1.5985400000000372,1140,,,,0.03125,0.0546875,-0.9375,0.045868400058257965,0.8014974275607606,23.005255238201183,0.23497869372280786,1197,0,5.405744824632297,5.749407513176783,106.35736054314886,0.13940522144653136,0.14826771398986244,0.09765625,,
1.6069650000003166,1140,,,,-0.0625,0.0078125,-0.96484375,0.045868400058257965,0.8014974275607606,23.005389750326344,0.23464327670379156,1196,0,5.398060032864395,5.743673395465801,106.40254759112065,0.13954439474108724,0.1484787910251266,0.09765625,,
1.6146649999995717,1140,,,,-0.09375,0.076171875,-0.966796875,0.045868400058257965,0.8014974275607606,23.005419704166354,0.23485604924756873,1195,0,5.402961983002681,5.741407632031453,106.26407607703878,0.13959946391703437,0.14834408053993572,0.09765625,,
1.6218549999999814,1140,,,,0,-0.05859375,-0.95703125,0.045868400058257965,0.8014974275607606,23.00553100430806,0.23540815954876895,1195,0,5.415689713166302,5.740575612067809,105.99897549727902,0.1396196969996975,0.14799544841208456,0.09765625,,
1.630019999999553,1140,,,,-0.03125,0.02734375,-0.96484375,0.045868400058257965,0.8014974275607606,23.005357334930334,0.23590451680846594,1195,0,5.4270677061028385,5.74018483266881,105.76954524104913,0.13962920200744072,0.14768517198697592,0.09765625,,
1.6378849999997764,1140,,,,0,0.06640625,-1.05078125,0.045868400058257965,0.8014974275607606,23.005420952697833,0.2360539641260241,1195,0,5.430520812272218,5.739775280429026,105.69474786760667,0.13963916501986323,0.14759126339217563,0.09765625,,
1.6469300000001676,1140,,,,-0.0625,0.01953125,-0.970703125,0.045868400058257965,0.8014974275607606,23.005563625583363,0.23621576060265867,1195,0,5.434276709910032,5.739463975545772,105.6159684522357,0.13964673895954635,0.14748925576409044,0.09765625,,
1.6560600000000558,1140,,,,-0.03125,0.05078125,-1.015625,0.045868400058257965,0.8014974275607606,23.005478186477088,0.23423040664289244,1195,0,5.38858251063272,5.739353466894742,106.50952185607036,0.13964942779424389,0.14873993781838737,0.095703125,,
1.6641450000000186,1140,,,,0,-0.013671875,-0.966796875,0.045868400058257965,0.8014974275607606,23.00553604532518,0.2333006931244965,1195,0,5.367207505074952,5.7393160096481575,106.93300015364338,0.13965033920651732,0.14933229743826865,0.09765625,,
1.6720950000002048,1140,,,,-0.03125,0.0625,-0.97265625,0.045868400058257965,0.8014974275607606,23.005659156905374,0.23163269201898665,1195,0,5.328862762185242,5.738388531681042,107.68505003359972,0.13967291045835903,0.15040684351046887,0.09765625,,
1.692779999999795,1140,,,,-0.08203125,0.05859375,-0.98046875,0.046254662763632486,0.8014974275607606,23.00592263944539,0.23262815237385331,1194,0,5.351825277269984,5.783538887450707,108.06666114482991,0.13858252588218492,0.14976150865104698,0.095703125,,
1.700654999999795,1140,,,,-0.0625,0.03125,-1.05078125,0.046254662763632486,0.8014974275607606,23.005927468573045,0.23222442018473619,1194,0,5.342538167201471,5.783249859083533,108.24910703657014,0.13858945179445753,0.1500218440143781,0.095703125,,
1.7080800000000744,1140,,,,-0.03125,-0.0234375,-0.916015625,0.046254662763632486,0.8014974275607606,23.005841145046958,0.2319436697151873,1194,0,5.336059220066837,5.783044283160372,108.37668857595504,0.13859437837864017,0.15020399783919963,0.095703125,,
1.7159199999999255,1140,,,,-0.0625,0.12109375,-1.02734375,0.046254662763632486,0.8014974275607606,23.005817344098134,0.23319270778845663,1194,0,5.364788841356884,5.782700719112775,107.7899035752205,0.13860261260135426,0.14939962247573618,0.095703125,,
1.7239849999998695,1140,,,,-0.03125,0.08203125,-0.96484375,0.046254662763632486,0.8014974275607606,23.006130571130026,0.23381535685899626,1194,0,5.3791866294334305,5.7825548948041785,107.49868508305005,0.13860610787818603,0.1489997434138438,0.095703125,,
1.7319599999999626,1140,,,,-0.03125,0.09375,-0.947265625,0.046254662763632486,0.8014974275607606,23.006124402848165,0.23313404407547994,1194,0,5.363510820539579,5.782500694998164,107.81185847251508,0.13860740704347033,0.14943522151412914,0.095703125,,
1.7412150000003166,1140,,,,-0.0625,0.001953125,-0.984375,0.046254662763632486,0.8014974275607606,23.006304644969184,0.232608857849341,1194,0,5.35147024680027,5.782476768718661,108.05398333618872,0.13860798056234377,0.14977144421946262,0.095703125,,
1.7493000000002794,1140,,,,-0.0625,0.03125,-0.98828125,0.046254662763632486,0.7986645941343786,23.006386486829086,0.233387323167789,1193,0,5.369398957924634,5.779378183721823,107.63547706195504,0.13819213222347945,0.1487437607808298,0.095703125,,
1.7566499999999068,1140,,,,-0.0625,0.05078125,-0.93359375,0.046254662763632486,0.7986645941343786,23.006400238637347,0.23291868886339204,1193,0,5.35862057904984,5.7781306934696675,107.82869599053069,0.1382219677095594,0.14904294535367033,0.095703125,,
1.7640149999996648,1140,,,,-0.125,0.12109375,-1.03515625,0.046254662763632486,0.7986645941343786,23.00629704439269,0.23261935141620368,1193,0,5.351709896955151,5.777670896464658,107.95934397998398,0.13823296765190962,0.14923540504106508,0.095703125,,
1.7717700000000187,1140,,,,-0.03125,0.0625,-0.9453125,0.046254662763632486,0.7986645941343786,23.00631506428023,0.2307150918249413,1193,0,5.307904092608943,5.777455881110696,108.84627491961632,0.1382381121672604,0.1504670356132638,0.095703125,,
1.7807900000000372,1140,,,,-0.09375,0.111328125,-1.046875,0.046254662763632486,0.7986645941343786,23.006299253282517,0.23113062648532684,1192,0,5.317460359520095,5.775400019358147,108.61199950495507,0.13828732061110785,0.15019662397755207,0.095703125,,
1.7893299999996088,1140,,,,-0.0625,-0.00390625,-0.87890625,0.046254662763632486,0.7986645941343786,23.0064623833281,0.2312027296909933,1191,0,5.319156903558612,5.770501230808683,108.48526064249229,0.13840471775143406,0.15014871879414904,0.095703125,,
1.7963000000002793,1140,,,,0,0.017578125,-1.013671875,0.046254662763632486,0.7986645941343786,23.006205726899474,0.23061444464109876,1191,0,5.305563357007788,5.768775484045895,108.7306869387636,0.13844612194445122,0.15053341943028015,0.095703125,,
1.8040099999997765,1140,,,,-0.0625,0.0234375,-0.94140625,0.046254662763632486,0.7986645941343786,23.00611083476869,0.23069438971113454,1191,0,5.307380698653684,5.768159987380007,108.68185862082984,0.13846089496160893,0.1504818741073115,0.095703125,,
1.8122999999998137,1140,,,,-0.03125,0.017578125,-0.8984375,0.046254662763632486,0.7986645941343786,23.006072755281817,0.23237901103634023,1191,0,5.34612843470248,5.7678708323474694,107.88874421548498,0.13846783628636317,0.14939120971171085,0.095703125,,
1.8201200000001116,1140,,,,-0.0625,0.072265625,-1.0390625,0.046550925479676666,0.7986645941343786,23.005971057064265,0.23350242058466425,1191,0,5.371949929725233,5.8046995021529435,108.05572609739207,0.1375893091172345,0.148673126999013,0.095703125,,
1.8281800000001676,1140,,,,-0.0625,0.05078125,-0.97265625,0.046550925479676666,0.7986645941343786,23.005874705304464,0.2345661208468299,1191,0,5.396398786311474,5.804654332940684,107.5653331563411,0.13759037977542563,0.1479995503965115,0.095703125,,
1.836135000000242,1140,,,,-0.03125,0.009765625,-1.001953125,0.046550925479676666,0.7986645941343786,23.00568631498956,0.23604801248865712,1191,0,5.430446530590784,5.80463653105705,106.89059358854524,0.1375908017429195,0.14707162470624513,0.095703125,,
1.8473799999998883,1140,,,,-0.03125,0.025390625,-0.9453125,0.046550925479676666,0.7986645941343786,23.005592971546374,0.23645150036328785,1191,0,5.43970697486925,5.804628976910725,106.70848638956781,0.13759098080364043,0.14682125302412552,0.095703125,,
1.8547549999998882,1140,,,,0,0.01171875,-0.921875,0.046550925479676666,0.7986645941343786,23.005798125152058,0.2358199579634702,1192,0,5.425226346789439,5.80952924989356,107.08362893156604,0.13747492434933717,0.14721313786419535,0.095703125,,
1.863435000000056,1140,,,,-0.0625,0.0234375,-1.0078125,0.046550925479676666,0.7986645941343786,23.00570306100741,0.23495375267964883,1193,0,5.405276267217375,5.813360026813387,107.549729919838,0.13738433375029918,0.1477564799006156,0.095703125,,
1.8709599999999627,1140,,,,-0.09375,0.03515625,-0.94921875,0.046550925479676666,0.7986645941343786,23.005747358441283,0.23444100992426786,1193,0,5.393490644775532,5.814676339874622,107.80914852438053,0.1373532330006866,0.14807935096874866,0.095703125,,
1.8792199999997392,1140,,,,-0.0625,0.009765625,-0.962890625,0.046550925479676666,0.7986645941343786,23.00576005364791,0.2336897307707469,1193,0,5.3762098731133845,5.81524984833245,108.16634740051202,0.13733968702366234,0.14855532298479054,0.095703125,,
1.8876999999997206,1140,,,,0,0.0625,-1.02734375,0.046550925479676666,0.7986645941343786,23.005883046404715,0.2350519424219364,1193,0,5.407577497189323,5.8165905137728275,107.56370143185363,0.13730803161117475,0.14769360116419922,0.095703125,,
1.8959499999997207,1140,,,,-0.0625,0.068359375,-0.92578125,0.046550925479676666,0.7941679679572324,23.006171021849706,0.2360030392627329,1194,0,5.429526282954744,5.819081283100804,107.17475116326473,0.136476520832176,0.1462683715981658,0.095703125,,
1.9039249999998138,1140,,,,0,0.099609375,-0.98046875,0.046550925479676666,0.7941679679572324,23.006129290139178,0.23745226349736112,1194,0,5.462857474256485,5.8201304228714985,106.54003788857112,0.13645191950276106,0.1453759267379242,0.095703125,,
1.912535000000149,1140,,,,-0.1875,0.05859375,-1.04296875,0.046550925479676666,0.7941679679572324,23.006122978667516,0.2419945621951887,1194,0,5.567356658031316,5.820534211894942,104.54753610042926,0.1364424533978784,0.14264722322245826,0.095703125,,
1.9211899999999442,1140,,,,0.03125,0.00390625,-0.943359375,0.046550925479676666,0.7941679679572324,23.006079659186398,0.24612312567122827,1194,0,5.662328235160222,5.820703129896531,102.79699247657315,0.13643849380982767,0.14025466821683827,0.095703125,,
1.9291150000002235,1140,,,,0.03125,0.0390625,-0.94140625,0.046550925479676666,0.7941679679572324,23.005977529688817,0.24715899890525714,1197,0,5.686134375074729,5.83457968919874,102.61065434497509,0.1361139979675717,0.13966746396963142,0.095703125,,
1.9379249999998138,1140,,,,-0.125,0.0703125,-1.00390625,0.046550925479676666,0.7941679679572324,23.006011355553436,0.2460143516513648,1198,0,5.659808967720415,5.840032444935048,103.18426784795214,0.1359869102518428,0.14031709771241577,0.095703125,,
1.946160000000149,1140,,,,-0.0625,0.03125,-1.005859375,0.046550925479676666,0.7941679679572324,23.00589917435116,0.2480425692105859,1198,0,5.7064423382057585,5.842331313798596,102.38132565859877,0.13593340146279317,0.13917041843043274,0.095703125,,
1.9614400000004097,1140,,,,-0.125,0.0390625,-0.92578125,0.046550925479676666,0.7941679679572324,23.005589244633025,0.2536874802948582,1202,0,5.836229968169443,5.861579070129755,100.43434035496486,0.1354870348852348,0.1360755097534867,0.095703125,,
1.9694049999997951,1140,,,,-0.09375,0.119140625,-1.005859375,0.046689745724323724,0.7941679679572324,23.0057095556419,0.2513303351205348,1204,0,5.782032692305169,5.8865603999970935,101.80780208716274,0.13491205627612765,0.13735099924532168,0.095703125,,
1.9765200000000187,1140,,,,-0.03125,-0.01953125,-1.0234375,0.046689745724323724,0.7941679679572324,23.00563556303103,0.2499492142602073,1205,0,5.750240532536288,5.889260702318539,102.41764094902884,0.13485019735067544,0.13811039094167157,0.09765625,,
1.9833599999998697,1140,,,,-0.0625,0.0859375,-0.9296875,0.046689745724323724,0.7941679679572324,23.00584782556947,0.2473812365196029,1205,0,5.691215082271193,5.890417013568814,103.50016522689782,0.13482372574434617,0.13954277891045788,0.09765625,,
1.9907949999999255,1140,,,,0,0.06640625,-1.0625,0.046689745724323724,0.7941679679572324,23.005681937895456,0.24561448442586523,1205,0,5.650528708041633,5.890935955595151,104.25459740097205,0.13481184890542558,0.14054755032515817,0.09765625,,
2.0006599999996832,1140,,,,-0.09375,0.03125,-0.951171875,0.046689745724323724,0.7941679679572324,23.00538779417139,0.24324949229958207,1206,0,5.596048901087193,5.896970765574571,105.37739876484846,0.13467388588619747,0.1419158377624153,0.09765625,,
2.0110099999997764,1140,,,,0,-0.009765625,-0.939453125,0.046689745724323724,0.7941679679572324,23.005428895932496,0.2412217520524391,1207,0,5.549409864994646,5.899529683184689,106.30913604703407,0.13461547116558012,0.14310854438177248,0.09765625,,
2.0197050000000747,1140,,,,0,0.072265625,-1,0.046689745724323724,0.7941679679572324,23.005463105872757,0.23874992183492436,1207,0,5.492552518303357,5.9002624166300155,107.42295857832961,0.13459875372980923,0.14458996346612085,0.09765625,,
2.028274999999907,1140,,,,-0.0625,0.060546875,-0.970703125,0.046689745724323724,0.7941679679572324,23.005490824120844,0.23708293560331475,1207,0,5.45420929957769,5.900489263340673,108.18230359802176,0.1345935790259534,0.14560643428530023,0.09765625,,
2.047380000000354,1140,,,,-0.0625,0.00390625,-1.033203125,0.046689745724323724,0.7922386545637791,23.005405498772134,0.2374953879932766,1200,0,5.463677704873547,5.868620563100733,107.41154365430417,0.1349957193595071,0.1450009860312789,0.09765625,,
2.055404999999795,1140,,,,-0.09375,0.037109375,-0.990234375,0.046689745724323724,0.7922386545637791,23.00534316140169,0.23958499098297778,1200,0,5.511734933884734,5.8661393493887966,106.4299974464533,0.13505281879236705,0.14373671159207946,0.09765625,,
2.0739550000000744,1140,,,,-0.0625,0.05859375,-0.962890625,0.046689745724323724,0.7922386545637791,23.005379838868215,0.24025759921395748,1197,0,5.527217329091657,5.852118009085251,105.87819621789664,0.13537639762797854,0.1433340879132711,0.09765625,,
2.0823000000002794,1140,,,,-0.09375,0.083984375,-1.01953125,0.046689745724323724,0.7922386545637791,23.005409889507543,0.23988062369342614,1196,0,5.518552072617983,5.849209051212922,105.99173432168188,0.13544372369448762,0.14355915177365422,0.09765625,,
2.0906999999997207,1140,,,,0,0.015625,-0.94140625,0.046689745724323724,0.7922386545637791,23.005261827240844,0.23971485221819658,1196,0,5.514702939157958,5.847981029849319,106.04344593658656,0.13547216561066583,0.1436593526984694,0.09765625,,
2.0986599999996836,1140,,,,0,0.10546875,-0.9375,0.046689745724323724,0.7922386545637791,23.00520663389874,0.23939712962400042,1196,0,5.507380434562371,5.847581470258782,106.17718423011834,0.13548142229281654,0.14385035934542845,0.09765625,,
2.1055349999996835,1140,,,,-0.03125,0.0546875,-0.998046875,0.046689745724323724,0.7922386545637791,23.005147356558126,0.23777539185459798,1196,0,5.470057927378377,5.846210976513603,106.87658255413584,0.13551318242644603,0.1448318582877373,0.095703125,,
2.1130849999999626,1140,,,,-0.0625,0.015625,-0.84765625,0.046689745724323724,0.7922386545637791,23.00518416411835,0.23698426128515013,1196,0,5.4518665748624215,5.84570936026972,107.22399897354858,0.1355248107181342,0.1453151216533158,0.095703125,,
2.1222949999999257,1140,,,,-0.09375,0.078125,-1.046875,0.047236382437011185,0.7922386545637791,23.005229325830584,0.2356548238437293,1196,0,5.421293264263201,5.913897750731041,109.08647554108639,0.1339621833106342,0.14613462433146032,0.09765625,,
2.131439999999944,1140,,,,-0.0625,-0.017578125,-0.974609375,0.047236382437011185,0.7922386545637791,23.005308109137243,0.23405366004515296,1196,0,5.384476563410009,5.913808175149288,109.83069766402794,0.13396421241610187,0.14713382911672504,0.09765625,,
2.1408400000003165,1140,,,,-0.03125,0.03125,-0.923828125,0.047236382437011185,0.7922386545637791,23.005309611690805,0.23420852495044356,1195,0,5.388039630182365,5.908938380815819,109.66768595604823,0.1340746177242076,0.14703653071255618,0.09765625,,
2.149344999999739,1140,,,,0,0.09375,-0.955078125,0.047236382437011185,0.7922386545637791,23.00538222388297,0.23411561975402326,1194,0,5.385919317022552,5.904901244654367,109.63590237959077,0.13416628352268936,0.14709441562926068,0.095703125,,
2.160810000000056,1140,,,,-0.125,0.03125,-1.03125,0.047236382437011185,0.7922386545637791,23.005314155807902,0.2337130136128838,1193,0,5.376641300465001,5.903478704091052,109.79863402047087,0.13419861310158798,0.14734824405996028,0.09765625,,
2.1794499999997208,1140,,,,0,0.037109375,-0.986328125,0.047236382437011185,0.7922386545637791,23.005514585414605,0.23560021738814305,1192,0,5.4201042374497765,5.897212987232782,108.80257516979952,0.1343411974909067,0.1461666823840526,0.095703125,,
2.1879199999999255,1140,,,,-0.0625,0.09375,-1.03125,0.047236382437011185,0.7922386545637791,23.00550552957572,0.23566129266052774,1192,0,5.4215071714087335,5.89525599880241,108.73832335576488,0.1343857933777122,0.14612885854726676,0.095703125,,
2.1969099999996833,1140,,,,-0.0625,-0.009765625,-0.955078125,0.047236382437011185,0.7926399122967216,23.00565202173744,0.23432766163149177,1192,0,5.3908606425615355,5.894443122387907,109.34141157073367,0.13447239982453407,0.14703402014118636,0.095703125,,
2.2055499999998136,1140,,,,-0.03125,0.052734375,-1.015625,0.047236382437011185,0.7926399122967216,23.005900704720506,0.23434322332918833,1192,0,5.391276926735449,5.894190020719317,109.32827418843785,0.13447817418685615,0.14702266699861116,0.095703125,,
2.2143799999998883,1140,,,,-0.125,0.05859375,-1.02734375,0.047236382437011185,0.7926399122967216,23.005873004467325,0.2336146214372748,1192,0,5.374508312772654,5.894389093508488,109.6730854337005,0.13447363241928817,0.1474813817690063,0.095703125,,
2.2220800000000747,1140,,,,0,0.021484375,-0.94140625,0.047236382437011185,0.7926399122967216,23.005843217392126,0.23499350751395107,1192,0,5.4062237909710165,5.89457869410456,109.0331980697719,0.13446930704131194,0.1466161858894034,0.095703125,,
2.2290749999997206,1140,,,,0.03125,0.041015625,-0.94140625,0.047236382437011185,0.7926399122967216,23.00576398749271,0.2343252801984012,1192,0,5.390832092547517,5.8946376961868605,109.34559999254702,0.13446796107748346,0.1470347988379189,0.095703125,,
2.2369099999996833,1140,,,,-0.125,0.109375,-1.0390625,0.047236382437011185,0.7926399122967216,23.005678017313222,0.23550718489337344,1192,0,5.418002466420802,5.894665403509531,108.79776153744756,0.13446732902342587,0.1462974439766819,0.095703125,,
2.243894999999553,1140,,,,-0.0625,0.06640625,-1.0078125,0.047236382437011185,0.7926399122967216,23.00560735627335,0.2383978125456582,1192,0,5.48448647001987,5.894675489943753,107.47907798052051,0.13446709893512476,0.1445239981226264,0.095703125,,
2.25325,1140,,,,-0.125,0.0546875,-1.015625,0.047236382437011185,0.7926399122967216,23.005518001201906,0.23933552813057393,1191,0,5.506037800735084,5.889609552236526,106.96638427455463,0.13458276058312282,0.14395831285264699,0.095703125,,
2.2612599999997767,1140,,,,0,-0.02734375,-0.953125,0.047236382437011185,0.7926399122967216,23.0053763765512,0.2399654539508815,1190,0,5.520495585509995,5.887911789605886,106.65549312384695,0.13462156713964252,0.14358129628383642,0.095703125,,
2.270564999999944,1140,,,,-0.03125,0.078125,-1,0.047897099885068406,0.7926399122967216,23.004929873109404,0.2425619433590794,1190,0,5.580120496860757,5.969559239302465,106.97903822436805,0.1327803076445122,0.1420470960694562,0.095703125,,
2.2851650000000374,1140,,,,-0.0625,0.1171875,-0.93359375,0.047897099885068406,0.7926399122967216,23.00501967210326,0.24128644396438734,1191,0,5.550799390012571,5.975976675110822,107.65974871769393,0.13263771855033596,0.1427974344961738,0.095703125,,
2.292439999999944,1140,,,,-0.0625,0.021484375,-1.02734375,0.047897099885068406,0.7926399122967216,23.00497587303127,0.23950797566672624,1192,0,5.509875201611598,5.978874587837927,108.51197838544783,0.13257343010824968,0.14385805182391068,0.095703125,,
2.3003599999998694,1140,,,,-0.0625,0,-0.9609375,0.047897099885068406,0.7926399122967216,23.00492812822087,0.23788275934662298,1192,0,5.472475781711924,5.980239853578057,109.27850742735114,0.13254316410444217,0.14484119143031904,0.095703125,,
2.311174999999814,1140,,,,-0.03125,-0.009765625,-0.958984375,0.047897099885068406,0.7926399122967216,23.00488249585727,0.23954013859580078,1192,0,5.510592741437762,5.980777888894475,108.53238788490181,0.1325312404208407,0.14383931992221854,0.095703125,,
2.3201299999998883,1140,,,,-0.03125,0.0703125,-0.97265625,0.047897099885068406,0.7926399122967216,23.004965455085394,0.2396193135711194,1193,0,5.512434031074877,5.983211926844565,108.54029078834874,0.13247732522066039,0.14379127402313124,0.095703125,,
2.3295599999995904,1140,,,,-0.0625,0.048828125,-0.96484375,0.047897099885068406,0.7926399122967216,23.00498671124574,0.2390828522877351,1193,0,5.500097839766074,5.985776775569502,108.83036902165517,0.13242055993999338,0.14411378404323688,0.095703125,,
2.3374900000002237,1140,,,,-0.09375,0.0859375,-0.97265625,0.047897099885068406,0.7926399122967216,23.005004117617617,0.2396203095997391,1194,0,5.512466209006806,5.986600662550063,108.6011312462754,0.132402335979278,0.14379043466999017,0.095703125,,
2.345535000000149,1140,,,,0,-0.05078125,-1.0390625,0.047897099885068406,0.7928062199654612,23.00513450521473,0.23959253154723406,1194,0,5.511858414689023,5.986896878192166,108.61848087819477,0.13242356367508723,0.1438364631886487,0.095703125,,
2.354209999999963,1140,,,,-0.03125,0.07421875,-0.966796875,0.047897099885068406,0.7928062199654612,23.00499851509866,0.2396785214642029,1194,0,5.51380403038503,5.986399632353039,108.57113527001808,0.13243456311884036,0.1437857086680136,0.095703125,,
2.3613849999997765,1140,,,,-0.0625,0.0390625,-0.8984375,0.047897099885068406,0.7928062199654612,23.00495574608408,0.23881130639542278,1193,0,5.4938435352912265,5.985682313292422,108.95254433151823,0.13245043396387313,0.14430811778177713,0.095703125,,
2.3694050000002607,1140,,,,-0.0625,0.06640625,-1.02734375,0.047897099885068406,0.7928062199654612,23.005040235548535,0.23871264116158838,1193,0,5.4915939146564,5.985342455690722,108.99098783900547,0.1324579547176419,0.14436723331810047,0.095703125,,
2.3771699999999254,1140,,,,-0.0625,0.02734375,-0.98828125,0.047897099885068406,0.7928062199654612,23.005185544408636,0.2374479132877567,1193,0,5.462533302317496,5.985209432512431,109.56838340872335,0.13246089863770436,0.14513526528600035,0.095703125,,
2.3845349999996834,1140,,,,-0.125,0.02734375,-1.03515625,0.047897099885068406,0.7928062199654612,23.005249371541563,0.23779448120179505,1193,0,5.470521339223648,5.985160644279077,109.4075001840403,0.13246197839706542,0.14492333925855277,0.095703125,,
2.3926450000000186,1140,,,,0,0.037109375,-0.951171875,0.047897099885068406,0.7928062199654612,23.00538425320147,0.2378526387279021,952,0,5.471891349573297,4.775752854285341,87.27791816732177,0.16600654266563786,0.14488705446011552,0.095703125,,
2.4004849999998696,1140,,,,0,0.0546875,-0.95703125,0.047897099885068406,0.7928062199654612,23.005447446247214,0.2378013687002313,1098,0,5.470726890278828,5.506456781384961,100.65311048829038,0.14397756151389568,0.14491789406892766,0.09375,,
2.408470000000205,1140,,,,-0.03125,0.033203125,-0.927734375,0.047897099885068406,0.7928062199654612,23.005376797677428,0.23913072854035153,1155,0,5.501292513973903,5.79241800600466,105.29194714317165,0.1368696491074376,0.1441127185932477,0.09375,,
2.416475000000093,1140,,,,-0.0625,0.05859375,-0.966796875,0.047897099885068406,0.7928062199654612,23.005309272775694,0.2388037368792539,1177,0,5.493753822401787,5.905950101246804,107.5029987176384,0.13423855711176633,0.14431047433043848,0.09375,,
2.424644999999553,1140,,,,-0.125,0.03515625,-1.0234375,0.04773140965910841,0.7928062199654612,23.005245688309987,0.23897067837420263,1186,0,5.497579168300637,5.928877479560147,107.84524056963838,0.13371944734878854,0.14421005968169195,0.09375,,
2.4327549999998883,1140,,,,-0.03125,0.01171875,-1.01171875,0.04773140965910841,0.7928062199654612,23.005185325473697,0.23886569665210652,1189,0,5.495149619380093,5.94510258794105,108.18818412103066,0.13335450620710507,0.1442738187090341,0.09375,,
2.4413649999997578,1140,,,,0,0.029296875,-0.9296875,0.04773140965910841,0.7928062199654612,23.005267441753695,0.2410354275385427,1191,0,5.5450844734616185,5.951988012227106,107.33809449996477,0.13320023802749734,0.1429745973681331,0.09375,,
2.449470000000205,1140,,,,-0.125,0.09765625,-0.9765625,0.04773140965910841,0.7928062199654612,23.005270784067875,0.2414715863126005,1191,0,5.555119229779792,5.954306170718345,107.1859293100065,0.13314837988416955,0.1427163283400649,0.09375,,
2.4577849999996833,1140,,,,0,0.072265625,-0.97265625,0.04773140965910841,0.7928062199654612,23.005404616235296,0.24150907848903805,1191,0,5.556014069134449,5.9552077901143186,107.1848939907753,0.13312822119851545,0.14269334276343357,0.09375,,
2.4676150000002237,1140,,,,-0.03125,0.001953125,-0.994140625,0.04773140965910841,0.7928062199654612,23.005401153257715,0.24106017952021205,1193,0,5.5456861319387984,5.96447048500829,107.55153362642761,0.1329214759228303,0.1429590858738867,0.095703125,,
2.476475000000093,1140,,,,-0.09375,0.048828125,-0.98828125,0.04773140965910841,0.7928062199654612,23.00548569060066,0.24121103949797654,1194,0,5.54917711758561,5.968616939915931,107.55859496719064,0.13282913411036026,0.14286915035618886,0.095703125,,
2.4915800000000745,1140,,,,0,0.01953125,-1.02734375,0.04773140965910841,0.7928062199654612,23.005418942616735,0.24027729082878332,1194,0,5.527679737913123,5.970090663748348,108.00355568360496,0.13279634508392782,0.14342477450851218,0.095703125,,
2.5001699999999256,1140,,,,-0.09375,0.0625,-0.9765625,0.04773140965910841,0.791969039675327,23.005450753813864,0.24038454140836488,1193,0,5.530154729348268,5.964759023536756,107.858808938601,0.13277469157601196,0.1432092009057875,0.095703125,,
2.5077800000002606,1140,,,,-0.0625,0.1171875,-1.0625,0.04773140965910841,0.791969039675327,23.00532996226102,0.24051215617072183,1193,0,5.533061512642308,5.96306286839455,107.77149060732012,0.13281245848889578,0.14313396622571126,0.095703125,,
2.515435000000056,1140,,,,-0.03125,0,-0.9921875,0.04773140965910841,0.791969039675327,23.005362888318867,0.2394779765435938,1193,0,5.509277754145689,5.96227529597235,108.22244878624578,0.13283000203132514,0.14375188092112007,0.095703125,,
2.523635000000242,1140,,,,-0.0625,0.12109375,-0.953125,0.04773140965910841,0.791969039675327,23.00529609947599,0.23849397917780044,1193,0,5.486624608927561,5.961964814285332,108.66361814847549,0.1328369194292639,0.1443454028888134,0.095703125,,
2.5326650000000375,1140,,,,-0.03125,0.044921875,-0.931640625,0.04773140965910841,0.791969039675327,23.005298231935203,0.23768537976522944,1193,0,5.46802304686988,5.963683380779822,109.06470820735986,0.13279863955013782,0.14483644872870138,0.095703125,,
2.541285000000149,1140,,,,-0.0625,0.09375,-1.029296875,0.04773140965910841,0.791969039675327,23.005153993527106,0.237875509530779,1194,0,5.4723627280442955,5.967989964410005,109.05691491950564,0.13270281022559008,0.1447215908435148,0.095703125,,
2.5504150000000374,1140,,,,-0.0625,-0.001953125,-0.955078125,0.04773140965910841,0.791969039675327,23.00501111210959,0.23956167855893382,1194,0,5.511119077283898,5.969571684582669,108.31868447895549,0.13266764878972942,0.14370385189819584,0.095703125,,
2.558429999999702,1140,,,,-0.03125,0.009765625,-0.998046875,0.04773140965910841,0.791969039675327,23.005150609516566,0.23983834569555543,1194,0,5.517517264663551,5.970061561384434,108.20195524568928,0.13265676267024498,0.14353721097483868,0.095703125,,
2.5665249999999067,1140,,,,0,0.0625,-0.99609375,0.04773140965910841,0.791969039675327,23.00528879929314,0.2382198460485189,1194,0,5.480316356069328,5.970266887832241,108.94018702442796,0.13265220040487755,0.14451155521309256,0.095703125,,
2.5747999999998137,1140,,,,0,0.01171875,-1.00390625,0.047112567423766585,0.791969039675327,23.00529107582603,0.23847220588622345,1193,0,5.486122509906884,5.8873581808362,107.31364766653975,0.1345202746884412,0.1443586136192152,0.09375,,
2.582654999999795,1140,,,,-0.033203125,0.080078125,-1.005859375,0.047112567423766585,0.791969039675327,23.00542431800432,0.23689692289572897,1193,0,5.449914230845797,5.885208930041653,107.98718439883228,0.13456940086402705,0.1453177070554407,0.09375,,
2.590629999999888,1140,,,,0,0.03125,-0.921875,0.047112567423766585,0.791969039675327,23.00515693058492,0.23646492805457583,1193,0,5.43991277847499,5.884361663907421,108.17014727131391,0.13458877698374372,0.14558487827397582,0.09375,,
2.600445000000298,1140,,,,-0.03125,-0.01953125,-0.998046875,0.047112567423766585,0.791969039675327,23.005310741007623,0.23460607674885123,1193,0,5.397185697336006,5.884012612286743,109.0200141749992,0.13459676106430687,0.14673740799139717,0.09375,,
2.609,1140,,,,-0.09375,0.02734375,-0.951171875,0.047112567423766585,0.791969039675327,23.005312064961075,0.23448886953169348,1192,0,5.394489619336551,5.882310789550903,109.04295317328551,0.1346357015141309,0.1468107449565782,0.09375,,
2.6180200000000187,1140,,,,0.0625,0.00390625,-0.85546875,0.047112567423766585,0.791969039675327,23.005183530208896,0.23460188420083153,1192,0,5.397059402572944,5.881243023230471,108.97124868454667,0.13466014523581296,0.14674084174388946,0.095703125,,
2.6256949999998325,1140,,,,-0.09375,0.146484375,-1.0546875,0.047112567423766585,0.791969039675327,23.005117656207183,0.2343618000283108,1192,0,5.3915207837717904,5.880789022549357,109.07477237684475,0.13467054108531915,0.14689158614747705,0.095703125,,
2.642100000000093,1140,,,,-0.03125,0.04296875,-0.984375,0.047112567423766585,0.791969039675327,23.005579949270114,0.23715788226775728,1192,0,5.455954621110479,5.882116351051651,107.81094711257757,0.13464015201496865,0.1451568230811519,0.095703125,,
2.651469999999739,1140,,,,0,0.05078125,-0.95703125,0.047112567423766585,0.7858575941341971,23.00556658663761,0.2373757566519261,1193,0,5.460963775709371,5.886133695310466,107.78562058024028,0.1335099803730752,0.1439045608816761,0.095703125,,
2.6599699999997393,1140,,,,-0.03125,0.01953125,-0.92578125,0.047112567423766585,0.7858575941341971,23.005627653806872,0.23590073834004058,1193,0,5.427044549509096,5.887594087030278,108.48619415816,0.13347686381188453,0.14480396963118386,0.095703125,,
2.667369999999646,1140,,,,-0.03125,0.044921875,-0.9609375,0.047112567423766585,0.7858575941341971,23.00554819962593,0.23795876979288957,1193,0,5.474371947994012,5.888081795191536,107.55721114910945,0.1334658079607458,0.14355210088020434,0.095703125,,0.21142000000039116,3917,
2.6755200000000188,1140,,,,-0.125,0.015625,-1.0234375,0.047112567423766585,0.7858575941341971,23.005667922056634,0.2397043479540588,1194,0,5.514558628504192,5.889662367603379,106.8020627645577,0.13342999056395455,0.14250598226885816,0.095703125,,
2.6917399999997578,1350,,,,0,0.068359375,-0.96484375,0.047112567423766585,0.7858575941341971,23.005726568279442,0.24034937431712963,1194,0,5.52941198639693,5.892470851503828,106.56595793549242,0.13336639483479787,0.14212317621973342,0.095703125,,
2.710630000000354,1350,,,,-0.291015625,0.265625,-0.9375,0.047112567423766585,0.7858575941341971,22.982532929941765,0.836242285466748,1197,0,19.218965863149297,5.907893126723321,30.73991165180846,0.13301824817708832,0.04088969197042027,0.109375,,
2.7196150000002235,1350,,,,0.625,-0.1640625,-1.47265625,0.046860722759808314,0.7858575941341971,22.956413776737097,1.43339727932065,1209,0,32.90566105053404,5.932971122067849,18.030244440178357,0.13245599514401446,0.02388213970013658,0.12109375,,
2.727625,1350,,,,0.1875,0.25390625,-0.724609375,0.046860722759808314,0.7858575941341971,22.942808154890947,1.8514438214743452,1213,0,42.477320405644065,5.9529638424652065,14.014452384511102,0.13201114855230875,0.01850063955610953,0.123046875,,
2.7355749999997205,1350,,,,0.1875,-0.263671875,-0.95703125,0.046860722759808314,0.7858575941341971,22.932916446209653,2.1112949263821896,1308,0,48.41815014002911,6.41744854684847,13.25422084133471,0.12245639188180513,0.016230640614344722,0.1328125,,
2.743774999999907,1350,,,,-0.4375,-0.0390625,-1.23828125,0.046860722759808314,0.7858575941341971,22.92673801099044,2.372578081822611,1533,0,54.39547609256525,7.523807860235862,13.831679398177402,0.10444945016306695,0.014447113079714507,0.13671875,,
2.7527299999999815,1350,,,,0.21875,-0.09375,-0.919921875,0.046860722759808314,0.7858575941341971,22.920734388548457,2.571318687487004,1626,0,58.936512664200656,7.980275320712791,13.540460675339869,0.0984749977352918,0.01333396834338901,0.138671875,,
2.7616000000000933,1350,,,,-0.1875,0.40234375,-0.947265625,0.046860722759808314,0.7858575941341971,22.9166612303368,2.710074897709911,1833,0,62.10586833965768,8.995098391495114,14.48349186956186,0.08736509151219816,0.0126535159260045,0.14453125,,
2.772274999999907,1350,,,,0.25,0.0390625,-0.96875,0.046860722759808314,0.7858575941341971,22.91385515115871,2.7934280722726825,1984,0,64.00820622323675,9.734798750498394,15.20867295756898,0.08072663999283636,0.012277450666144569,0.1484375,,
2.7816100000003354,1350,,,,0.01953125,-0.099609375,-0.958984375,0.046860722759808314,0.7858575941341971,22.91145938537997,2.8720704656852525,2164,0,65.803325826497,10.621080606588427,16.140644068041375,0.07399036155009661,0.011942520902458034,0.15234375,,
2.7897299999999814,1350,,,,-0.03125,0.123046875,-1.00390625,0.046860722759808314,0.7858575941341971,22.91058018067423,2.899193934569945,2250,0,66.42221509728913,11.04291968603174,16.625340889124356,0.07116393277117042,0.011831246413314364,0.154296875,,
2.7984199999999255,1350,,,,0.0625,0.125,-1.01171875,0.046860722759808314,0.7833401846610363,22.910105792933823,2.908874070289658,2402,0,66.64261268865809,11.78492693765577,17.68377088202223,0.06646966831487684,0.011754343850842945,0.15234375,,
2.8070450000003913,1350,,,,-0.0625,-0.03125,-0.953125,0.046860722759808314,0.7833401846610363,22.910330038683664,2.9078833364920165,2452,0,66.62056695302073,12.034168508366141,18.063743763772464,0.06509300448273256,0.011758233537901735,0.15234375,,
2.815899999999907,1350,,,,-0.15625,0.16796875,-1.0234375,0.046860722759808314,0.7833401846610363,22.910934941505122,2.8947826108535835,2542,0,66.32217606706679,12.475207357583733,18.810009106107227,0.06279175665844466,0.011811135145338134,0.154296875,,
2.8238199999998326,1350,,,,-0.0625,0.12109375,-0.9453125,0.046860722759808314,0.7833401846610363,22.911701845957214,2.8695226524356743,2572,0,65.74564745282647,12.623805223354179,19.200974836261146,0.0620526196975733,0.011914707893371877,0.154296875,,
2.8320099999997765,1350,,,,-0.0625,-0.19140625,-0.853515625,0.046860722759808314,0.7833401846610363,22.912892086622897,2.8430376000460917,2627,0,65.14221372806745,12.893354584718601,19.792625774956303,0.06075534334481601,0.012025077746529254,0.154296875,,
2.84055999999959,1350,,,,-0.125,0.296875,-1.095703125,0.046860722759808314,0.7833401846610363,22.91424424570849,2.8071473973863914,2650,0,64.32366109741668,13.006560392433164,20.220491449849277,0.06022654422277243,0.012178103225105394,0.15625,,
2.848804999999702,1350,,,,0,-0.015625,-0.9765625,0.046860722759808314,0.7833401846610363,22.915648360794496,2.7716392427222782,2689,0,63.51391026920247,13.193472463222928,20.7725715631468,0.05937331410245581,0.012333364161344566,0.15625,,
2.856774999999907,1350,,,,-0.03125,-0.169921875,-0.875,0.046860722759808314,0.7833401846610363,22.916932130351725,2.733869997673608,2711,0,62.651913189890905,13.301321049618739,21.23051056606034,0.05889190868627965,0.012503052896195209,0.16015625,,
2.865004999999888,1350,,,,-0.0625,0.251953125,-1.072265625,0.046860722759808314,0.7833401846610363,22.918455879202437,2.69708311232933,2734,0,61.81298031246174,13.414608710834166,21.701928370099523,0.05839456085128893,0.0126727457679809,0.162109375,,
2.8739799999999813,1350,,,,0,-0.35546875,-0.7890625,0.06313486589859069,0.7833401846610363,22.92006069608541,2.653532889878609,2751,0,60.81913489507664,18.189192458857118,29.90702266685735,0.04306624312392678,0.012879831092836679,0.1640625,,
2.882464999999851,1350,,,,-0.03125,0.111328125,-1.04296875,0.06313486589859069,0.7833401846610363,22.921964951709263,2.607484999063847,2766,0,59.768679760649164,18.28429193509119,30.59176145150408,0.04284224882439395,0.013106198560818405,0.1640625,,
2.8972549999998884,1350,,,,-0.0625,-0.29296875,-0.79296875,0.06313486589859069,0.7833401846610363,22.92458968749353,2.5387727802488156,2787,0,58.20032429698127,18.424632493617395,31.657267749233213,0.04251591910625076,0.013459378347513203,0.169921875,,
2.904709999999963,1350,,,,-0.0625,0.365234375,-1.109375,0.06313486589859069,0.7833401846610363,22.92639284235386,2.4986760103746475,2794,0,57.285627799614616,18.474805432998373,32.250332487623815,0.042400456529944834,0.013674288207177615,0.171875,,
2.9127949999999254,1350,,,,-0.0625,-0.27734375,-0.87109375,0.06313486589859069,0.7833401846610363,22.927838736566944,2.4604962571758873,2801,0,56.41386139645529,18.516461853636923,32.82253934633233,0.042305068368511015,0.013885597710747323,0.173828125,,
2.9242299999999815,1350,,,,0,0.18359375,-0.94140625,0.06313486589859069,0.7833401846610363,22.92942470690018,2.4216619937169703,2810,0,55.52731635049504,18.577449629773103,33.456415419953,0.04216618536301227,0.0141072941417968,0.17578125,,
2.9320699999998325,1350,,,,-0.09375,0.287109375,-1.07421875,0.06313486589859069,0.7833401846610363,22.9314604546003,2.3710737297296616,2814,0,54.37218346823737,18.60497134485867,34.217811678883834,0.04210381032795871,0.014407002527655352,0.177734375,,
2.9399199999999257,1350,,,,0,-0.296875,-0.8046875,0.06313486589859069,0.7833401846610363,22.93276837731977,2.3378496625537766,2820,0,53.61336481234095,18.644969281119515,34.776719100510064,0.042013487544560954,0.014610912547699743,0.1796875,,
2.9487549999998883,1350,,,,0,0.353515625,-1.14453125,0.06313486589859069,2.083571236174528,22.93392234738184,2.302639156457787,2823,0,52.80854760824371,18.666740149514727,35.3479521686386,0.11161944825319134,0.03945518917943638,0.18359375,,
2.956629999999888,1350,,,,-0.1875,-0.30859375,-0.82421875,0.06313486589859069,2.083571236174528,22.93533254695098,2.2662684820375656,2827,0,51.977621276205376,18.688176693901692,35.95427461867494,0.11149141354460958,0.040085929002071474,0.185546875,,
2.96348499999987,1350,,,,0,-0.072265625,-0.96875,0.06313486589859069,2.083571236174528,22.93640717985742,2.2417836437239527,2830,0,51.418462461596995,18.710066877589092,36.38783810691172,0.11136097213368214,0.04052185025428734,0.1875,,
2.9719449999998324,1350,,,,-0.0625,0.609375,-1.1796875,0.06313486589859069,2.083571236174528,22.937562174782343,2.210243292335892,2833,0,50.69759293935015,18.728166882622862,36.94093900084662,0.11125334632231375,0.04109803080132655,0.19140625,,
2.980129999999888,1350,,,,-0.03125,-0.392578125,-0.802734375,0.06313486589859069,2.083571236174528,22.938665318402887,2.1824660385084167,2835,0,50.062858026125156,18.743357352580237,37.43964705890157,0.11116318154643201,0.041619102830430146,0.193359375,,
2.9869199999999254,1350,,,,-0.09375,0.3984375,-1.12890625,0.06313486589859069,2.083571236174528,22.93980659299403,2.1542205370694365,2836,0,49.4174024790286,18.753176792659065,37.94852795149928,0.11110497486431965,0.04216270244189259,0.197265625,,
2.9942849999996834,1350,,,,0,-0.05078125,-0.953125,0.06313486589859069,2.083571236174528,22.94068874856454,2.127720353577565,2838,0,48.811370375408615,18.764493821194662,38.44287443043864,0.1110379664929259,0.04268618602898804,0.197265625,,
3.003959999999963,1350,,,,-0.0625,-0.263671875,-0.841796875,0.06313486589859069,2.083571236174528,22.941868443963745,2.0995727780212676,2840,0,48.168122461891414,18.77430444266983,38.976616656634825,0.11097994296071138,0.04325622693354846,0.201171875,,
3.0117999999998135,1350,,,,0,0.453125,-1.1484375,0.06313486589859069,2.083571236174528,22.94250114005765,2.0851596904927514,2842,0,47.83877857633221,18.789726951194098,39.27718790146984,0.11088885121037462,0.04355402245168014,0.203125,,
3.0196299999998883,1350,,,,-0.1875,-0.5078125,-0.82421875,0.09952197393367829,2.083571236174528,22.942962812763017,2.071268935894892,2843,0,47.52104617146774,29.62842606900175,62.34800884242958,0.07032338576885898,0.043845230777464064,0.20703125,,
3.0279550000000746,1350,,,,0,0.076171875,-0.9609375,0.09952197393367829,2.083571236174528,22.944212396803987,2.0402769702040318,2849,0,46.812548152669024,29.694934574212702,63.43370687143345,0.0701658806813441,0.044508819075163575,0.208984375,,
3.036100000000093,1350,,,,-0.0625,0.0625,-1.0078125,0.09952197393367829,2.083571236174528,22.945107565481965,2.0177328911023538,2852,0,46.297098224754414,29.720419325539307,64.19499377964948,0.0701057146385575,0.0450043591514008,0.212890625,,
3.0437199999997393,1350,,,,0,-0.3984375,-0.72265625,0.09952197393367829,2.083571236174528,22.945972422900283,1.992759761112437,2853,0,45.72581052395134,29.735443627864026,65.02988856214697,0.07007029261948147,0.04556663320561909,0.21484375,,
3.051845000000205,1350,,,,-0.0625,0.376953125,-1.103515625,0.09952197393367829,2.083571236174528,22.946846890029214,1.9711792703967677,2854,0,45.23234891059412,29.74130031438622,65.75227913361879,0.07005649430757,0.046063741688341174,0.21484375,,
3.060279999999795,1350,,,,0.0625,-0.046875,-0.8828125,0.09952197393367829,2.083571236174528,22.947629387799765,1.9496908282462535,2853,0,44.74078254738739,29.734023921862335,66.45843507625156,0.07007363825528354,0.04656984338545498,0.216796875,,
3.068719999999739,1350,,,,-0.09375,-0.271484375,-0.83984375,0.09952197393367829,2.083571236174528,22.9483830846738,1.92554763247506,2853,0,44.18820471782435,29.731016207359087,67.28269771812292,0.07008072719891754,0.04715220383991004,0.21875,,
3.0807649999996647,1350,,,,-0.03125,0.439453125,-1.111328125,0.09952197393367829,2.083571236174528,22.949019942730015,1.9033888511835853,2852,0,43.68090870458207,29.72487128409392,68.05002955667865,0.07009521475335936,0.04769981435747842,0.22265625,,
3.090005000000354,1350,,,,-0.0625,-0.3671875,-0.791015625,0.09952197393367829,2.083571236174528,22.949869343116458,1.877688708446458,2851,0,43.0927105258913,29.717950689289946,68.96282532850788,0.07011153824026724,0.0483508976517655,0.2265625,,
3.098625,1350,,,,-0.03125,0.423828125,-1.140625,0.09952197393367829,3.137084800049267,22.95040369845066,1.8634361283852252,2851,0,42.76661141271885,29.715421839768116,69.48275970008395,0.10557093272863823,0.07335359750097697,0.228515625,,
3.1069849999998698,1350,,,,-0.0625,-0.388671875,-0.796875,0.09952197393367829,3.137084800049267,22.951045663181436,1.8477463644343888,2850,0,42.40771118411114,29.70401760144483,70.04390657276029,0.10561146448743945,0.07397439551570602,0.232421875,,
3.115004999999888,1350,,,,0.03125,0.5390625,-1.126953125,0.09952197393367829,3.137084800049267,22.951355400890687,1.8337190928693086,2849,0,42.08633860584238,29.696999475164,70.56208845651756,0.1056364230559001,0.07453926627900534,0.234375,,
3.122790000000037,1350,,,,-0.1875,-0.203125,-0.9296875,0.09952197393367829,3.137084800049267,22.95157977911297,1.8199957838752994,2849,0,41.77177843126318,29.69268389207918,71.08312120571897,0.10565177642584596,0.0751005802927793,0.23828125,,
3.129875,1350,,,,0,-0.16796875,-0.869140625,0.09952197393367829,3.137084800049267,22.951947897341487,1.811792748288882,2849,0,41.58417275950756,29.69105512406561,71.39989364650093,0.10565757218599325,0.07543939417027413,0.2421875,,
3.138035000000149,1350,,,,-0.0625,0.56640625,-1.28125,0.09952197393367829,3.137084800049267,22.952410471621103,1.7992988651709536,2849,0,41.29824611452576,29.69030268743643,71.8924058060507,0.1056602498490774,0.0759616955971858,0.244140625,,
3.145310000000056,1350,,,,0,-0.30859375,-0.8359375,0.09952197393367829,3.137084800049267,22.952774115515542,1.7906702820649183,2849,0,41.10085049960257,29.690011703893276,72.2369764688455,0.10566128539578509,0.07632651786803296,0.24609375,,
3.1532949999999254,1350,,,,-0.125,-0.01171875,-0.90625,0.09952197393367829,3.137084800049267,22.95312616841802,1.781048123424159,2849,0,40.88062228897887,29.689893665186915,72.62583591637524,0.10566170547547891,0.07673769684506498,0.248046875,,
3.1601750000002795,1350,,,,-0.0625,0.521484375,-1.19140625,0.09952197393367829,3.137084800049267,22.953509352135107,1.7729360175951985,2850,0,40.695103460608564,29.698759526772093,72.97870505605042,0.10563016267468432,0.07708752486858413,0.251953125,,
3.167875,1350,,,,-0.0625,-0.50390625,-0.66015625,0.09952197393367829,3.137084800049267,22.953793122535412,1.7619464296050347,2850,0,40.44335383814387,29.707147742799172,73.45371964374795,0.10560033656579088,0.07756737516389027,0.25390625,,
3.176125,1350,,,,-0.09375,0.1484375,-1.052734375,0.11549288142767675,3.137084800049267,22.954297692604,1.751349878079732,2851,0,40.201006465347895,34.47893072901532,85.76633711580122,0.09098555940452331,0.07803498160558103,0.2578125,,
3.1840100000002423,1350,,,,-0.09375,0.01171875,-0.958984375,0.11549288142767675,3.137084800049267,22.954380936300996,1.7410745905374236,2851,0,39.9652893897103,34.48068306575126,86.27657547909277,0.09098093544339468,0.07849523543940506,0.26171875,,
3.1919700000002047,1350,,,,0,-0.453125,-0.796875,0.11549288142767675,3.137084800049267,22.95452667014025,1.731425843496235,2850,0,39.74406070190441,34.4702402768571,86.73054455959351,0.09100849819591968,0.07893216608082897,0.265625,,
3.20914000000013,1350,,,,-0.03125,-0.396484375,-0.763671875,0.11549288142767675,3.137084800049267,22.955701110507484,1.7111250842241177,2850,0,39.28007599614079,34.46948776616354,87.75310864864446,0.09101048502173391,0.07986452980278046,0.26953125,,
3.2165049999998883,1350,,,,0,0.06640625,-0.98046875,0.11549288142767675,3.137084800049267,22.955714448194165,1.7038579895823787,2850,0,39.113277469127276,34.47130342033203,88.13197372053715,0.09100569136584888,0.08020511199874307,0.26953125,,
3.223850000000093,1350,,,,-0.0625,0.400390625,-1.158203125,0.11549288142767675,3.137084800049267,22.95589783462714,1.698282131103741,2848,0,38.98559109599034,34.44635559869565,88.35663287464801,0.09107160236620378,0.08046780135576592,0.275390625,,
3.233950000000186,1350,,,,-0.0625,-0.640625,-0.70703125,0.11549288142767675,3.137084800049267,22.95622943250774,1.6895181470465117,2847,0,38.78496621398507,34.43455915418344,88.78326453657458,0.09110280128758796,0.0808840410673891,0.27734375,,
3.2416200000001116,1350,,,,-0.09375,0.2578125,-1.0390625,0.11549288142767675,3.6676031471077604,22.95653704782232,1.6803108215377223,2849,0,38.57411762648748,34.45392858906221,89.31877307649397,0.10644949058935714,0.0950793789405917,0.27734375,,
3.2489199999999254,1350,,,,0.03125,-0.0234375,-0.91015625,0.11549288142767675,3.6676031471077604,22.956860618182464,1.6742783136411041,2849,0,38.43617388230441,34.461922229473664,89.66012677276277,0.10642479901980138,0.0954206097188119,0.28125,,
3.2566650000000372,1350,,,,-0.1875,-0.34375,-0.83984375,0.11549288142767675,3.6676031471077604,22.95701425606074,1.6692474554939185,2850,0,38.320937632667004,34.46841252482579,89.94668359952367,0.10640475955967449,0.09570755241597433,0.283203125,,
3.265209999999963,1350,,,,0.0625,0.55078125,-1.166015625,0.11549288142767675,3.6676031471077604,22.956568227172482,1.6707985817394368,2850,0,38.355801635564404,34.470993670422686,89.87165487491824,0.10639679210218682,0.0956205577960616,0.28515625,,
3.2731549999997953,1350,,,,-0.1875,-0.501953125,-0.853515625,0.11549288142767675,3.6676031471077604,22.956145133697422,1.6818577021601298,2850,0,38.60896950501479,34.47200341200386,89.28496112160259,0.10639367556544817,0.09499355186445439,0.291015625,,
3.2810400000000373,1350,,,,0.125,0.3359375,-1.00390625,0.11549288142767675,3.6676031471077604,22.956008557481724,1.690729099068328,2853,0,38.8123916665959,34.50565858027602,88.90371630968959,0.10628990426527375,0.09449567495383963,0.291015625,,
3.2889099999996834,1350,,,,-0.03125,0.322265625,-1.064453125,0.11549288142767675,3.6676031471077604,22.95659846248595,1.679203413492554,2857,0,38.54879850038432,34.55258419681677,89.63336223429191,0.10614555270935846,0.09514182775557051,0.294921875,,
3.296160000000149,1350,,,,-0.125,-0.74609375,-0.7109375,0.11549288142767675,3.6676031471077604,22.956975250560834,1.6726820341528625,2862,0,38.39972006010502,34.61148989239152,90.1347453528724,0.10596490236365098,0.09551119490889667,0.298828125,,
3.304339999999851,1350,,,,-0.03125,0.46484375,-1.083984375,0.11549288142767675,3.6676031471077604,22.957125267205853,1.6632570479152506,2864,0,38.183600400553416,34.63923678297328,90.71757618349481,0.10588002184016221,0.0960517894759501,0.30078125,,
3.312274999999907,1350,,,,-0.0625,-0.265625,-0.927734375,0.11549288142767675,3.6676031471077604,22.957362970218284,1.6553968215232442,2863,0,38.003545691454775,34.627648348720406,91.11688848681966,0.105915455481495,0.09650686746138094,0.302734375,,
3.3204150000000374,1350,,,,-0.1875,-0.0859375,-0.9140625,0.12079651075903962,3.6676031471077604,22.95750444562817,1.6481014584490286,2862,0,37.83629655918985,36.20048912955078,95.67661854251496,0.10131363512748404,0.09693346021247834,0.3046875,,
3.3280200000000186,1350,,,,0.0625,0.4140625,-1.15625,0.12079651075903962,3.6676031471077604,22.9577899781716,1.639957436432816,2858,0,37.64979839876529,36.15628599728902,96.03314635138855,0.10143749685415021,0.09741361980913124,0.3046875,,
3.3358950000000185,1350,,,,-0.09375,-0.41015625,-0.81640625,0.12079651075903962,3.6676031471077604,22.95799766961823,1.6357229848392707,2857,0,37.55292447408095,36.1360512002655,96.22699618296471,0.10149429794589215,0.09766491421032047,0.30859375,,
3.344435000000056,1350,,,,0.0625,0.3515625,-1.0859375,0.12079651075903962,3.6676031471077604,22.95822557427892,1.6308914870744184,2856,0,37.442374647425694,36.128150355656786,96.49000816816712,0.10151649367605954,0.09795327304006671,0.30859375,,
3.35405999999959,1350,,,,-0.09375,0.1796875,-1.072265625,0.12079651075903962,3.6676031471077604,22.958176359283083,1.6230577134917878,2856,0,37.26244522763922,36.124815590251565,96.9469807189577,0.10152586489873953,0.09842626066813606,0.310546875,,
3.3620800000000743,1350,,,,-0.03125,-0.181640625,-0.861328125,0.12079651075903962,3.6676031471077604,22.958351618171346,1.6185072003614467,2854,0,37.15825740244019,36.10502201565738,97.16554149626607,0.10158152363173355,0.09870223749693138,0.3125,,
3.370070000000298,1350,,,,-0.0625,0.7734375,-1.21484375,0.12079651075903962,3.6676031471077604,22.95856250649877,1.6149351767281772,2853,0,37.076590198857495,36.09455471247735,97.35133279216596,0.10161098194237937,0.0989196451841134,0.314453125,,
3.378875,1350,,,,-0.0625,-0.345703125,-0.8203125,0.12079651075903962,3.6676031471077604,22.958756034286655,1.6115094151467941,2852,0,36.99825150931122,36.08179428234668,97.52297152006251,0.10164691695784557,0.09912909387582135,0.314453125,,
3.3901149999997577,1350,,,,-0.03125,0.353515625,-1.08984375,0.12079651075903962,3.6676031471077604,22.958943772458074,1.60750331287661,2852,0,36.90657817437417,36.07383471965751,97.74364491126174,0.10166934498674725,0.09937532354745192,0.314453125,,
3.4002949999999257,1350,,,,-0.03125,-0.220703125,-0.896484375,0.12079651075903962,3.94469594856479,22.95920551605168,1.6013078637583364,2851,0,36.76475633849733,36.06774262581294,98.1041253034104,0.10936908332437896,0.10729558254774008,0.31640625,,
3.4079799999999816,1350,,,,-0.03125,0.076171875,-1.001953125,0.12079651075903962,3.94469594856479,22.959175014673026,1.5966435177905696,2851,0,36.657617960996895,36.05988306935044,98.36941153055162,0.10939292124099079,0.10760917288084246,0.31640625,,
3.4157000000001863,1350,,,,0,0.12890625,-0.927734375,0.12079651075903962,3.94469594856479,22.959477340088615,1.5934882491322249,2850,0,36.5856573476488,36.05444209983811,98.54802322461256,0.109409429707484,0.1078208301980475,0.318359375,,
3.423959999999963,1350,,,,-0.3125,-0.46484375,-0.84765625,0.12079651075903962,3.94469594856479,22.959502207808796,1.5903803831485843,2850,0,36.51434191815572,36.04948251788337,98.72691283519691,0.10942448193557042,0.10803141290089639,0.3203125,,
3.4337299999999815,1350,,,,0.0625,0.52734375,-1.15625,0.12079651075903962,3.94469594856479,22.959469837380155,1.5884629005499806,2849,0,36.47026605297467,36.03725535345597,98.8127021094671,0.10946160882328387,0.10816197345078166,0.322265625,,
3.440899999999907,1350,,,,-0.09375,-0.44921875,-0.82421875,0.12079651075903962,3.94469594856479,22.95965563370707,1.5870532142950036,2848,0,36.43819527258119,36.03161645194273,98.88419605417616,0.10947873942391786,0.10825717132958758,0.326171875,,
3.4497199999997394,1350,,,,0,0.30859375,-0.984375,0.12079651075903962,3.94469594856479,22.95973960978886,1.5856202252360747,2848,0,36.405427491435034,36.02289959167513,98.94925584969467,0.10950523120788443,0.10835461139668924,0.328125,,
3.456475000000093,1350,,,,-0.09375,0.28125,-1.1328125,0.12079651075903962,3.94469594856479,22.959751913109464,1.584748798026426,2848,0,36.38543924728516,36.02340545280641,99.00500364440215,0.10950369347319655,0.1084141357138932,0.328125,,
3.465084999999963,1350,,,,-0.0625,-0.294921875,-0.755859375,0.12079651075903962,3.94469594856479,22.959764240166503,1.5829090761484808,2848,0,36.34321920198889,36.03138825593147,99.14198314594995,0.10947943278081762,0.1085400807958398,0.330078125,,
3.4730099999997766,1350,,,,-0.0625,0.6953125,-1.25,0.1221128361851099,3.94469594856479,22.959775872352175,1.5859711481831258,2848,0,36.413542102301605,36.42423815737478,100.02937383856568,0.10829865353727684,0.10833046500893567,0.33203125,,
3.4816099999998698,1350,,,,0,-0.158203125,-0.91796875,0.1221128361851099,3.94469594856479,22.959984615293948,1.5835383343022464,2848,0,36.358015793307786,36.421377780048935,100.17427240007089,0.10830715884465066,0.10849590832981781,0.333984375,,
3.490564999999944,1350,,,,-0.0625,0.08984375,-1.0234375,0.1221128361851099,3.94469594856479,22.960059157433328,1.579034937183463,2848,0,36.254735569386334,36.4222678221231,100.46209757182241,0.1083045121690297,0.10880498468993688,0.3359375,,
3.4992949999999254,1350,,,,-0.0625,0.53515625,-1.16796875,0.1221128361851099,3.94469594856479,22.959982494955614,1.5795744481789107,2849,0,36.26700167966696,36.42673595530142,100.44043970616963,0.10829122744912567,0.10876818501311009,0.337890625,,
3.5079150000000374,1350,,,,-0.09375,-0.404296875,-0.8203125,0.1221128361851099,3.94469594856479,22.959767329549226,1.5921469918486082,2849,0,36.55532448728575,36.43242364340935,99.66379495846317,0.10827432144439253,0.10791029771700669,0.337890625,,
3.5166999999997204,1350,,,,0,0.560546875,-1.099609375,0.1221128361851099,3.94469594856479,22.959582069592244,1.5982849452233294,2849,0,36.695954370448774,36.43635555566274,99.29256829740586,0.10826263736883879,0.1074967531500271,0.341796875,,
3.5262199999997392,1350,,,,-0.0625,-0.40234375,-0.841796875,0.1221128361851099,3.94469594856479,22.959443518765873,1.6005101092219554,2855,0,36.74682145389528,36.510388282068774,99.35658878109186,0.10804311140405307,0.10734794990402197,0.34375,,
3.534310000000056,1350,,,,-0.09375,0.498046875,-1.099609375,0.1221128361851099,3.94469594856479,22.959601341579187,1.5918633677156722,2857,0,36.54854831301551,36.535755418459416,99.96499753028074,0.10796809600306669,0.10793030450295675,0.345703125,,
3.5448950000000186,1350,,,,0.0625,0.05859375,-1.0625,0.1221128361851099,4.087613669437312,22.959837827324023,1.587030847909977,2859,0,36.43797089497361,36.55452727834731,100.31987616354834,0.11182236439037654,0.1121800574795775,0.345703125,,
3.560870000000112,1350,,,,0.0625,0.26171875,-1.1796875,0.1221128361851099,4.087613669437312,22.960151537441668,1.5798702240925815,2858,0,36.2740597546576,36.548832685883845,100.75749153275011,0.11183978718466868,0.11268696410283828,0.349609375,,
3.5688950000000186,1350,,,,-0.15625,-0.33203125,-0.771484375,0.1221128361851099,4.087613669437312,22.96021552643804,1.5761248370685323,2856,0,36.188165955665546,36.5221101626828,100.92279947932805,0.11192161819866349,0.11295443030865629,0.3515625,,
3.5773249999997208,1350,,,,0,0.408203125,-1.201171875,0.1221128361851099,4.087613669437312,22.96040319592971,1.5737424372863078,2855,0,36.133760886638754,36.51283251381222,101.04907880572608,0.11195005667914242,0.11312450099676162,0.3515625,,
3.5851299999998885,1350,,,,-0.0625,-0.21875,-0.76953125,0.1221128361851099,4.087613669437312,22.960253798817213,1.571727713761345,2854,0,36.087267210595215,36.49164123946656,101.1205448905608,0.11201506785111277,0.11327024697057662,0.3515625,,
3.593375,1350,,,,-0.03125,-0.15625,-0.90234375,0.1221128361851099,4.087613669437312,22.960536790274066,1.5708593546257579,2853,0,36.06777400423089,36.483189271616105,101.1517629763802,0.11204101809754534,0.1133314650623523,0.353515625,,
3.6013650000002233,1350,,,,-0.0625,0.84375,-1.19921875,0.1221128361851099,4.087613669437312,22.960575708442605,1.5662279315483862,2852,0,35.96149499899418,36.47401744941102,101.42519784127767,0.11206919213401095,0.11366639984104218,0.357421875,,
3.6092349999998694,1350,,,,-0.09375,-0.40234375,-0.814453125,0.1221128361851099,4.087613669437312,22.96087663347513,1.5649848630326793,2852,0,35.933424373349325,36.47036136004564,101.49425498977645,0.1120804268727486,0.11375519424385738,0.357421875,,
3.6178950000000185,1350,,,,0.0625,0.15234375,-0.9296875,0.1221128361851099,4.087613669437312,22.960931848492113,1.5634915755430718,2852,0,35.89922351173603,36.4689326619121,101.58696789079525,0.11208481770859137,0.11386356777608311,0.357421875,,
3.6268900000001305,1350,,,,-0.0625,0.087890625,-1.0234375,0.12136594763042315,4.087613669437312,22.961224659158557,1.5614424186491207,2851,0,35.85263016694237,36.23682215789907,101.07158662884082,0.1128027632121233,0.11401154253966737,0.359375,,
3.634185000000056,1350,,,,-0.0625,-0.0859375,-0.8671875,0.12136594763042315,4.087613669437312,22.96091799965756,1.5608957028490493,2851,0,35.83959823913487,36.230237212176675,101.08996471008219,0.11282326542602651,0.11405299920393254,0.359375,,
3.6422299999999814,1350,,,,-0.03125,0.5078125,-1.169921875,0.12136594763042315,4.087613669437312,22.961166912647407,1.5580091767876445,2848,0,35.77370875965749,36.19834036671956,101.1869935262092,0.11292268175906285,0.11426306668116477,0.361328125,,
3.6489799999999812,1350,,,,0,-0.4375,-0.80078125,0.12136594763042315,4.087613669437312,22.961117698404355,1.5583931921746945,2847,0,35.78244950591524,36.18676176945013,101.12991779243077,0.11295881337711154,0.11423515510757819,0.36328125,,
3.657375,1350,,,,-0.03125,-0.021484375,-0.96484375,0.12136594763042315,4.087613669437312,22.961062265306087,1.555593976627509,2848,0,35.718090156879335,36.19286578566582,101.32923016516617,0.11293976259421298,0.11444099198708232,0.365234375,,
3.665839999999851,1350,,,,0,0.44140625,-1.14453125,0.12136594763042315,4.087613669437312,22.961008223229474,1.554412800714185,2848,0,35.69088509949156,36.20122531580344,101.42988949388412,0.11291368272147648,0.1145282236078685,0.365234375,,
3.6745149999996647,1350,,,,-0.0625,-0.373046875,-0.859375,0.12136594763042315,4.087613669437312,22.96088204649703,1.5572007667220373,2849,0,35.75470312741944,36.20451442244856,101.25804790890341,0.1129034247426004,0.114323803916655,0.3671875,,
3.682939999999944,1350,,,,-0.125,0.439453125,-1.169921875,0.12136594763042315,4.087613669437312,22.961030894504674,1.5570520123223581,2849,0,35.75151935928434,36.20564161634929,101.2702180640248,0.11289990970886367,0.11433398475625334,0.3671875,,
3.690394999999553,1350,,,,0.125,0.015625,-0.8984375,0.12136594763042315,4.149595485707653,22.960975202640636,1.5578299958084412,2849,0,35.769295903687386,36.20612601438608,101.22124324693141,0.11461031439980239,0.11600998512469682,0.3671875,,
3.6994799999999812,1350,,,,-0.09375,-0.314453125,-0.802734375,0.12136594763042315,4.149595485707653,22.961105548458058,1.5593516033155017,2849,0,35.804436750884534,36.20628181689724,101.12233315890042,0.11460982120983944,0.11589612523663394,0.369140625,,
3.7071699999999255,1350,,,,0,0.40234375,-1.142578125,0.12136594763042315,4.149595485707653,22.96111842297343,1.55832208977471,2848,0,35.78081804445255,36.20011403693817,101.17184574138216,0.11462934844551746,0.11597262758365036,0.37109375,,
3.7160449999999257,1350,,,,-0.125,-0.515625,-0.7109375,0.12136594763042315,4.149595485707653,22.961129174149043,1.55854364286315,2849,0,35.7859219073296,36.20395555440182,101.16815111862914,0.11461718539213953,0.11595608732543904,0.37109375,,
3.7255200000000186,1350,,,,-0.01953125,0.2578125,-1.072265625,0.12136594763042315,4.149595485707653,22.960822738891835,1.5704675866597997,2849,0,36.05922787447091,36.21201239953399,100.42370437213728,0.11459168410538416,0.1150772140810444,0.37109375,,
3.736369999999646,1350,,,,-0.0625,-0.33203125,-0.74609375,0.12136594763042315,4.149595485707653,22.96019188728623,1.5899295729592375,2851,0,36.50508808241514,36.23565822461342,99.26193889138563,0.11451690652300613,0.11367170177317155,0.373046875,,
3.750524999999907,1350,,,,-0.03125,0.294921875,-1.029296875,0.12136594763042315,4.149595485707653,22.96020933035036,1.587823918588137,2857,0,36.45676955052082,36.30491325699143,99.58346201432097,0.11429845476654714,0.1138223582854003,0.376953125,,
3.758524999999907,1350,,,,0.0625,-0.64453125,-0.734375,0.12136594763042315,4.149595485707653,22.960391985872757,1.584314465012895,2859,0,36.376481145584364,36.33472977108502,99.88522426253313,0.11420466071581681,0.11407358147425868,0.37890625,,
3.766709999999963,1350,,,,-0.125,0.525390625,-1.181640625,0.12136594763042315,4.149595485707653,22.960677035206274,1.5774828247819388,2861,0,36.22007366840298,36.36297990338502,100.39454981867335,0.11411593595280041,0.11456618017117957,0.37890625,,
3.7743699999996463,1350,,,,0.125,0.09375,-0.984375,0.12233331448647433,4.149595485707653,22.96083506299258,1.5718336367894035,2860,0,36.09061288078528,36.64296429571765,101.53045728748609,0.11324399009368911,0.11497714099271798,0.37890625,,
3.7816399999996646,1350,,,,-0.0625,-0.38671875,-0.7890625,0.12233331448647433,4.149595485707653,22.960797977187077,1.5710445140519687,2859,0,36.072435700315296,36.61948664691409,101.51653453940182,0.11331659358630954,0.11503507886691952,0.3828125,,
3.78905999999959,1350,,,,0,0.509765625,-1.18359375,0.12233331448647433,4.149595485707653,22.9608511783873,1.56799331056948,2858,0,36.00246105269265,36.607648590706184,101.68096157962032,0.1133532375188156,0.11525866189076264,0.3828125,,
3.7965800000000747,1350,,,,-0.1875,-0.51953125,-0.73828125,0.12233331448647433,4.149595485707653,22.960937757991307,1.5662969612539288,2857,0,35.96364703788238,36.59849592822328,101.76525169895083,0.11338158523907133,0.11538305559880142,0.384765625,,
3.8039500000001865,1350,,,,-0.125,-0.33203125,-0.82421875,0.12233331448647433,4.149595485707653,22.96089562831996,1.5663334111932024,2855,0,35.96441797355749,36.576129801883894,101.70088065591986,0.11345091752965956,0.11538058223988515,0.384765625,,
3.811945000000298,1350,,,,0,0.513671875,-1.197265625,0.12233331448647433,4.149595485707653,22.960853276675024,1.5645219680248852,2854,0,35.92275935595424,36.556793186093124,101.76499200369416,0.1135109270822539,0.11551438586857478,0.38671875,,
3.8301149999997577,1350,,,,-0.03125,0.505859375,-1.171875,0.12233331448647433,4.149595485707653,22.96098320701149,1.560356556690838,2854,0,35.827320695128606,36.55981999429426,102.04452715121745,0.1135015294483196,0.11582209903493755,0.390625,,
3.853854999999981,1350,,,,-0.0625,-0.265625,-0.841796875,0.12233331448647433,4.077167499216281,22.961228530459493,1.5563680849049761,2852,0,35.736123275016745,36.530348560573046,102.22247186535634,0.11161041873048921,0.11409092888558073,0.390625,,
3.861279999999795,1350,,,,-0.041015625,0.029296875,-1.01953125,0.12233331448647433,4.077167499216281,22.96106138162439,1.554077044437637,2850,0,35.683258409105996,36.51332405668223,102.3262047374138,0.11166245759731445,0.11425995497585587,0.39453125,,
3.879899999999907,1350,,,,0.0625,0,-0.9296875,0.12233331448647433,4.077167499216281,22.960889090694753,1.5594842027837637,2851,0,35.80714381880852,36.52068257367051,101.99272736879725,0.11163995883679632,0.11386463885105118,0.39453125,,
3.887254999999888,1350,,,,-0.1875,-0.32421875,-0.84375,0.12233331448647433,4.077167499216281,22.960845323679823,1.5602876558094658,2852,0,35.82552352548813,36.53457764735103,101.97918704902789,0.11159749918477298,0.11380622243567699,0.39453125,,
3.8950049999998884,1350,,,,0,0.5234375,-1.15625,0.12233331448647433,4.077167499216281,22.96080631370447,1.5569931685485217,2852,0,35.749818574803626,36.53984994719636,102.2098891795483,0.11158139688882646,0.11404722210506146,0.396484375,,
3.902814999999944,1350,,,,-0.125,-0.509765625,-0.859375,0.12233331448647433,4.077167499216281,22.96076886493867,1.5568580686638067,2852,0,35.74665827010448,36.54203853232104,102.22504788057837,0.11157471402724484,0.11405730483696942,0.3984375,,
3.912165000000037,1350,,,,0.0625,0.39453125,-1.0078125,0.12233331448647433,4.077167499216281,22.96088366664599,1.5561652307256229,2852,0,35.730928828770345,36.53654384784344,102.25467136030457,0.11159149360693937,0.11410751505383114,0.3984375,,
3.920625,1350,,,,-0.125,0.240234375,-1.095703125,0.12170231447838258,4.077167499216281,22.960840588592045,1.55447612367612,2851,0,35.69207847449989,36.34062803388925,101.81706862449246,0.11219309406029365,0.11423171957131056,0.400390625,,
3.9295200000000188,1350,,,,0.0625,-0.22265625,-0.791015625,0.12170231447838258,4.077167499216281,22.960794564470774,1.5515981384022166,2852,0,35.62592610246859,36.34368877632574,102.01472004346692,0.11218364553771289,0.11444383192985308,0.40234375,,
3.9383149999999443,1350,,,,-0.125,0.41015625,-1.138671875,0.12170231447838258,4.077167499216281,22.96089817556807,1.5514957160473373,2852,0,35.62373515599298,36.34479244782871,102.02409233248082,0.11218023889031335,0.11445087050425086,0.40234375,,
3.946725000000093,1350,,,,0.25,-0.5,-0.7265625,0.12170231447838258,4.077167499216281,22.960984471124398,1.5507748451263,2850,0,35.60731713715531,36.32765283552218,102.02299908075696,0.11223316622398227,0.11450364214499785,0.40234375,,
3.958255000000354,1350,,,,-0.15625,0.201171875,-1.048828125,0.12170231447838258,4.077167499216281,22.961056039984477,1.5445956971731327,2850,0,35.465548361911196,36.31962531638808,102.4081876466744,0.11225797247904397,0.11496135510469145,0.404296875,,
3.966450000000186,1350,,,,-0.03125,-0.056640625,-0.943359375,0.12170231447838258,4.077167499216281,22.960838294366916,1.5516135673098181,2850,0,35.62634821434653,36.317630357852806,101.94036767211495,0.1122641389056016,0.11444247596430412,0.40625,,
3.973625,1350,,,,0,0.03125,-0.9609375,0.12170231447838258,4.077167499216281,22.96031747414096,1.565811612032096,2852,0,35.95153171695336,36.35166194893864,101.11297130574437,0.11215903979694997,0.11340733772668846,0.408203125,,
3.9809849999998694,1350,,,,-0.21875,0.091796875,-1.080078125,0.12170231447838258,4.077167499216281,22.960129058740126,1.5769519632912015,2853,0,36.207020596599605,36.36459756063543,100.4352110763033,0.1121191425924043,0.11260709751962275,0.408203125,,
3.988570000000298,1350,,,,0.125,-0.61328125,-0.72265625,0.12170231447838258,4.077167499216281,22.960123437453124,1.573378869655779,2859,0,36.12497306117716,36.431061656867556,100.84730470296005,0.11191459468345473,0.11286285230750631,0.412109375,,
3.996649999999907,1350,,,,-0.03125,0.474609375,-1.115234375,0.12170231447838258,3.9609184944276508,22.960314052650766,1.5676258931752876,2861,0,35.993182824371765,36.46154897473466,101.30126349939177,0.1086327543893512,0.11004635277060373,0.412109375,,
4.007034999999683,1350,,,,-0.125,-0.16796875,-0.9609375,0.12170231447838258,3.9609184944276508,22.96058878056558,1.5621341953689052,2862,0,35.867520879925124,36.480469989122014,101.7089252174659,0.10857641076468431,0.11043190042846138,0.41015625,,
4.016629999999888,1350,,,,-0.041015625,0.03515625,-0.953125,0.12170231447838258,3.9609184944276508,22.96063799699975,1.5598834972123736,2861,0,35.81592029698728,36.46075637736683,101.80041745411688,0.10863511588822683,0.11059100147597856,0.412109375,,
4.025850000000093,1350,,,,-0.0625,0.203125,-1.10546875,0.12170231447838258,3.9609184944276508,22.960490768952234,1.5644687942263709,2859,0,35.92097130814842,36.44260655389115,101.45217466773903,0.10868922036546051,0.11026757769017077,0.412109375,,
4.034984999999869,1350,,,,0.03125,-0.32421875,-0.775390625,0.12170231447838258,3.9609184944276508,22.960228848165315,1.573611859585891,2860,0,36.13048841427904,36.448890584108206,100.88125620162755,0.10867048162378418,0.10962814698243231,0.412109375,,
4.0426150000002234,1350,,,,-0.03125,0.41015625,-1.173828125,0.12170231447838258,3.9609184944276508,22.96003453834275,1.5745098149012202,2861,0,36.150799731091666,36.46218272484533,100.86134468966077,0.10863086624072785,0.10956655243842486,0.412109375,,
4.050604999999981,1350,,,,-0.0625,-0.32421875,-0.8125,0.12170231447838258,3.9609184944276508,22.960032898133274,1.5676753973541786,2863,0,35.993878696846096,36.49145852053491,101.38240123516451,0.10854371557110318,0.11004422523585156,0.412109375,,
4.058534999999683,1350,,,,0,-0.052734375,-0.9375,0.12170231447838258,3.9609184944276508,22.960128988427904,1.5612929640286024,2864,0,35.847487842821636,36.49517276944431,101.80677912344245,0.10853266867512794,0.11049361427486512,0.412109375,,
4.066609999999869,1350,,,,-0.125,0.21484375,-1.09375,0.12170231447838258,3.9609184944276508,22.96021994163776,1.5584135329073594,2862,0,35.78151747557771,36.48097473712398,101.95480044138341,0.1085749085096928,0.11069733130047191,0.412109375,,
4.074569999999833,1350,,,,0.125,-0.52734375,-0.640625,0.12356441763398276,3.9609184944276508,22.960340267500303,1.5562803865732915,2861,0,35.73272722735968,37.02439515823051,103.61480365786866,0.10698131535977677,0.11084847986063799,0.4140625,,
4.082720000000205,1350,,,,-0.15625,0.439453125,-1.17578125,0.12356441763398276,3.9609184944276508,22.96052186153591,1.55229814212264,2860,0,35.64157542782845,37.00953102662649,103.83808959726836,0.10702428224713169,0.11113197009060997,0.4140625,,
4.089995000000112,1350,,,,0.09375,-0.267578125,-0.78125,0.12356441763398276,3.9609184944276508,22.96062561418097,1.549864560276013,2859,0,35.58585992118475,36.99193522367628,103.95121912356674,0.1070751900509522,0.11130596543684088,0.4140625,,
4.098375,1350,,,,-0.1875,-0.046875,-0.9921875,0.12356441763398276,3.9609184944276508,22.960872777514044,1.546467763721712,2857,0,35.50824957734088,36.97357904250257,104.12672965466811,0.10712834940524477,0.11154924676870749,0.412109375,,
4.1068050000001675,1350,,,,0,0.46484375,-1.142578125,0.12356441763398276,3.9609184944276508,22.96068565191616,1.5450343348692803,2856,0,35.47504768435091,36.959163003362576,104.1835470729088,0.10717013515883148,0.11165364821130117,0.4140625,,
4.114270000000019,1350,,,,-0.15625,-0.37109375,-0.814453125,0.12356441763398276,3.9609184944276508,22.96065221732489,1.5467491305387697,2856,0,35.51436885375035,36.95403589186951,104.05375932217117,0.10718500425819842,0.11153002636028471,0.4140625,,
4.1214000000003725,1350,,,,0.0625,0.515625,-1.1484375,0.12356441763398276,3.9609184944276508,22.960738494008293,1.5481781350396877,2854,0,35.54731330078773,36.935588887514385,103.90543041883251,0.1072385364286581,0.11142666285105368,0.416015625,,
4.12844999999972,1350,,,,0,0.421875,-1.17578125,0.12356441763398276,3.9609184944276508,22.960706853607444,1.5464764233029646,2854,0,35.50819181147471,36.92747636986997,103.99706232840786,0.10726209543145117,0.1115494282406026,0.416015625,,
4.136389999999665,1350,,,,-0.09375,-0.4375,-0.8125,0.12356441763398276,3.9609184944276508,22.960671920078052,1.5465307917395537,2854,0,35.509386123430446,36.92762273764939,103.99397671728023,0.10726167028318652,0.11154567642086288,0.41796875,,
4.144620000000112,1350,,,,-0.0625,0.46484375,-1.12890625,0.12356441763398276,3.9056954884904305,22.96083467613324,1.5443523219442596,2854,0,35.45961834586464,36.9296610907034,104.1456812380221,0.1057603934923097,0.11014488228257874,0.416015625,,
4.1526500000003725,1350,,,,-0.0625,-0.0859375,-0.9296875,0.12356441763398276,3.9056954884904305,22.960793341956673,1.5424689461110164,2853,0,35.416310708040754,36.91251963554215,104.22463237302044,0.10580950655911696,0.11027956922694658,0.416015625,,
4.16389000000013,1350,,,,0,-0.224609375,-0.875,0.12356441763398276,3.9056954884904305,22.960851633649543,1.5458556637579903,2852,0,35.49416254258405,36.9059093102268,103.97740548449059,0.10582845840918338,0.1100376853181021,0.41796875,,
4.181294999999926,1350,,,,-0.09375,-0.29296875,-0.83203125,0.12356441763398276,3.9056954884904305,22.96073902304134,1.5429608780123425,2851,0,35.42752204280412,36.89162142427218,104.13266098514909,0.1058694450854564,0.11024467033769689,0.41796875,,
4.189590000000317,1350,,,,-0.03125,0.34765625,-1.1953125,0.12356441763398276,3.9056954884904305,22.960769899258676,1.5437631458118537,2852,0,35.44599036994169,36.897783462251894,104.09578933232835,0.10585176457784067,0.11018722985950118,0.41796875,,
4.1977099999999625,1350,,,,0.0625,-0.37890625,-0.734375,0.12356441763398276,3.9056954884904305,22.960731524394774,1.5449274904999588,2851,0,35.47266533402651,36.8880609352555,103.99010220377012,0.10587966375748392,0.11010437055441567,0.41796875,,
4.20619999999972,1350,,,,-0.09375,0.05078125,-1.0234375,0.12356441763398276,3.9056954884904305,22.96079298772275,1.5460013157101264,2850,0,35.49741616876722,36.878439527217445,103.89048980884795,0.10590728725405815,0.11002759947150459,0.416015625,,
4.214779999999795,1350,,,,0.03125,0.193359375,-0.9453125,0.12356441763398276,3.9056954884904305,22.960822480206524,1.5469143672070524,2851,0,35.51842617752214,36.88690049513721,103.85285741765526,0.1058829946692137,0.10996251548336206,0.41796875,,
4.223955000000075,1350,,,,-0.09375,-0.072265625,-0.9609375,0.12228807260159949,3.9056954884904305,22.960777058852386,1.5458710175704615,2851,0,35.494399796176644,36.50684470169749,102.85240745394968,0.1069852933170317,0.11003694979823665,0.419921875,,
4.230854999999981,1350,,,,0.0625,0.63671875,-1.1640625,0.12228807260159949,3.9056954884904305,22.960868471195774,1.5441694797714796,2850,0,35.455472322267745,36.50327302990911,102.95525807163848,0.1069957613195475,0.11015776219225445,0.421875,,
4.241009999999776,1350,,,,-0.0625,-0.37109375,-0.900390625,0.12228807260159949,3.9056954884904305,22.961032260254925,1.5412836379761774,2850,0,35.38946333377408,36.50179065668569,103.14310311072181,0.10700010652148816,0.1103632301980407,0.421875,,
4.248229999999982,1350,,,,-0.09375,0.32421875,-1.080078125,0.12228807260159949,3.9056954884904305,22.960978579163353,1.5392389266205688,2851,0,35.34243202234927,36.507306543521004,103.29596593815363,0.1069839398815791,0.11051009409937071,0.421875,,
4.256879999999888,1350,,,,0.0625,0.09765625,-1.00390625,0.12228807260159949,3.9056954884904305,22.961063422644024,1.5393306754503844,2851,0,35.34466926743774,36.50933645516919,103.29517070571215,0.1069779915963781,0.11050309903702116,0.419921875,,
4.265015000000131,1350,,,,-0.125,-0.302734375,-0.80078125,0.12228807260159949,3.9056954884904305,22.961212994524505,1.5400824856601016,2851,0,35.362161982378325,36.51012752421302,103.24631039925316,0.10697567369218929,0.11044843611192995,0.419921875,,
4.272894999999553,1350,,,,0.0625,0.51953125,-1.16015625,0.12228807260159949,3.9056954884904305,22.961030781787024,1.538905208755089,2850,0,35.33484986847798,36.49891890425248,103.29439360888004,0.10700852534115413,0.11053380736094988,0.421875,,
4.281825000000186,1350,,,,-0.1875,-0.46875,-0.79296875,0.12228807260159949,3.9056954884904305,22.961047496824687,1.5390241934055626,2850,0,35.337607603547426,36.49395877004037,103.2722961312663,0.10702306957437573,0.11052518133962047,0.423828125,,
4.290834999999963,1350,,,,-0.03125,0.017578125,-0.98828125,0.12228807260159949,3.88270029078469,22.96121069648951,1.5405760898039995,2850,0,35.37349219196358,36.4984259572531,103.1801603279223,0.10637993800971317,0.1097629905951664,0.423828125,,
4.298854999999981,1350,,,,-0.0625,0.0625,-1.046875,0.12228807260159949,3.88270029078469,22.96121671058777,1.5425016446406856,2850,0,35.41771453903283,36.499919795999716,103.05554796816214,0.10637558417896092,0.10962594117996179,0.423828125,,
4.3070699999998325,1350,,,,0,-0.40234375,-0.72265625,0.12228807260159949,3.88270029078469,22.96096170960843,1.5503893523882433,2850,0,35.59843055517106,36.494644189358524,102.51756501680178,0.10639096166107703,0.10906942329289529,0.423828125,,
4.316479999999982,1350,,,,-0.0625,0.373046875,-1.125,0.12228807260159949,3.88270029078469,22.960652486533224,1.5609135267112886,2851,0,35.83959304834689,36.510242016414196,101.87125162711142,0.10634550954329784,0.10833550162098676,0.421875,,
4.3327649999996645,1350,,,,-0.125,0.359375,-1.130859375,0.12228807260159949,3.88270029078469,22.960582984079288,1.5544939593358214,2857,0,35.6920875515801,36.58975839567091,102.51504158391842,0.10611440088776505,0.10878322219661825,0.419921875,,
