Time (s),ESC signal (µs),Servo 1 (µs),Servo 2 (µs),Servo 3 (µs),AccX (g),AccY (g),AccZ (g),Torque (N·m),Thrust (N),Voltage (V),Current (A),Motor Electrical Speed (RPM),Motor Optical Speed (RPM),Electrical Power (W),Mechanical Power (W),Motor Efficiency (%),Propeller Mech. Efficiency (N/W),Overall Efficiency (N/W),Vibration (g),App message,90% settling time (s),Max acceleration (RPM/s),
0,1000,,,,-0.0625,0.05078125,-0.95703125,0.026867296157257255,0.1482456082068339,23.006132237417074,0.06430150754935239,0,0,1.4793289857456733,0,0,0,0,0.064453125,,
0,1140,,,,-0.0625,0.05078125,-0.953125,0.026867296157257255,0.1482456082068339,23.006320648251638,0.0659388663671524,0,0,1.5170107028249238,0,0,0,0,0.0625,,
0.00818999999994412,1140,,,,-0.0625,0.05078125,-0.95703125,0.026867296157257255,0.1482456082068339,23.006492614806813,0.06672328264439363,0,0,1.5350687093939097,0,0,0,0,0.0625,,
0.015404999999795109,1140,,,,-0.0625,0.05078125,-0.95703125,0.026867296157257255,0.1482456082068339,23.00656141668857,0.06695864876264497,0,0,1.5404882651362697,0,0,0,0,0.0625,,
0.023565000000409782,1140,,,,-0.0625,0.046875,-0.955078125,0.026867296157257255,0.1482456082068339,23.006731391945024,0.06805948019016927,0,0,1.565826179410628,0,0,0,0,0.0625,,
0.031545000000391156,1140,,,,-0.0625,0.046875,-0.953125,0.026867296157257255,0.1482456082068339,23.006793976518313,0.0691027681349573,0,0,1.5898331496880773,0,0,0,0,0.0625,,
0.039919999999925494,1140,,,,0.3125,-0.05859375,-1.10546875,0.02825363769150383,0.1482456082068339,23.004926725115247,0.13847549337284135,0,0,3.1856185782663973,0,0,0,0,0.064453125,,
0.047670000000391156,1140,,,,-0.28125,-0.013671875,-0.88671875,0.02825363769150383,0.1482456082068339,23.002267447446556,0.2360723931351785,0,0,5.430200323854122,0,0,0,0,0.0703125,,
0.055780000000260774,1140,,,,-0.25,0.220703125,-1.025390625,0.02825363769150383,0.1482456082068339,22.99943247655722,0.3248528042088761,0,0,7.471430135222309,0,0,0,0,0.078125,,
0.06373000000044704,1140,,,,0.5,-0.26171875,-0.921875,0.02825363769150383,0.1482456082068339,22.997361587842395,0.3768878708150278,0,0,8.667426643205227,0,0,0,0,0.083984375,,
0.071714999999851,1140,,,,-0.40625,0.263671875,-1.041015625,0.02825363769150383,0.1482456082068339,22.995634202878275,0.4372643027794493,0,0,10.055169956692826,0,0,0,0,0.087890625,,
0.07974500000011175,1140,,,,0.625,-0.21484375,-0.98046875,0.02825363769150383,0.1482456082068339,22.99441942656694,0.47418096881254984,0,0,10.903516080971627,0,0,0,0,0.095703125,,
0.08789999999990687,1140,,,,-0.09375,0.015625,-0.955078125,0.02825363769150383,0.1482456082068339,22.9937093146334,0.5047624564335573,0,0,11.606361196173523,0,0,0,0,0.09765625,,
0.10591500000003726,1140,,,,0.03125,-0.064453125,-0.8203125,0.02825363769150383,0.1482456082068339,22.99055055484976,0.5880270517805696,3,0,13.519065661580443,0.00876705061056359,0.0648495305077073,0,0.010965669663705392,0.103515625,,
0.1140050000003539,1140,,,,0.125,0.037109375,-1.05078125,0.02825363769150383,0.1493820239085655,22.989755191896588,0.5990200800679633,3,0,13.771324995792769,0.010246566866303802,0.07440509079143942,0,0.010847323983291565,0.107421875,,
0.12444500000029803,1140,,,,0,-0.109375,-0.9765625,0.02825363769150383,0.1493820239085655,22.989733034920892,0.5989167234892843,4,0,13.76893558316818,0.010769227667937673,0.07821394473732961,0,0.010849206389721033,0.107421875,,
0.14106500000040978,1140,,,,-0.03125,-0.048828125,-0.931640625,0.02825363769150383,0.1493820239085655,22.9900484109667,0.5869146234132632,4,0,13.49319560537521,0.011037370369066274,0.08179952838354598,0,0.011070915169202545,0.109375,,
0.14870000000018627,1140,,,,-0.03125,0.142578125,-1.00390625,0.02825363769150383,0.1493820239085655,22.990337201172906,0.578885097234832,4,0,13.308763586162552,0.011062538099893065,0.08312220762111258,0,0.011224335224038519,0.109375,,
0.15694000000040978,1140,,,,-0.0625,-0.05078125,-0.953125,0.02825363769150383,0.1493820239085655,22.990549808091224,0.567302780588588,4,0,13.042602833390578,0.011072612942271142,0.08489573042831579,0,0.011453390539971835,0.109375,,
0.16605500000016765,1140,,,,0,0.025390625,-0.958984375,0.02825363769150383,0.1493820239085655,22.99108111415463,0.5509301018172913,444,0,12.666478659110812,1.3143250396509667,10.3764043269089,0.11365683480262655,0.011793492724287442,0.109375,,
0.17406499999994413,1140,,,,-0.09375,0.03125,-0.951171875,0.02825363769150383,0.1493820239085655,22.991519680772694,0.5391075723721066,589,0,12.394902360246878,1.7430351513188762,14.062516191407571,0.08570224403996377,0.012051891944519534,0.109375,,
0.19103000000026077,1140,,,,-0.0625,0.1015625,-0.990234375,0.029409504429587757,0.1493820239085655,22.992346874015883,0.5075467749721445,671,0,11.669691504947629,2.0653215739510253,17.698167711420528,0.07232869970112837,0.012800854576595416,0.107421875,,
0.1981300000003539,1140,,,,-0.09375,0.041015625,-0.9921875,0.029409504429587757,0.1493820239085655,22.992592340214262,0.4956132209620223,678,0,11.395432748000314,2.0871471969625435,18.315646655268964,0.07157234723356523,0.013108938222181976,0.107421875,,
0.20583999999985098,1140,,,,0.0625,0.0078125,-0.9921875,0.029409504429587757,0.1493820239085655,22.99289169806063,0.4815671626256999,681,0,11.072621615595068,2.0973071021770946,18.94137788672534,0.0712256320276132,0.013491116114558692,0.107421875,,
0.2141400000001304,1140,,,,-0.0625,0.10546875,-1.021484375,0.029409504429587757,0.1493820239085655,22.993122404995333,0.4691437638521763,759,0,10.787079987793314,2.336415533703561,21.659388234327125,0.06393641103377408,0.013848235488900294,0.107421875,,
0.222125,1140,,,,-0.03125,0.009765625,-0.974609375,0.029409504429587757,0.1493820239085655,22.99362480234233,0.4555484676845072,794,0,10.474710545219528,2.4457285377414943,23.34888899491052,0.061078742633682556,0.014261207817025627,0.107421875,,
0.22909500000020488,1140,,,,0,0.0859375,-1.05859375,0.029409504429587757,0.1493820239085655,22.994072878309098,0.4438646067836997,806,0,10.206255116486401,2.48223921396595,24.32076393971704,0.06018034968913945,0.014636320785991844,0.107421875,,
0.2367550000003539,1140,,,,-0.0625,0.0546875,-0.98046875,0.029409504429587757,0.1493820239085655,22.994423241518856,0.43278856774232455,811,0,9.951723500757765,2.4983698539290495,25.10489618947726,0.059791797308809416,0.015010668644199265,0.107421875,,
0.2445449999999255,1140,,,,-0.03125,0.025390625,-0.9296875,0.029409504429587757,0.1493820239085655,22.994690077424668,0.42133476380478596,814,0,9.688462312535977,2.50558993998624,25.86158524603267,0.05961950178862303,0.01541854827832472,0.107421875,,
0.2517600000002421,1140,,,,-0.125,0.1171875,-0.97265625,0.029409504429587757,0.1493820239085655,22.99521439414353,0.4098377989677435,814,0,9.42430805408716,2.5083548391657113,26.61579847316092,0.05955378464645399,0.01585071530464044,0.107421875,,
0.2599250000002794,1140,,,,-0.03125,0.03515625,-0.982421875,0.029409504429587757,0.27792843404963063,22.995645607160235,0.3979391059537197,815,0,9.150866653741925,2.5096253591028663,27.425001959531812,0.11074498950272947,0.03037181554120686,0.10546875,,
0.2676450000004843,1140,,,,-0.03125,0.0546875,-1.0078125,0.029409504429587757,0.27792843404963063,22.995860162971617,0.3865898972730303,837,0,8.889967218108167,2.577524806688155,28.993636798096833,0.10782764663543204,0.03126315623341244,0.10546875,,
0.2788600000003353,1140,,,,-0.0625,0.00390625,-0.96484375,0.029409504429587757,0.27792843404963063,22.996072425752967,0.3907030117193866,846,0,8.984634754458824,2.6047986974870425,28.991703821842655,0.10669862293687406,0.030933748743843203,0.10546875,,
0.2872050000000745,1140,,,,-0.01953125,0.05859375,-0.96875,0.029409504429587757,0.27792843404963063,22.9948446212202,0.43437557865441806,850,0,9.988398938410956,2.6163356627827152,26.193744151742354,0.10622812584912289,0.027825123502110135,0.107421875,,
0.29458499999996274,1140,,,,-0.125,-0.07421875,-1.01171875,0.029409504429587757,0.27792843404963063,22.994102052859482,0.4593567736427854,851,0,10.56249653181448,2.6195241047729785,24.80023635399938,0.10609882670795935,0.02631275979239414,0.107421875,,
0.3016099999998696,1140,,,,0,0.037109375,-0.919921875,0.029409504429587757,0.27792843404963063,22.99376103750634,0.4722679526987247,851,0,10.859216450026823,2.6206467627754924,24.132926853751215,0.10605337506657338,0.02559378343075058,0.107421875,,
0.31009000000031667,1140,,,,-0.25,0.16015625,-0.9296875,0.029409504429587757,0.27792843404963063,22.993338467592363,0.48157827574165474,898,0,11.073092292767392,2.766199486512388,24.98127364403154,0.10047302640491831,0.025099441664652705,0.109375,,
0.3187799999997951,1140,,,,-0.03125,-0.001953125,-1.01171875,0.029409504429587757,0.27792843404963063,22.993266200929813,0.4871094239245821,917,0,11.200236653279486,2.824680436105822,25.219828147816337,0.09839287676477484,0.024814514429768928,0.109375,,
0.327070000000298,1140,,,,0,0.0234375,-0.970703125,0.029409504429587757,0.27792843404963063,22.99320365931819,0.4910375657391839,924,0,11.2905267534169,2.845020691684894,25.198299014914372,0.09768942449590211,0.024616073290426418,0.109375,,
0.33600499999988825,1140,,,,-0.125,0.08203125,-0.9765625,0.029409504429587757,0.27792843404963063,22.99324676418138,0.489374645473573,926,0,11.252311983507642,2.853384405077904,25.358205578196465,0.09740308160198366,0.02469967367212947,0.109375,,
0.3441200000001118,1140,,,,-0.0625,0.052734375,-1.009765625,0.06017877648525635,0.27792843404963063,22.9933178178437,0.4855357290846981,927,0,11.16407733076292,5.844668622694336,52.352455554828445,0.04755247080569443,0.024894886143773946,0.107421875,,
0.3519900000002235,1140,,,,-0.03125,0.0390625,-0.970703125,0.06017877648525635,0.27792843404963063,22.9934488933994,0.48239563596930835,1020,0,11.091939402059193,6.429667590939438,57.96702774760728,0.043225941328799325,0.02505679340422955,0.107421875,,
0.3598549999999814,1140,,,,-0.0625,0.07421875,-0.99609375,0.06017877648525635,0.27792843404963063,22.99357379267527,0.47940168046323317,1057,0,11.023157916063882,6.661357747757107,60.43057532587473,0.041722490305104803,0.025213140931657135,0.107421875,,
0.36871499999985097,1140,,,,-0.03125,0.033203125,-0.931640625,0.06017877648525635,0.27792843404963063,22.9937803291294,0.4724009681084095,1072,0,10.862284087952832,6.758389547346435,62.21886200566276,0.041123470628998356,0.025586555442595738,0.10546875,,
0.3776650000005029,1140,,,,-0.03125,0.06640625,-0.99609375,0.06017877648525635,0.27792843404963063,22.993890063839896,0.4653640208139481,1078,0,10.700529134262425,6.79140824053386,63.46796644652082,0.04092353517947011,0.025973335576436232,0.10546875,,
0.38704000000003724,1140,,,,-0.0625,0.05859375,-0.974609375,0.06017877648525635,0.27792843404963063,22.994200096750323,0.45558832510608394,1107,0,10.475889109232632,6.976574236525815,66.59648802866009,0.03983737929635119,0.02653029553402643,0.10546875,,
0.39467499999981376,1140,,,,0,0.05859375,-0.96875,0.06017877648525635,0.27792843404963063,22.99419022804183,0.4468492533178502,1128,0,10.2749367340491,7.108788861707845,69.18571905314737,0.039096453623305376,0.027049162563564117,0.10546875,,
0.4020150000001304,1140,,,,-0.0625,0.046875,-0.9453125,0.06017877648525635,0.27792843404963063,22.994268781995142,0.44122845014013923,1136,0,10.145725576785503,7.157238838867309,70.54437639476305,0.03883179537622011,0.02739364789104491,0.10546875,,
0.4099750000000931,1140,,,,0,0.05859375,-0.98046875,0.06017877648525635,0.3649914164488916,22.99455122611423,0.43639490250241425,1139,0,10.03470494040689,7.179862206680406,71.5503071522228,0.050835434712004676,0.036372909678607034,0.103515625,,
0.4190299999997951,1140,,,,-0.0625,0.0859375,-1.01953125,0.06017877648525635,0.3649914164488916,22.99473910901122,0.4270618729107325,1150,0,9.820176350988,7.244880860677884,73.77546595636221,0.050379215817048004,0.03716750121418849,0.103515625,,
0.4292050000000745,1140,,,,-0.0625,0.048828125,-0.974609375,0.06017877648525635,0.3649914164488916,22.994932553222494,0.41993624908532257,1162,0,9.656405724370234,7.320091766956895,75.80555307947454,0.04986159027356369,0.03779785428109644,0.103515625,,
0.437785000000149,1140,,,,-0.0625,0.06640625,-1.01953125,0.06017877648525635,0.3649914164488916,22.99527170025526,0.4098990296056141,1167,0,9.42573955545207,7.354186813551216,78.0223850901692,0.049630424913375736,0.03872284124780129,0.103515625,,
0.446910000000149,1140,,,,-0.0625,0.01953125,-0.998046875,0.06017877648525635,0.3649914164488916,22.995504389272135,0.40341281198127804,1168,0,9.276681088604093,7.363056917432875,79.37167233740522,0.0495706362916648,0.03934504301298705,0.103515625,,
0.4541400000001304,1140,,,,-0.03125,-0.005859375,-0.970703125,0.06017877648525635,0.3649914164488916,22.995815356407103,0.39405943954719025,1171,0,9.061718111276454,7.381411922173013,81.45709049355156,0.04944737135621634,0.040278390032315634,0.103515625,,
0.4615449999999255,1140,,,,0,0.0078125,-1.04296875,0.06017877648525635,0.3649914164488916,22.995881210374293,0.38856326062888313,1176,0,8.935354584137503,7.41375253472025,82.97099421081198,0.04923166975692211,0.040848005863901915,0.103515625,,
0.4700449999999255,1140,,,,-0.0625,0.09375,-0.958984375,0.06017877648525635,0.3649914164488916,22.9961880023448,0.38367693887504006,1179,0,8.823107018534577,7.428987703126024,84.19922468944392,0.049130706771167196,0.041367674185766895,0.103515625,,
0.477804999999702,1140,,,,0,0.0390625,-0.96875,0.06017877648525635,0.3649914164488916,22.99637483984379,0.3762704120019936,1180,0,8.652855435540303,7.434821289907062,85.9233272217822,0.04909215732520372,0.04218161497876692,0.103515625,,
0.4859250000002794,1140,,,,-0.0625,0.06640625,-0.962890625,0.06017877648525635,0.3649914164488916,22.996650847056817,0.36857483322944007,1180,0,8.475986750789628,7.437126357274907,87.74348728874617,0.04907694167275528,0.043061820078339405,0.103515625,,
0.4941900000004098,1140,,,,0,0.0859375,-1.0546875,0.07269350493602653,0.3649914164488916,22.99691251908371,0.3625605589870051,1182,0,8.337773457894246,9.000188562010987,107.94474816882393,0.040553752172425434,0.0437756456555336,0.103515625,,
0.503,1140,,,,-0.09375,0.048828125,-0.9765625,0.07269350493602653,0.3649914164488916,22.997155085044938,0.35733000565056083,1185,0,8.217573556485931,9.023352642061653,109.80555975601509,0.040449645594865996,0.04441595976476691,0.103515625,,
0.5120900000003167,1140,,,,0,-0.02734375,-0.955078125,0.07269350493602653,0.3649914164488916,22.997387074541315,0.3523275154849341,1186,0,8.102612250618478,9.031718265414737,111.46674660046013,0.040412179136118255,0.045046141313380944,0.103515625,,
0.5208349999999627,1140,,,,0,0.046875,-0.953125,0.07269350493602653,0.3649914164488916,22.99753010130969,0.3462431082287698,1187,0,7.962736303862162,9.034671588695137,113.46189606094397,0.04039896889064528,0.04583743609239703,0.103515625,,
0.5290550000001676,1140,,,,-0.0625,0.0859375,-1.021484375,0.07269350493602653,0.3649914164488916,22.99765117817404,0.3409923122695131,1188,0,7.842022252013257,9.040127528483863,115.27801424132684,0.040374587117147115,0.04654302228678176,0.103515625,,
0.5373850000002421,1140,,,,-0.0625,0.0546875,-0.974609375,0.07269350493602653,0.3649914164488916,22.99763559891655,0.3387429913716072,1189,0,7.790287877251155,9.051233498157924,116.18612355249316,0.040325047025156664,0.046852108959249496,0.103515625,,
0.5459050000002608,1140,,,,0,0.01953125,-0.96484375,0.07269350493602653,0.3649914164488916,22.99747111136238,0.3421135395022227,1190,0,7.867746241508298,9.055854678168032,115.101000975242,0.04030446925443906,0.04639084754961802,0.1015625,,
0.5547200000002049,1140,,,,-0.03125,0.037109375,-0.98828125,0.07269350493602653,0.3649914164488916,22.997208540552368,0.343100660607841,1190,0,7.8903574423998,9.057384852521723,114.79055186842055,0.04029766012948782,0.046257906452699546,0.1015625,,
0.5624199999999255,1140,,,,0,0.01171875,-0.90234375,0.07269350493602653,0.5840957511441536,22.99736257587311,0.33436279792501405,1192,0,7.689462495764942,9.077633616589624,118.05290189774946,0.06434449503191035,0.07596054359662341,0.1015625,,
0.5696200000001117,1140,,,,-0.0625,0.0859375,-1.029296875,0.07269350493602653,0.5840957511441536,22.997653587049804,0.3270478423997684,1198,0,7.5213329859019336,9.11873960460056,121.23834460849987,0.06405443915181734,0.07765854167592219,0.1015625,,
0.5799300000001676,1140,,,,-0.0625,-0.015625,-0.951171875,0.07269350493602653,0.5840957511441536,22.997573936757775,0.31966403929440795,1200,0,7.3514973785957896,9.137415591095158,124.29325782933893,0.06392351812402869,0.07945262319548317,0.1015625,,
0.5881499999999069,1140,,,,0,0.015625,-0.958984375,0.07269350493602653,0.5840957511441536,22.997784615285354,0.31170704176714104,1201,0,7.168571409628465,9.145826618477402,127.58227680055174,0.06386473038578046,0.0814800770987125,0.1015625,,
0.5981749999998137,1140,,,,-0.125,0.09375,-1.03515625,0.07269350493602653,0.5840957511441536,22.99798524352776,0.3069819755935473,1202,0,7.0599669447294,9.148453801851206,129.58210531964264,0.0638463901983044,0.0827334965895568,0.1015625,,
0.6063300000000745,1140,,,,-0.0625,0.01171875,-0.9453125,0.07269350493602653,0.5840957511441536,22.99816698577326,0.3036477954231094,1203,0,6.983342704002587,9.156560400523139,131.12002072123633,0.06378986492687609,0.08364128411016862,0.1015625,,
0.6143100000005215,1140,,,,-0.03125,0.0234375,-1.01171875,0.07269350493602653,0.5840957511441536,22.998193729127944,0.30041794213716033,1203,0,6.909070032976363,9.15948197545896,132.5718502163328,0.06376951804797737,0.08454042995024187,0.1015625,,
0.622964999999851,1140,,,,0,0.041015625,-0.94921875,0.07269350493602653,0.5840957511441536,22.99838280650096,0.2957551883638792,1203,0,6.801891039001292,9.160512178410219,134.67596181539594,0.06376234644617018,0.08587255335244463,0.1015625,,
0.6312099999999627,1140,,,,-0.125,0.1015625,-0.98828125,0.07269350493602653,0.5840957511441536,22.99839678342069,0.2936015998110565,1203,0,6.752366088701771,9.160913117782407,135.66967485827934,0.0637595558034881,0.08650238204967549,0.1015625,,
0.6392450000001118,1140,,,,0,0.076171875,-1.01953125,0.07269350493602653,0.5840957511441536,22.998377425160093,0.296344115751848,1202,0,6.81543382178633,9.152076995819309,134.28458459333322,0.06382111420292573,0.08570191809023561,0.1015625,,
0.6549849999998696,1140,,,,-0.125,0.09765625,-0.94921875,0.06166126343073536,0.5840957511441536,22.99853911407332,0.30005110048994416,1200,0,6.900736970838725,7.748171427472788,112.28034716024054,0.07538498039332454,0.08464251769230406,0.103515625,,
0.6635500000002794,1140,,,,-0.03125,0.07421875,-0.966796875,0.06166126343073536,0.5840957511441536,22.998612861156225,0.2940218254453035,1200,0,6.762094136146987,7.746597351967262,114.55914685596555,0.07540029829946195,0.0863779384587167,0.103515625,,
0.6708799999998882,1140,,,,-0.03125,0.0078125,-0.9921875,0.06166126343073536,0.5840957511441536,22.998615398344494,0.28948736488936816,1203,0,6.657808567770794,7.76982890919218,116.70249797815558,0.0751748536512989,0.08773093206248851,0.103515625,,
0.6802099999999628,1140,,,,-0.0625,0.0234375,-0.90234375,0.06166126343073536,0.5840957511441536,22.99869177270625,0.2844340635260419,1207,0,6.541611356693786,7.793001627345514,119.1296945418689,0.07495131902636479,0.08928927741121004,0.103515625,,
0.6878549999999813,1140,,,,0,0.0625,-0.939453125,0.06166126343073536,0.5840957511441536,22.998881779287576,0.2811232856916732,1208,0,6.465521213027679,7.800709658068927,120.65090193116859,0.07487725819149985,0.09034008734937438,0.1015625,,
0.6958550000004471,1140,,,,-0.09375,0.03125,-0.966796875,0.06166126343073536,0.5840957511441536,22.999132870854247,0.2774600976927759,1209,0,6.381341653196353,7.803857186027707,122.29179395400071,0.07484705796384108,0.09153180990577202,0.103515625,,
0.7120699999998323,1140,,,,-0.03125,0.0390625,-1.001953125,0.06166126343073536,0.6839480353746865,22.999372344483298,0.2713163855233696,1206,0,6.240106573811356,7.789936516619528,124.83659412665385,0.08779892286869218,0.10960518498916313,0.1015625,,
0.7254050000002608,1140,,,,-0.0625,0.0546875,-0.94140625,0.06166126343073536,0.6839480353746865,22.999322789354668,0.2670640266155267,1206,0,6.1422917535553045,7.784420528039381,126.73478956016007,0.08786113660112717,0.1113506265766033,0.1015625,,
0.7517000000001862,1140,,,,-0.015625,0.037109375,-0.9765625,0.06166126343073536,0.6839480353746865,22.999334174179584,0.26081720976965467,1204,0,5.998622165869384,7.775640253408744,129.62377089942646,0.08796034964128546,0.11401752210135435,0.1015625,,
0.7596650000000372,1140,,,,-0.03125,0.005859375,-0.94921875,0.06166126343073536,0.6839480353746865,22.99943523251847,0.2591654344710853,1204,0,5.9606586246252355,7.771613079500883,130.38178444566614,0.08800592983440342,0.11474370173609605,0.099609375,,
0.7676400000001304,1140,,,,-0.0625,0.03125,-0.88671875,0.06166126343073536,0.6839480353746865,22.99965508911145,0.2556860147141983,1203,0,5.8806901495360355,7.770102174603975,132.12908650215158,0.08802304268406173,0.11630404220984973,0.099609375,,
0.775410000000149,1140,,,,-0.0625,0.03125,-1.10546875,0.06166126343073536,0.6839480353746865,22.999838770065757,0.25433969865401634,1203,0,5.849772061869487,7.765021634833878,132.7405846365971,0.08808063486990125,0.11691874967793335,0.099609375,,
0.7834700000002048,1140,,,,-0.03125,0.009765625,-0.880859375,0.06166126343073536,0.6839480353746865,23.000044046479736,0.25406393392373094,1201,0,5.843481670867729,7.752706006050422,132.67271881250178,0.0882205561310999,0.11704461037063946,0.099609375,,
0.7925200000004843,1140,,,,0,0.037109375,-0.95703125,0.05455600958396959,0.6839480353746865,23.00026144536138,0.2537122579125457,1200,0,5.835448263881508,6.854839464794843,117.46894419787515,0.09977593769880594,0.11720574057831702,0.099609375,,
0.800320000000298,1140,,,,-0.09375,0.076171875,-1.0078125,0.05455600958396959,0.6839480353746865,23.000347206152046,0.24914172614983623,1200,0,5.730346204986284,6.853305173900092,119.59670373731801,0.0997982751416663,0.11935544745613214,0.1015625,,
0.808285000000149,1140,,,,-0.125,0.03515625,-0.95703125,0.05455600958396959,0.6839480353746865,23.000460904612183,0.24683555090608902,1199,0,5.677331438483911,6.8527037530853345,120.70290113122756,0.09980703383927089,0.12046998537702595,0.099609375,,
0.8161450000000187,1140,,,,0,0.01171875,-1.005859375,0.05455600958396959,0.6839480353746865,23.000341444016883,0.2455064147096758,1198,0,5.646731365018952,6.845093946304449,121.22223466675355,0.09991799100784271,0.12112282153383279,0.1015625,,
0.8243500000000932,1140,,,,-0.125,0.11328125,-0.984375,0.05455600958396959,0.6839480353746865,23.000193213032023,0.2524615515175855,1197,0,5.806664463766304,6.838327088454956,117.76687168900916,0.10001686472841957,0.11778673275208774,0.1015625,,
0.8321549999997951,1140,,,,0,0.0234375,-0.953125,0.05455600958396959,0.6839480353746865,22.999855690801716,0.2564956200045962,1196,0,5.899362245428426,6.835672908094246,115.87138785029505,0.10005569964660116,0.11593592780383952,0.099609375,,
0.8391699999999255,1140,,,,-0.0625,0.021484375,-1.01953125,0.05455600958396959,0.6839480353746865,22.999947738191306,0.254907421327531,1196,0,5.862857368610325,6.8347053849631045,116.57635441646667,0.10006986356418912,0.11665779881266376,0.1015625,,
0.8473100000000559,1140,,,,-0.03125,0.041015625,-0.9609375,0.05455600958396959,0.6839480353746865,22.999950404505167,0.25284045444873265,1198,0,5.815317912573399,6.846863283127355,117.73841750463261,0.09989217063237288,0.1176114609135832,0.1015625,,
0.8563100000000559,1140,,,,0.0625,0.07421875,-0.98046875,0.05455600958396959,0.6839480353746865,22.9998800011442,0.2514852307908564,1204,0,5.784130130249751,6.878558044207954,118.92121873667021,0.09943189124508452,0.11824561688157502,0.1015625,,
0.8644000000003725,1140,,,,-0.09375,0.072265625,-0.994140625,0.05455600958396959,0.727471820404731,22.999787405649794,0.2560025500015563,1206,0,5.888004225340026,6.889335009846536,117.00628508717968,0.10559390991510745,0.12355151126997031,0.1015625,,
0.8732200000002049,1140,,,,0,-0.0078125,-0.89453125,0.05455600958396959,0.727471820404731,22.999799189430988,0.2603130923459318,1207,0,5.9871488503362364,6.893813974578447,115.14352067915085,0.10552530472788331,0.12150555107108728,0.1015625,,
0.881785000000149,1140,,,,-0.03125,0.078125,-1,0.05455600958396959,0.727471820404731,22.999810229615644,0.2573801585925763,1207,0,5.919694804497633,6.895411724400287,116.48255445806647,0.1055008532457141,0.12289008883566371,0.1015625,,
0.8925849999999628,1140,,,,-0.0625,0.046875,-1.044921875,0.05455600958396959,0.727471820404731,22.999820189991674,0.25540804760524993,1212,0,5.874339169997582,6.923796365048979,117.86511069043071,0.1050683443084746,0.12383892031978645,0.1015625,,
0.9088199999998323,1140,,,,-0.03125,0.060546875,-0.95703125,0.05455600958396959,0.727471820404731,23.000257591139967,0.24833014302505732,1215,0,5.711657257220948,6.938581907920627,121.48106224596272,0.10484445237639946,0.12736615445281257,0.1015625,,
0.9172949999999255,1140,,,,-0.03125,0.0234375,-0.94921875,0.05455600958396959,0.727471820404731,23.000389743235647,0.24484368597613246,1214,0,5.631500203621447,6.936371182952542,123.17093016336878,0.1048778678673702,0.12917904538774871,0.1015625,,
0.9255299999997951,1140,,,,-0.0625,-0.015625,-1.00390625,0.05455600958396959,0.727471820404731,23.00063403704732,0.24273030404191845,1213,0,5.582950892969394,6.928616179232855,124.10311879973825,0.10499525469244245,0.1303023856650496,0.1015625,,
0.9341699999999254,1140,,,,0,0.0546875,-0.931640625,0.05455600958396959,0.727471820404731,23.000820735023197,0.24071780584785638,1212,0,5.536707100034663,6.925395539489854,125.08148642080951,0.1050440825013612,0.13139069978980406,0.1015625,,
0.942660000000149,1140,,,,-0.0625,0.060546875,-0.955078125,0.050213855049453665,0.727471820404731,23.000586053933215,0.2402106802786946,1212,0,5.524986422823954,6.373211032927791,115.3525193582338,0.11414525843349292,0.13166943133100092,0.1015625,,
0.9498950000000186,1140,,,,-0.0625,0.0390625,-0.986328125,0.050213855049453665,0.727471820404731,23.000655277310393,0.23792376991772038,1212,0,5.472402614155599,6.372818260433628,116.45375367574202,0.11415229348706257,0.13293463067263395,0.1015625,,
0.9571400000001303,1140,,,,-0.0625,0.03125,-0.9609375,0.050213855049453665,0.727471820404731,23.00053981259755,0.238252792565861,1207,0,5.4799428408736315,6.346330914824316,115.81016625736487,0.11462872487557159,0.13275171685709683,0.1015625,,
0.9655750000001863,1140,,,,-0.0625,0.12109375,-1.05859375,0.050213855049453665,0.727471820404731,23.00064331377506,0.2375495821283707,1205,0,5.463793207870969,6.334103175669337,115.92867692255678,0.11485001115850275,0.13314409838146107,0.1015625,,
0.9743700000001118,1140,,,,-0.0625,0.02734375,-0.916015625,0.050213855049453665,0.727471820404731,23.000607811388484,0.23558578094186725,1204,0,5.418616153383568,6.328918391629102,116.79953354284211,0.11494409872102575,0.13425417114118204,0.1015625,,
0.9824849999998696,1140,,,,-0.09375,0.087890625,-0.974609375,0.050213855049453665,0.727471820404731,23.000578002572368,0.2360716208764748,1203,0,5.42978373016305,6.327182270945426,116.52733488807718,0.1149756383256571,0.13397804711144287,0.1015625,,
0.9905950000002048,1140,,,,0,0.009765625,-0.974609375,0.050213855049453665,0.727471820404731,23.00061447748321,0.2368410270608051,1203,0,5.447489155876746,6.324233071021885,116.09445911790954,0.11502925528441733,0.1335425917498037,0.103515625,,
0.9985100000002421,1140,,,,-0.125,0.171875,-1,0.050213855049453665,0.727471820404731,23.000580952794103,0.236364350584536,1202,0,5.436517379974227,6.318132469157036,116.21654135477057,0.11514032413153727,0.13381210241034489,0.103515625,,
1.0054050000002608,1140,,,,-0.03125,0.05078125,-0.919921875,0.050213855049453665,0.7454658469609119,23.00089774129415,0.23717094595499158,1201,0,5.455144675116762,6.316212659718169,115.78451234353334,0.11802418428928814,0.13665372622678534,0.103515625,,
1.0147200000002048,1140,,,,-0.125,0.1171875,-0.9609375,0.050213855049453665,0.7454658469609119,23.000748858137943,0.23592551731943437,1201,0,5.426463573090584,6.315278603741735,116.3792683518363,0.11804164055711358,0.13737599763087321,0.103515625,,
1.023239999999758,1140,,,,-0.0625,0.068359375,-0.978515625,0.050213855049453665,0.7454658469609119,23.000780091222964,0.23793696051316557,1201,0,5.472735704337323,6.314917385015788,115.38867809770181,0.11804839264085609,0.13621447978386855,0.103515625,,
1.0312700000004842,1140,,,,0.03125,-0.01953125,-0.97265625,0.050213855049453665,0.7454658469609119,23.00084049020883,0.23814951522886155,1199,0,5.477639012599603,6.3053479667696575,115.11068824115951,0.11822755078540534,0.13609254739974647,0.103515625,,
1.0394900000002236,1140,,,,-0.0625,0.064453125,-0.990234375,0.050213855049453665,0.7454658469609119,23.00073446857846,0.23935442165375545,1198,0,5.505327496338196,6.301619403382141,114.4640243032515,0.11829750406075193,0.13540808379823904,0.1015625,,
1.0494550000000744,1140,,,,0,0.00390625,-0.8828125,0.050213855049453665,0.7454658469609119,23.000763945362035,0.23752572652292106,1198,0,5.463273166704326,6.300138351580639,115.3180183260202,0.11832531372487755,0.13645040696557517,0.1015625,,
1.057279999999795,1140,,,,-0.0625,0.052734375,-1.03515625,0.050213855049453665,0.7454658469609119,23.000879043739488,0.2401057036521589,1198,0,5.522642247415265,6.29949195056981,114.06663094134205,0.11833745527581507,0.1349835483748397,0.103515625,,
1.0650450000003913,1140,,,,-0.0625,0.0234375,-0.998046875,0.050213855049453665,0.7454658469609119,23.00063788243553,0.2439119377999668,1198,0,5.610130156540175,6.297586341184074,112.25383663946684,0.11837326343361403,0.13287852975957484,0.103515625,,
1.0721550000002609,1140,,,,0.0625,0.0390625,-0.8671875,0.050213855049453665,0.7454658469609119,23.000438165919306,0.24612885376928814,1197,0,5.661071481969107,6.2968945174868605,111.23149632614412,0.11838626880134451,0.13168281823242664,0.103515625,,
1.0808950000000186,1140,,,,-0.0625,0.08203125,-1.015625,0.050213855049453665,0.7454658469609119,23.000616436871983,0.24349139917069643,1197,0,5.600452278002478,6.296566189569145,112.4296017002211,0.11839244193062662,0.13310815090576905,0.103515625,,
1.0892999999998136,1140,,,,-0.0625,0.1171875,-0.9296875,0.04843302792493839,0.7454658469609119,23.00065551425563,0.24265577702818494,1197,0,5.581241935969307,6.073131181361649,108.81325789198053,0.12274818782916064,0.13356630218027724,0.103515625,,
1.0992100000004283,1140,,,,-0.03125,0.017578125,-0.982421875,0.04843302792493839,0.7454658469609119,23.00082071549622,0.24086833210085204,1197,0,5.540169322692301,6.073087034231433,109.6191592801383,0.12274908012334337,0.13455650965531235,0.103515625,,
1.1080300000002608,1140,,,,-0.0625,0.09765625,-0.986328125,0.04843302792493839,0.7454658469609119,23.000898684997033,0.23988454438354226,1202,0,5.5175601014625295,6.095866874702062,110.48120478264009,0.12229037514821825,0.13510787979696182,0.103515625,,
1.1150400000000373,1140,,,,-0.0625,0.103515625,-1.005859375,0.04843302792493839,0.7454658469609119,23.000859726356538,0.24337830395661178,1203,0,5.597910229744592,6.101495047749491,108.99594308120722,0.12217757141929889,0.1331685962021803,0.103515625,,
1.1236200000001118,1140,,,,0,0.03515625,-0.9765625,0.04843302792493839,0.7454658469609119,23.00055435610821,0.24958603498493606,1204,0,5.740617164196547,6.104117499297307,106.332077626912,0.1221250814793012,0.1298581364405001,0.103515625,,
1.1326450000000186,1140,,,,-0.0625,0.00390625,-0.984375,0.04843302792493839,0.7454658469609119,23.00042015885709,0.25621451581691423,1204,0,5.893041514587162,6.108490564856399,103.6559907093125,0.12203765219017519,0.1264993374161111,0.103515625,,
1.141339999999851,1140,,,,-0.09375,0.078125,-0.947265625,0.04843302792493839,0.7454658469609119,23.000551632959954,0.25203760743169074,1206,0,5.7970040031802945,6.117168427863923,105.52292916320194,0.12186452862165574,0.12859502021249974,0.103515625,,
1.1498000000002795,1140,,,,-0.0625,0.060546875,-0.982421875,0.04843302792493839,0.7454658469609119,23.00059050292013,0.24956117069863207,1207,0,5.740054292668586,6.119887015204819,106.61723222760054,0.12181039373910121,0.12987087037017211,0.103515625,,
1.1587099999999628,1140,,,,0,0.01953125,-0.97265625,0.04843302792493839,0.7582345493901007,23.000559024355006,0.24771768575720113,1207,0,5.69764525263513,6.120992207069456,107.43020907169554,0.12387445102680832,0.13307858172451528,0.1015625,,
1.1675500000002794,1140,,,,-0.03125,0.044921875,-0.99609375,0.04843302792493839,0.7582345493901007,23.00063812027369,0.2458123181313102,1208,0,5.6538401748438565,6.127913407100443,108.38497760099276,0.12373454045736526,0.13410965395940663,0.1015625,,
1.1753050000001677,1140,,,,-0.09375,0.02734375,-0.994140625,0.04843302792493839,0.7582345493901007,23.00067220026,0.24494781984919448,1211,0,5.633964510519662,6.142545877584881,109.02706018320853,0.12343978612467807,0.13458276990817664,0.1015625,,
1.1834150000005028,1140,,,,0,-0.01953125,-0.982421875,0.04843302792493839,0.7582345493901007,23.00073705526935,0.24370497391253307,1212,0,5.605394024023449,6.1483298031135805,109.68595208050016,0.12332366246946,0.13526873332016967,0.1015625,,
1.1916250000004656,1140,,,,-0.125,0.046875,-0.90625,0.04843302792493839,0.7582345493901007,23.00076667289458,0.24228980369594458,1213,0,5.572851242031852,6.150639506032916,110.36791112677184,0.12327735167154225,0.13605863793228573,0.1015625,,
1.2016450000000187,1140,,,,-0.0625,0.087890625,-1.009765625,0.04843302792493839,0.7582345493901007,23.00072948633097,0.23991151786770856,1213,0,5.518139923130224,6.15153578665272,111.47843063688016,0.12325939012421554,0.13740763372306514,0.1015625,,
1.2086800000001676,1140,,,,-0.0625,0.017578125,-1.015625,0.04843302792493839,0.7582345493901007,23.00076607261115,0.23919989262550553,1207,0,5.501780774872958,6.124108541401183,111.31138793043958,0.12381141585982051,0.13781620540989462,0.1015625,,
1.2185250000003724,1140,,,,-0.03125,0.017578125,-0.958984375,0.04843302792493839,0.7582345493901007,23.0009428592084,0.23705480889110644,1206,0,5.452484113804907,6.115481039458948,112.1595388783514,0.1239860845774421,0.13906222073538183,0.1015625,,
1.2271450000000186,1140,,,,-0.0625,0.12109375,-0.9140625,0.04843302792493839,0.7582345493901007,23.000962764965383,0.23616098808149164,1205,0,5.4319300933998225,6.112483856716061,112.5287651279452,0.1240468796587486,0.13958842185973805,0.1015625,,
1.2344900000002235,1140,,,,-0.03125,0.095703125,-1.0234375,0.04843302792493839,0.7582345493901007,23.000852082719096,0.23577389488024567,1205,0,5.423000481107092,6.111364488310387,112.69341593461868,0.12406960030618797,0.13981827072147135,0.1015625,,
1.2427999999998138,1140,,,,-0.0625,-0.01171875,-0.986328125,0.04843133747954541,0.7582345493901007,23.001109032417183,0.2349592240943693,1203,0,5.404322731566731,6.103162509731869,112.93112593152892,0.12423633619144975,0.14030149327708374,0.1015625,,
1.2514050000002608,1140,,,,0.0625,0.03515625,-0.91015625,0.04843133747954541,0.7582345493901007,23.001046800499612,0.23457561465671994,1202,0,5.395484690975178,6.0958651482951245,112.98086265523924,0.12438505953534122,0.1405313132772614,0.1015625,,
1.2594900000002236,1140,,,,-0.03125,0.017578125,-0.916015625,0.04843133747954541,0.7582345493901007,23.00109222460339,0.23432093935587922,1201,0,5.389637536280276,6.093510474183703,113.05974535699879,0.12443312481409577,0.14068377405457316,0.1015625,,
1.2675050000003538,1140,,,,-0.0625,0.09375,-1.041015625,0.04843133747954541,0.7582345493901007,23.001169193270886,0.23454826766844936,1201,0,5.394884388630591,6.092544153518521,112.93187610022204,0.12445286078923379,0.14054695054967933,0.1015625,,
1.2747099999999627,1140,,,,-0.0625,0.05078125,-0.99609375,0.04843133747954541,0.7582345493901007,23.001241735244417,0.23539228901936357,1201,0,5.414314942346901,6.0897037892160375,112.47413299855774,0.1245109081878205,0.14004256447288133,0.1015625,,
1.2828350000004285,1140,,,,-0.0625,0.01953125,-0.99609375,0.04843133747954541,0.7582345493901007,23.001081934462846,0.23637188988622435,1200,0,5.436809206276876,6.086073156426522,111.94200358180791,0.12458518488057463,0.13946315212141486,0.1015625,,
1.289820000000298,1140,,,,0,0.0390625,-0.9296875,0.04843133747954541,0.7582345493901007,23.00112149328147,0.23774171626831106,1200,0,5.4683260999086745,6.084752922407597,111.27267853519595,0.12461221664364387,0.13865935124146378,0.099609375,,
1.2981400000001304,1140,,,,-0.03125,0.08203125,-0.9921875,0.04843133747954541,0.7582345493901007,23.001198326628746,0.23769552079936487,1200,0,5.4672818152575,6.084126389665305,111.28247262993436,0.12462504899274653,0.13868583603539544,0.099609375,,
1.306445000000298,1140,,,,-0.09375,0.08984375,-1.0234375,0.04843133747954541,0.7587901036084252,23.00113943648782,0.23679746661271558,1200,0,5.44661154776614,6.083882946918463,111.70032769114391,0.1247213515165933,0.1393141583448582,0.099609375,,
1.3143900000001303,1140,,,,0,0.06640625,-0.98046875,0.04843133747954541,0.7587901036084252,23.001182006133106,0.2362631019880904,1198,0,5.4343306101616555,6.078417976676329,111.8521932638823,0.12483348570631377,0.13962899169026696,0.099609375,,
1.3226699999999254,1140,,,,-0.0625,0.02734375,-0.943359375,0.04843133747954541,0.7587901036084252,23.001189493593508,0.23544107579247212,1198,0,5.4154247988781625,6.0762813529014545,112.20322649776602,0.12487738133555965,0.14011645102441697,0.099609375,,
1.334564999999944,1140,,,,-0.03125,0.0703125,-0.9296875,0.04843133747954541,0.7587901036084252,23.001251267048588,0.23768905056788345,1198,0,5.467145575538105,6.0752558472421825,111.12299395181597,0.12489846068834655,0.13879090891662257,0.099609375,,
1.3424300000001677,1140,,,,-0.03125,-0.0078125,-0.912109375,0.04843133747954541,0.7587901036084252,23.001103633939238,0.2374522038306878,1198,0,5.461662748416914,6.075039778013599,111.23059144899554,0.1249029029167168,0.13893023765122878,0.099609375,,
1.3540300000002607,1140,,,,-0.0625,0.04296875,-1.056640625,0.04843133747954541,0.7587901036084252,23.001246978219765,0.23892323507658977,1197,0,5.495532338831901,6.07164437744728,110.48327992803392,0.12497275143895133,0.13807399480606264,0.099609375,,
1.3616650000005028,1140,,,,-0.09375,-0.005859375,-0.984375,0.04843133747954541,0.7587901036084252,23.001163207391876,0.2425409519154472,1197,0,5.578724019483386,6.070109191365076,108.80820005014687,0.12500435818977168,0.1360149921305289,0.099609375,,
1.369910000000149,1140,,,,0.0625,0.01953125,-0.89453125,0.04843133747954541,0.7587901036084252,23.000837639134772,0.2464954973161861,1197,0,5.6696029125473775,6.069708776050599,107.05703502828653,0.12501260465780537,0.13383478795828005,0.099609375,,
1.3782000000001862,1140,,,,-0.09375,0.09375,-1.060546875,0.04843133747954541,0.7587901036084252,23.00089258418193,0.248904432383847,1197,0,5.725024112987639,6.069558677359216,106.01804564613056,0.12501569618873257,0.13253919785019838,0.099609375,,
1.386410000000149,1140,,,,-0.09375,0.017578125,-0.955078125,0.04843133747954541,0.7587901036084252,23.000844103625692,0.24765559322984845,1199,0,5.696287691270682,6.08196212379012,106.77062770390737,0.12476074137988334,0.13320782669934994,0.1015625,,
1.3950750000001864,1140,,,,0.125,-0.04296875,-0.9453125,0.05276397337207111,0.7587901036084252,23.00086894737443,0.24633837983733972,1201,0,5.665996791347194,6.637301887409583,117.14270466135304,0.11432207190210644,0.13391996705102424,0.1015625,,
1.4027800000002608,1140,,,,-0.0625,0.0703125,-0.982421875,0.05276397337207111,0.7587901036084252,23.000923331335436,0.24567321516835774,1202,0,5.6507107866500705,6.641512747553908,117.534112049136,0.11424958928037746,0.1342822402804765,0.1015625,,
1.4105649999999441,1140,,,,-0.09375,0.103515625,-0.94921875,0.05276397337207111,0.7587901036084252,23.000943490925923,0.24311470237984026,1202,0,5.59186753125198,6.643221059004884,118.80147413859629,0.11422020987543166,0.13569529309621134,0.1015625,,
1.4185300000002607,1140,,,,0.0625,0.0234375,-0.99609375,0.05276397337207111,0.7587901036084252,23.00089728485132,0.24099498505640551,1203,0,5.543100897446662,6.644800749577519,119.87515422348413,0.11419305592521635,0.1368891019028626,0.1015625,,
1.4256200000001118,1140,,,,-0.0625,0.04296875,-0.9765625,0.05276397337207111,0.7587901036084252,23.000858440826637,0.24100179347569903,1203,0,5.54324813571989,6.6470708301276105,119.91292230443098,0.11415405717797322,0.13688546589117875,0.1015625,,
1.433135000000242,1140,,,,-0.03125,0.01953125,-0.923828125,0.05276397337207111,0.7587901036084252,23.001012309689898,0.24138096659261474,1203,0,5.552006583921577,6.648124788900007,119.74273964574809,0.11413595979355466,0.13666952517777187,0.1015625,,
1.4403100000005216,1140,,,,-0.0625,0.1171875,-1.0625,0.05276397337207111,0.7587901036084252,23.00105456206104,0.24044603776209414,1203,0,5.530512433797316,6.648510718160935,120.2150939491874,0.11412933448926084,0.13720068667984728,0.1015625,,
1.4478000000002793,1140,,,,-0.125,0.1015625,-0.9296875,0.05276397337207111,0.7587901036084252,23.001066802392433,0.23799872729545893,1203,0,5.47422462540723,6.648683338088572,121.45433907169956,0.11412637134656642,0.13861143002548573,0.1015625,,
1.455540000000503,1140,,,,-0.03125,-0.001953125,-1.009765625,0.05276397337207111,0.7546749366567141,23.000918282677002,0.2374151915673632,1202,0,5.460767420307027,6.642713948788803,121.64433013730735,0.11360942868754985,0.13819942849979192,0.1015625,,
1.4637799999997951,1140,,,,-0.125,0.046875,-0.9453125,0.05276397337207111,0.7546749366567141,23.00097136926855,0.23462352450406315,1201,0,5.396568969674835,6.634244696395738,122.93449289123934,0.11375446206660346,0.13984347108273618,0.1015625,,
1.4717650000001303,1140,,,,-0.03125,0.064453125,-0.94921875,0.05276397337207111,0.7546749366567141,23.001120071811883,0.23451797670848848,1200,0,5.394176141270326,6.630895433406121,122.92693563848933,0.11381191940604271,0.1399055049171955,0.1015625,,
1.479445000000298,1140,,,,-0.0625,0.0703125,-1,0.05276397337207111,0.7546749366567141,23.00099924184738,0.23431016880219452,1200,0,5.389368014976408,6.629570777751096,123.01202588741968,0.11383466018485097,0.1400303216554451,0.1015625,,
1.4873100000005215,1140,,,,-0.0625,0.015625,-0.89453125,0.05276397337207111,0.7546749366567141,23.001081144862056,0.23390094910671533,1200,0,5.379974710263809,6.629051786287649,123.21715515950056,0.11384357235189763,0.140274811183956,0.1015625,,
1.4947100000004283,1140,,,,0,-0.0390625,-0.9453125,0.05276397337207111,0.7546749366567141,23.001120820684125,0.23524084706047746,1198,0,5.410803145198118,6.621771413947133,122.3805641464466,0.11396873879807705,0.13947558549167685,0.1015625,,
1.504029999999795,1140,,,,-0.03125,0.046875,-0.96875,0.05276397337207111,0.7546749366567141,23.001262189238812,0.23542442472633854,1198,0,5.415058918881229,6.6183468749242955,122.22114244865263,0.11402770977689902,0.13936596959735995,0.1015625,,
1.5142199999997392,1140,,,,0,0.09765625,-0.8984375,0.05276397337207111,0.7546749366567141,23.001381344830694,0.2362253396250056,1198,0,5.433509120026899,6.616773681539298,121.77717080019444,0.11405482082034121,0.13889273395624266,0.1015625,,
1.5227050000000746,1140,,,,-0.103515625,0.0625,-0.982421875,0.05276397337207111,0.7546749366567141,23.00116676995747,0.2374073686829846,1197,0,5.460646479494107,6.616361240186541,121.16443108031969,0.11406193060816565,0.13820248930061296,0.1015625,,
1.5314050000002608,1140,,,,0,-0.03515625,-1.01171875,0.05276397337207111,0.7546749366567141,23.001175133038142,0.2386705007040841,1198,0,5.489701985784541,6.6171153613481355,120.53687756608657,0.11404893151250135,0.13747102094265368,0.1015625,,
1.5395099999997766,1140,,,,-0.0625,0.046875,-0.943359375,0.05276397337207111,0.7546749366567141,23.001220424935514,0.23904404130632798,1198,0,5.49830468535424,6.617424917063572,120.35391444730806,0.11404359643140385,0.13725593248168505,0.1015625,,
1.5601200000001119,1140,,,,-0.0625,0.068359375,-1.03125,0.05147240971640382,0.7546749366567141,23.001258076365566,0.23791666595696861,1198,0,5.472382634344693,6.455833845123887,117.97117044789687,0.11689813504520763,0.13790609814459456,0.1015625,,
1.567345000000205,1140,,,,-0.03125,0.015625,-1.001953125,0.05147240971640382,0.7546749366567141,23.001117660032794,0.2371199910468995,1198,0,5.454024813615658,6.456522738640337,118.38088309613116,0.11688566233031486,0.13837027927938864,0.1015625,,
1.575785000000149,1140,,,,0,0.08203125,-0.9296875,0.05147240971640382,0.7546749366567141,23.000928895555102,0.23688798705465894,1198,0,5.448643746455388,6.45684856029463,118.50377563214936,0.11687976411549567,0.13850693342681242,0.1015625,,
1.5841250000004656,1140,,,,0,0.0390625,-0.974609375,0.05147240971640382,0.7546749366567141,23.000684828785882,0.23828126854120982,1198,0,5.480632358319659,6.456974889493427,117.81441387309384,0.11687747739033272,0.1376985149370783,0.1015625,,
1.5929150000000372,1140,,,,-0.09375,0.07421875,-0.978515625,0.05147240971640382,0.7546749366567141,23.000647349531114,0.23998234674008148,1198,0,5.519749327481512,6.457026858249707,116.980436522755,0.1168765367132579,0.13672268283984712,0.1015625,,
1.600595000000205,1140,,,,0,-0.0234375,-0.9453125,0.05147240971640382,0.7546749366567141,23.000680855024218,0.23898276556172995,1201,0,5.496766320536423,6.47190596011788,117.74024185707597,0.11660783412294336,0.13729434592065146,0.1015625,,
1.6099499999997207,1140,,,,-0.0625,0.072265625,-0.984375,0.05147240971640382,0.7529275802178297,23.000642992902065,0.23934577076178307,1202,0,5.50510662515275,6.47823075922382,117.67675360954645,0.11622426063563698,0.13676893682271563,0.1015625,,
1.617845000000205,1140,,,,-0.0625,0.06640625,-1,0.05147240971640382,0.7529275802178297,23.00074175135918,0.23932804050686715,1202,0,5.50472245355728,6.480321383705152,117.7229449509742,0.11618676538343843,0.13677848185266278,0.1015625,,
1.6258900000001304,1140,,,,-0.0625,0.03125,-0.96875,0.05147240971640382,0.7529275802178297,23.00090172187967,0.2383520032853552,1202,0,5.482311002779595,6.481154140163464,118.21938114925337,0.11617183667210848,0.13733762638348804,0.099609375,,
1.6337450000001117,1140,,,,-0.0625,0.0234375,-1.0390625,0.05147240971640382,0.7529275802178297,23.001052361086224,0.23785562509556088,1203,0,5.47092968720189,6.482795017024909,118.49530861619495,0.11614243212079287,0.13762333337588825,0.099609375,,
1.641910000000149,1140,,,,-0.03125,0.041015625,-0.935546875,0.05147240971640382,0.7529275802178297,23.001099961757923,0.23726020892057412,1203,0,5.457245782329694,6.483458772043566,118.80459540665554,0.11613054184356435,0.13796842038080342,0.099609375,,
1.6491699999999254,1140,,,,0,0.0625,-0.984375,0.05147240971640382,0.7529275802178297,23.001175614795798,0.23755243007166857,1203,0,5.463985161799947,6.483710966382665,118.66267521573575,0.11612602475984465,0.13779824760171935,0.099609375,,
1.668345000000205,1140,,,,-0.03125,0.033203125,-0.931640625,0.05147240971640382,0.7529275802178297,23.001164780782037,0.23717272044729934,1202,0,5.455248824514685,6.481292086428825,118.80836777423107,0.11616936409861615,0.13801892533926943,0.099609375,,
1.677595000000205,1140,,,,-0.03125,0.05078125,-0.958984375,0.05147240971640382,0.7529275802178297,23.00110082862894,0.23548200988219045,1201,0,5.416345452628459,6.4754925320058305,119.55464415334487,0.11627340723449263,0.13901025826416719,0.099609375,,
1.686685000000056,1140,,,,-0.0625,0.078125,-0.98046875,0.05147240971640382,0.7529275802178297,23.00103311772812,0.23543022129404093,1201,0,5.415138316898296,6.473301309957075,119.54083037466859,0.11631276595447437,0.1390412462537235,0.09765625,,
1.694875,1140,,,,-0.0625,0.03125,-0.84765625,0.05097546363157796,0.7529275802178297,23.001047830757138,0.23359573601395126,1201,0,5.37294669711781,6.410177678495342,119.30469516725206,0.1174581451530941,0.14013308202400737,0.09765625,,
1.703035000000149,1140,,,,-0.03125,0.021484375,-0.99609375,0.05097546363157796,0.7529275802178297,23.000898046430255,0.23225938122017295,1201,0,5.3421743477721755,6.408911893598857,119.96822784848904,0.11748134359123341,0.14094028595899719,0.09765625,,
1.7110400000000372,1140,,,,-0.0625,0.0546875,-1.00390625,0.05097546363157796,0.7529275802178297,23.000725134407844,0.23100650467837988,1200,0,5.313317118367715,6.406401024647486,120.57253278749475,0.11752738820455902,0.14170574867722818,0.09765625,,
1.7189599999999627,1140,,,,0.0625,0.01953125,-0.9140625,0.05097546363157796,0.7529275802178297,23.000820936810722,0.23139930156510438,1200,0,5.322373900202031,6.4053934532968375,120.34843048237735,0.1175458753170424,0.1414646160408327,0.09765625,,
1.726660000000149,1140,,,,-0.09375,0.0625,-1.029296875,0.05097546363157796,0.7529275802178297,23.00058451844224,0.23257010508508483,1200,0,5.349248358472487,6.404998116059576,119.73641317129957,0.11755313062934027,0.14075390218614436,0.09765625,,
1.7348000000002795,1140,,,,-0.125,0.1015625,-0.93359375,0.05097546363157796,0.7529275802178297,23.00049075253112,0.23267132266776666,1200,0,5.351554605399151,6.4048425898189985,119.68190669973153,0.1175559851251719,0.1406932444374585,0.09765625,,
1.7437050000000744,1140,,,,0.03125,-0.021484375,-0.97265625,0.05097546363157796,0.7529275802178297,23.00046381051874,0.23517198904925754,1199,0,5.409064823375157,6.402935113470415,118.37416120066204,0.11759100582384946,0.13919736679140346,0.099609375,,
1.7519650000003166,1140,,,,-0.03125,0.05078125,-0.984375,0.05097546363157796,0.7529275802178297,23.00053992596618,0.23503833381152986,1199,0,5.406008580964659,6.402289118363178,118.42913348133717,0.11760287083228829,0.13927606087585523,0.09765625,,
1.7599200000003912,1140,,,,-0.09375,0.068359375,-0.94921875,0.05097546363157796,0.7586240386156855,23.00051390957959,0.2345996604481699,1199,0,5.39591275332078,6.402039347448523,118.64608714269049,0.11849724711829966,0.1405923470776671,0.09765625,,
1.7690049999998883,1140,,,,0.0625,0.01953125,-1.05859375,0.05097546363157796,0.7586240386156855,23.00061966457463,0.23321812464619815,1199,0,5.364161383872562,6.4019388450084005,119.34649960860486,0.11849910737700745,0.14142453672190045,0.099609375,,
1.7765299999997952,1140,,,,-0.0625,0.03515625,-0.939453125,0.05097546363157796,0.7586240386156855,23.000584958509503,0.23378607114675812,1200,0,5.377216391527157,6.403755904607985,119.09053752603931,0.11846548336887705,0.14108118092681635,0.099609375,,
1.784850000000093,1140,,,,-0.03125,0.025390625,-0.90234375,0.05097546363157796,0.7586240386156855,23.000653049437616,0.2324730388213866,1200,0,5.347031709279155,6.404345411111231,119.77384386924861,0.11845457887070071,0.14187760235256905,0.09765625,,
1.7929150000000373,1140,,,,-0.0625,0.03125,-1.0078125,0.05097546363157796,0.7586240386156855,23.000686277263224,0.23183865507363788,1200,0,5.332448172291385,6.4045839469602015,120.10588270205564,0.11845016708317956,0.14226561873731258,0.09765625,,
1.8007099999999627,1140,,,,-0.09375,0.056640625,-0.966796875,0.05097546363157796,0.7586240386156855,23.000751114299913,0.22930461686501372,1200,0,5.274178421872079,6.404679115571692,121.4346312026801,0.11844840700469184,0.14383738621159703,0.09765625,,
1.8079000000003724,1140,,,,0,0.0078125,-1.05078125,0.05097546363157796,0.7586240386156855,23.000718634075028,0.22906541260246954,1199,0,5.268669104067706,6.402015305756995,121.51105296808797,0.1184976921147775,0.14398779343154905,0.09765625,,
1.8239449999998323,1140,,,,-0.03125,0.037109375,-1.0078125,0.05097546363157796,0.7586240386156855,23.00080574346302,0.22929646555853092,1198,0,5.274003461974428,6.393863625738497,121.23358795340697,0.1186487674779056,0.14384215787596005,0.09765625,,
1.8338900000001304,1140,,,,-0.01953125,0.0703125,-0.96875,0.05097546363157796,0.7586240386156855,23.00079447983612,0.22973813638537416,1197,0,5.284159659180552,6.3912739985607665,120.95156866535524,0.1186968417856155,0.1435656920959368,0.09765625,,
1.8415550000001677,1140,,,,-0.09375,0.07421875,-0.978515625,0.049913360760454814,0.7586240386156855,23.00089964184657,0.23086526540498845,1197,0,5.310108800368412,6.257572073228639,117.84263389847101,0.1212329685919651,0.14286412334207776,0.09765625,,
1.8556000000000932,1140,,,,-0.03125,0.03515625,-0.978515625,0.049913360760454814,0.7586240386156855,23.000991868800277,0.23099955030730657,1196,0,5.313218778314879,6.252595902519955,117.68000083186871,0.12132945266940098,0.14278050091065286,0.099609375,,
1.8640500000002793,1140,,,,-0.01953125,0.0390625,-0.970703125,0.049913360760454814,0.7586240386156855,23.000982583271565,0.2322234059203607,1196,0,5.341366515002219,6.25162544367741,117.04168635720016,0.12134828700956818,0.14202808148157386,0.09765625,,
1.871980000000447,1140,,,,0,0.0078125,-1.05859375,0.049913360760454814,0.7586240386156855,23.000934394565967,0.23372558480752922,1196,0,5.3759068424895435,6.2512435458145035,116.28258690062417,0.1213557003587901,0.14111554772857116,0.09765625,,
1.8795250000003725,1140,,,,-0.09375,0.06640625,-0.9921875,0.049913360760454814,0.7586240386156855,23.001083812470288,0.23509166605759976,1196,0,5.407363114604128,6.24969187247468,115.57744024246499,0.12138583054900182,0.14029463576559242,0.09765625,,
1.8875300000002608,1140,,,,-0.03125,-0.00390625,-0.9375,0.049913360760454814,0.7586240386156855,23.001128658632766,0.2346457786905398,1195,0,5.3971177448661765,6.246268409272747,115.73341002638485,0.12145235985848582,0.14056095762174184,0.09765625,,
1.8950300000002607,1140,,,,0,0.06640625,-1.05859375,0.049913360760454814,0.7586240386156855,23.00113760753916,0.23379123151628844,1195,0,5.377464287542197,6.244993365242133,116.1326794807306,0.12147715685944076,0.1410746772178787,0.09765625,,
1.9031100000003354,1140,,,,-0.03125,0.060546875,-0.935546875,0.049913360760454814,0.7586240386156855,23.00098509545415,0.23341072030569152,1195,0,5.368676498870428,6.244409971032537,116.3119061531527,0.12148850606140521,0.14130559715700886,0.09765625,,
1.9111099999998695,1140,,,,0,0.0625,-0.984375,0.049913360760454814,0.7609978052531309,23.000936994510806,0.23400178853218734,1195,0,5.3822603946316825,6.244177271645292,116.01403153725698,0.12187319035748867,0.14139000149679812,0.09765625,,
1.9191899999999442,1140,,,,-0.09375,0.087890625,-0.998046875,0.049913360760454814,0.7609978052531309,23.000889628874656,0.23227436703232518,1195,0,5.342517079727234,6.247735060461935,116.94366096029248,0.12180378935544452,0.14244181046061985,0.09765625,,
1.9269000000003724,1140,,,,-0.03125,0.037109375,-0.962890625,0.049913360760454814,0.7609978052531309,23.000846689795676,0.23196964254143154,1196,0,5.335498184782172,6.252626653757278,117.18918153867854,0.12170849906668235,0.14262919391925527,0.09765625,,
1.9351049999999814,1140,,,,-0.0625,0.03125,-0.94921875,0.049913360760454814,0.7609978052531309,23.000935470815897,0.23273316488570295,1197,0,5.35308050745481,6.254590522214111,116.84095752910572,0.12167028401784795,0.14216072487483603,0.09765625,,
1.9441899999999441,1140,,,,-0.0625,0.0703125,-0.97265625,0.049913360760454814,0.7609978052531309,23.000810905295378,0.23414939894923864,1197,0,5.385626048820006,6.255419319220891,116.15027227134453,0.12165416360096427,0.1413016422519469,0.095703125,,
1.9534300000001676,1140,,,,-0.09375,0.076171875,-0.970703125,0.049913360760454814,0.7609978052531309,23.000839377961302,0.23311590232058718,1197,0,5.361861425724342,6.255714791289768,116.67057938642407,0.12164841758973999,0.14192791361636625,0.09765625,,
1.9606000000000932,1140,,,,-0.125,0.0546875,-1.02734375,0.049913360760454814,0.7609978052531309,23.000928804451924,0.23159798025613812,1197,0,5.326968655126295,6.2570842279394885,117.46050395693837,0.12162179339940482,0.1428575714484073,0.09765625,,
1.9692050000000745,1140,,,,-0.03125,0.037109375,-0.94921875,0.049913360760454814,0.7609978052531309,23.000981888894025,0.23324923521144245,1197,0,5.36496143469677,6.257628323576334,116.63883142023028,0.12161121848448303,0.1418459041162041,0.095703125,,
1.9800500000002794,1140,,,,-0.03125,0.068359375,-0.947265625,0.049913360760454814,0.7609978052531309,23.001130976616196,0.23288918675900544,1197,0,5.356714687681515,6.257841624542992,116.82238068295368,0.12160707331878284,0.1420642781298671,0.095703125,,
1.996535000000149,1140,,,,-0.0625,0.05078125,-0.92578125,0.04940201092376385,0.7609978052531309,23.001268555582932,0.23158787134952832,1196,0,5.326814823126291,6.188966948437016,116.18513415498701,0.12296039251676986,0.14286169700310766,0.095703125,,
2.0032349999998695,1140,,,,-0.0625,0.0390625,-0.982421875,0.04940201092376385,0.7609978052531309,23.001400317194893,0.23204834935879137,1196,0,5.337436976545855,6.186931202627774,115.9157706182729,0.12300085136390598,0.14257738472550804,0.095703125,,
2.0111100000003352,1140,,,,-0.0625,0.0625,-1.021484375,0.04940201092376385,0.7609978052531309,23.001514418898076,0.23278132686605824,1196,0,5.354323046359864,6.186158493262655,115.53577249075985,0.12301621532683547,0.14212773466675588,0.095703125,,
2.0200750000001864,1140,,,,0.0625,0.0234375,-0.9140625,0.04940201092376385,0.7609978052531309,23.00143159740736,0.23133837518444073,1196,0,5.321113812660274,6.185784204878078,116.24980074962004,0.12302365877118893,0.14301475819639958,0.095703125,,
2.0282700000000187,1140,,,,-0.09375,0.0703125,-1.033203125,0.04940201092376385,0.7609978052531309,23.001263765609703,0.23043826931071112,1195,0,5.30037141410627,6.184544078107067,116.68133409760084,0.12304832751488014,0.1435744301291474,0.095703125,,
2.0355300000002607,1140,,,,-0.09375,0.04296875,-0.95703125,0.04940201092376385,0.7609978052531309,23.00120282269647,0.23106050739203085,1195,0,5.314669594839259,6.183505005701712,116.34787253202201,0.12306900448069935,0.14318816845963256,0.095703125,,
2.043004999999888,1140,,,,0.0625,-0.05078125,-0.984375,0.04940201092376385,0.7609978052531309,23.001238244822193,0.23141105171828,1195,0,5.322740733057029,6.1831095881061,116.16401959437412,0.12307687489754264,0.14297104507212477,0.095703125,,
2.0513050000001676,1140,,,,-0.03125,0.05078125,-0.970703125,0.04940201092376385,0.7609978052531309,23.00157093534328,0.23290438710948957,1195,0,5.357166781251576,6.182930280671589,115.41418315199611,0.12308044417581099,0.14205228926536084,0.095703125,,
2.0593550000004472,1140,,,,0,0.05078125,-0.9140625,0.04940201092376385,0.7593073437852252,23.00162469168379,0.23267057617785833,1195,0,5.35180127004092,6.1839739571725305,115.54939440277923,0.12278631007243113,0.14187883769821286,0.095703125,,
2.067820000000298,1140,,,,-0.0625,0.10546875,-1.056640625,0.04940201092376385,0.7593073437852252,23.001645290422942,0.2344344616013733,1196,0,5.392378329606066,6.186761433087928,114.7315906808767,0.12273098809407958,0.14081121489869491,0.095703125,,
2.0759799999999813,1140,,,,-0.09375,0.0078125,-0.94921875,0.04940201092376385,0.7593073437852252,23.00182656767769,0.23796323417066426,1196,0,5.473589041877292,6.187715684432468,113.04677127003033,0.1227120608814573,0.1387220227854014,0.095703125,,
2.084070000000298,1140,,,,0,0.03125,-0.97265625,0.04940201092376385,0.7593073437852252,23.00154100423733,0.24609194630940015,1196,0,5.660493993848239,6.188090961438811,109.320687702592,0.12270461900396443,0.13414153333797932,0.095703125,,
2.0912500000004655,1140,,,,-0.0625,0.02734375,-0.958984375,0.04940201092376385,0.7593073437852252,23.001273408991086,0.2510969274646062,1196,0,5.77554908077101,6.188238086787206,107.14545059257125,0.12270170170188789,0.13146929117324047,0.095703125,,
2.0992299999999813,1140,,,,-0.09375,0.080078125,-0.931640625,0.04940201092376385,0.7593073437852252,23.00130498268338,0.2526863322877673,1200,0,5.812115393906611,6.209105602388987,106.83039102937595,0.12228932674185436,0.13064216594551423,0.095703125,,
2.106439999999944,1140,,,,-0.0625,0.03125,-1.05078125,0.04940201092376385,0.7593073437852252,23.00143724636816,0.24999533549125538,1202,0,5.750252021186865,6.218830331053367,108.14883083628368,0.12209809616346474,0.13204766347414845,0.095703125,,
2.1143549999999816,1140,,,,-0.03125,0.064453125,-1,0.04940201092376385,0.7593073437852252,23.001462864022592,0.24772672450576402,1203,0,5.698077054145287,6.222505593009218,109.20360560028605,0.12202598011937221,0.13325677005944273,0.095703125,,
2.1226500000003727,1140,,,,-0.09375,0.07421875,-0.955078125,0.04940201092376385,0.7593073437852252,23.00138586001337,0.24532127659582373,1203,0,5.642729342651609,6.224181284894373,110.30444501117131,0.12199312793604002,0.13456384272161712,0.095703125,,
2.1342000000001864,1140,,,,0,0.08984375,-1.0625,0.04940201092376385,0.7593073437852252,23.001420350950127,0.24642349008790113,1205,0,5.668090279860006,6.232539447557073,109.95836586623685,0.12182952874575802,0.1339617589513728,0.095703125,,
2.1428700000001117,1140,,,,0,0,-0.9453125,0.04858984377875006,0.7593073437852252,23.001526361930747,0.24396132470030688,1207,0,5.611482841385655,6.141435722712512,109.44407915530567,0.12363678105058129,0.13531313651807012,0.095703125,,
2.152980000000447,1140,,,,-0.125,0.11328125,-0.96484375,0.04858984377875006,0.7593073437852252,23.001344643724508,0.24202666723680274,1208,0,5.566938786085727,6.1444583305018385,110.37409546984047,0.12357596112515422,0.13639584931005067,0.095703125,,
2.1610849999999626,1140,,,,-0.03125,0.09375,-0.98046875,0.04858984377875006,0.7593073437852252,23.001440217935016,0.2412880027467034,1208,0,5.549971570483238,6.145667164142339,110.73330892048577,0.12355165411747296,0.1368128348302714,0.095703125,,
2.170385000000242,1140,,,,0,0.00390625,-1.0234375,0.04858984377875006,0.7593073437852252,23.001508886808278,0.23958523405840124,1205,0,5.510821890342357,6.130909042530986,111.25217189971832,0.12384906357569529,0.13778477310542395,0.09765625,,
2.1796750000002794,1140,,,,-0.03125,0.060546875,-0.970703125,0.04858984377875006,0.7593073437852252,23.00142529549024,0.23931086136810978,1204,0,5.5044909001579985,6.125701243447979,111.28551858033137,0.12395435454795917,0.13794324626159893,0.09765625,,
2.1881850000005216,1140,,,,-0.0625,0.03125,-0.87890625,0.04858984377875006,0.7593073437852252,23.001277029388405,0.2387099691883118,1204,0,5.4906341309771305,6.123879414953109,111.53319031773266,0.12399123044963471,0.13829137503468958,0.09765625,,
2.196185000000056,1140,,,,-0.0625,0.046875,-0.990234375,0.04858984377875006,0.7593073437852252,23.001148858582226,0.24383816755902224,1203,0,5.608557989428986,6.123243137853458,109.17678214961049,0.12400411459921307,0.1353837020525362,0.09765625,,
2.2040100000002423,1140,,,,-0.125,0.048828125,-0.962890625,0.04858984377875006,0.7578778786562095,23.00070047385699,0.2499820462108406,1203,0,5.749762168737422,6.1215379347546754,106.46593293960349,0.12380514287976586,0.1318103003941518,0.09765625,,
2.2114250000002795,1140,,,,-0.03125,0.048828125,-0.970703125,0.04858984377875006,0.7578778786562095,23.000666643656878,0.25259505789131337,1203,0,5.809854722393309,6.119424497177798,105.32835655238148,0.12384790089423169,0.1304469586365164,0.09765625,,
2.219785000000149,1140,,,,0,0.0390625,-1.1015625,0.04858984377875006,0.7578778786562095,23.000834081143182,0.25093098653199847,1202,0,5.771621987040072,6.118563540881558,106.01116210695241,0.1238653277999651,0.131311073448329,0.09765625,,
2.2283250000001864,1140,,,,-0.09375,0.056640625,-0.9921875,0.04858984377875006,0.7578778786562095,23.000924642776415,0.2483069208006328,1202,0,5.711288773615206,6.118233397513517,107.12526786910685,0.12387201164378839,0.13269822428825956,0.09765625,,
2.24475,1140,,,,-0.0625,0.08203125,-0.97265625,0.04858984377875006,0.7578778786562095,23.001187295579108,0.244126007472206,1208,0,5.615188021590155,6.144280550855983,109.42252560789576,0.12334688697615323,0.1349692789880235,0.09765625,,
2.264685000000056,1140,,,,-0.03125,0.017578125,-0.974609375,0.04858984377875006,0.7578778786562095,23.001222250362122,0.23904173522244485,1211,0,5.498252078963669,6.160255874417428,112.04025908500243,0.12302701285567648,0.1378397839480392,0.099609375,,
2.2729400000004096,1140,,,,0,0.06640625,-0.984375,0.04858984377875006,0.7578778786562095,23.001160362717172,0.2373868987211938,1211,0,5.460174125494279,6.161502596091781,112.8444341604951,0.1230021195052208,0.13880104576108238,0.099609375,,
2.2839449999998322,1140,,,,-0.03125,0.09375,-1.025390625,0.04858984377875006,0.7578778786562095,23.001206462963484,0.23711802796865897,1207,0,5.454000717397875,6.141150562573053,112.59900540502714,0.12340975374794746,0.13895815529298206,0.099609375,,
2.3033300000000745,1140,,,,-0.03125,0.04296875,-0.935546875,0.04753091636178856,0.7578778786562095,23.001221973713573,0.2351349559139256,1205,0,5.408391314755558,5.997300147478185,110.88879850679305,0.12636984309929708,0.14013000068773004,0.099609375,,
2.31325,1140,,,,0,0.052734375,-0.95703125,0.04753091636178856,0.7578778786562095,23.00127086110671,0.23568157549674548,1203,0,5.420975754973013,5.9855268888200515,110.41419772684169,0.1266184068225968,0.13980469806767884,0.099609375,,
2.333570000000298,1140,,,,-0.125,0.05078125,-0.94140625,0.04753091636178856,0.7578778786562095,23.001562973182747,0.23926480433030387,1200,0,5.503464464069732,5.973540282059747,108.54145277141302,0.12687248145498137,0.13770923453837836,0.099609375,,
2.3435200000004843,1140,,,,-0.01953125,-0.001953125,-0.9609375,0.04753091636178856,0.7578778786562095,23.001565576179825,0.2382084568963597,1200,0,5.479167442102223,5.972434515080885,109.00259169282491,0.12689597127310576,0.1383198974414679,0.099609375,,
2.3697650000001302,1140,,,,-0.041015625,0.0234375,-0.95703125,0.04753091636178856,0.7534430519518991,23.001657776136607,0.2382855549885127,1199,0,5.48096278884255,5.970119679004569,108.92465263872586,0.1262023363788789,0.1374654565226502,0.09765625,,
2.3797299999999812,1140,,,,0,0.03125,-0.96484375,0.04753091636178856,0.7534430519518991,23.001568579456833,0.24209304790802252,1199,0,5.568519844066109,5.970011710601314,107.21002847755028,0.1262046187638065,0.1353040077166607,0.09765625,,
2.389084999999963,1140,,,,-0.0625,0.052734375,-0.98046875,0.04753091636178856,0.7534430519518991,23.001464409189545,0.24708081997293638,1198,0,5.6832206868008655,5.963446344393783,104.93075446187994,0.12634356183320214,0.13257325264559078,0.09765625,,
2.395950000000186,1140,,,,-0.09375,0.076171875,-0.947265625,0.04753091636178856,0.7534430519518991,23.001401708727148,0.24477979310738504,1198,0,5.630278351442084,5.961852057910743,105.8891174782457,0.12637734795048466,0.13381985843718006,0.09765625,,
2.4041899999999443,1140,,,,0,0.005859375,-0.982421875,0.04753091636178856,0.7534430519518991,23.001332139328788,0.2428738141861054,1198,0,5.586421268040234,5.961093820086806,106.70684386424747,0.12639342286696761,0.1348704323933332,0.09765625,,
2.411385000000242,1140,,,,-0.0625,0.10546875,-1.01953125,0.04753091636178856,0.7534430519518991,23.001389627531804,0.24093244639687386,1198,0,5.541781073488917,5.960820656271625,107.56146042627583,0.1263992150408301,0.13595684166526575,0.09765625,,
2.419410000000149,1140,,,,-0.0625,0.0546875,-0.982421875,0.04753091636178856,0.7534430519518991,23.001518740603117,0.23922694376227346,1202,0,5.502583030205141,5.981878990187295,108.710381240068,0.12595424501028038,0.13692533993872513,0.09765625,,
2.428720000000205,1140,,,,0,0.03515625,-1.0234375,0.04753091636178856,0.7534430519518991,23.001435262610222,0.23957131606263884,1204,0,5.51048411719312,5.990588303303031,108.71255911276381,0.12577112861127063,0.1367290125383178,0.099609375,,
2.440870000000112,1140,,,,-0.09375,0.013671875,-1.001953125,0.04753091636178856,0.7534430519518991,23.001429738777706,0.2445648849249981,1204,0,5.6253420171745985,5.99370335319724,106.54824782027488,0.1257057627902101,0.13393728766207993,0.099609375,,
2.4528349999999626,1140,,,,-0.041015625,0.064453125,-0.984375,0.047084117908992064,0.7534430519518991,23.00121338136231,0.24820747420717146,1204,0,5.709073077088132,5.93864898518404,104.0212466191272,0.1268711206591965,0.13197292130935323,0.099609375,,
2.4604699999997393,1140,,,,-0.09375,0.0390625,-0.94921875,0.047084117908992064,0.7534430519518991,23.001200486044112,0.2471514092671898,1204,0,5.684779114962973,5.9367063173152514,104.43160934237845,0.1269126366844819,0.13253690894845024,0.09765625,,
2.4694799999999812,1140,,,,0.0625,0.02734375,-0.98046875,0.047084117908992064,0.7534430519518991,23.001207130256557,0.24492933333863828,1204,0,5.633670328397672,5.936130824877438,105.36880006902696,0.1269249405343851,0.13373928682940758,0.09765625,,
2.4773600000003353,1140,,,,-0.0625,0.05078125,-0.955078125,0.047084117908992064,0.7534430519518991,23.001214162771717,0.2428131904132003,1204,0,5.584998194239888,5.935892231060563,106.28279588671256,0.126930042295812,0.13490479777217582,0.09765625,,
2.48508000000054,1140,,,,-0.03125,0.060546875,-0.935546875,0.047084117908992064,0.7534430519518991,23.001252765056613,0.24166951173087456,1204,0,5.55870152492966,5.935811626477995,106.78414014238886,0.1269317659258256,0.13554299481144264,0.09765625,,
2.492654999999795,1140,,,,-0.0625,0.0390625,-1.04296875,0.047084117908992064,0.7534430519518991,23.001486070373094,0.23977863604775615,1203,0,5.515264957025523,5.933904237770497,107.59055610214514,0.12697256675564164,0.1366104906695623,0.09765625,,
2.5001750000002794,1140,,,,-0.03125,0.009765625,-0.96875,0.047084117908992064,0.7534430519518991,23.001609740425977,0.23877926042643047,1203,0,5.492307362436294,5.933008128636727,108.02396401218424,0.12699174442645228,0.13718151629767578,0.09765625,,
2.50756500000041,1140,,,,0,-0.0078125,-0.94140625,0.047084117908992064,0.7469274231794107,23.001626552666064,0.23850920739972972,1203,0,5.48609971798096,5.932681472127893,108.14024128440903,0.1259004763172475,0.13614907886769168,0.09765625,,
2.515424999999814,1140,,,,-0.03125,0.06640625,-0.99609375,0.047084117908992064,0.7469274231794107,23.001547069429925,0.23630274383473496,1203,0,5.435328684950099,5.932527114440046,109.14753197661517,0.12590375210613952,0.13742083808980696,0.095703125,,
2.523504999999888,1140,,,,-0.09375,0.02734375,-0.96484375,0.047084117908992064,0.7469274231794107,23.00156941564949,0.23515697370701102,1201,0,5.408979454295876,5.924034801969026,109.52222784399905,0.12608423956779385,0.13809026813481276,0.09765625,,
2.5323799999998884,1140,,,,-0.03125,0.015625,-0.966796875,0.047084117908992064,0.7469274231794107,23.001850119466752,0.2342927327512683,1199,0,5.389166322824953,5.911545121671769,109.69312816779033,0.1263506253959171,0.13859795345634798,0.09765625,,
2.5401949999998323,1140,,,,-0.0625,0.04296875,-1.03515625,0.047084117908992064,0.7469274231794107,23.001890269426163,0.23441604264158322,1198,0,5.392012090234822,5.907330486167373,109.55707048331394,0.12644077133121617,0.1385248049669863,0.09765625,,
2.548100000000559,1140,,,,-0.03125,0.076171875,-0.927734375,0.047084117908992064,0.7469274231794107,23.001809879090686,0.23488757146136,1198,0,5.40283926171553,5.905790382047388,109.30901505613475,0.12647374438651682,0.13824720429351503,0.09765625,,
2.556120000000112,1140,,,,-0.03125,0.115234375,-0.9609375,0.047084117908992064,0.7469274231794107,23.001783553071224,0.23655293754663795,1198,0,5.441139468290941,5.9050104453972505,108.52525431133657,0.12649044910015605,0.13727408156549611,0.09765625,,
2.563370000000112,1140,,,,-0.125,0.0859375,-1.01953125,0.047084117908992064,0.7469274231794107,23.001793100481517,0.2368005525114026,1196,0,5.4468373149469915,5.898042623761547,108.28380365935249,0.12663988221622058,0.13713048141344752,0.09765625,,
2.5711800000001674,1140,,,,-0.0625,-0.0078125,-0.951171875,0.047084117908992064,0.7469274231794107,23.001835360428302,0.23962393741338264,1196,0,5.511790356800203,5.894851750795929,106.94985420704765,0.12670843216346533,0.13551448346686207,0.09765625,,
2.578625,1140,,,,0,-0.0078125,-1.01953125,0.047084117908992064,0.7469274231794107,23.00192972920882,0.23987957749510944,1195,0,5.517693185014808,5.8936443612629414,106.81355710877796,0.12673439003017017,0.1353695100713372,0.09765625,,
2.5900850000004283,1140,,,,-0.0625,0.017578125,-0.935546875,0.047084117908992064,0.7469274231794107,23.002153964288315,0.24269907826568807,1195,0,5.582601565258217,5.893052285851584,105.56104025989195,0.12674712304397534,0.1337955815847056,0.09765625,,
2.5988599999998696,1140,,,,-0.03125,0.083984375,-0.982421875,0.047044444217714525,0.7469274231794107,23.002143691058873,0.24332286043847987,1196,0,5.596947399125378,5.8912334743094705,105.25797464578781,0.12678625392061219,0.1334526430061021,0.09765625,,
2.6080950000002048,1140,,,,-0.0625,0.03125,-0.986328125,0.047044444217714525,0.7469274231794107,23.002094705690965,0.24384897476833853,1196,0,5.609037211506969,5.893755656735007,105.07606625686022,0.12673199682546557,0.1331649969529682,0.09765625,,
2.6146550000002606,1140,,,,-0.125,0.0546875,-0.890625,0.047044444217714525,0.7469274231794107,23.00211953776001,0.24289065857240758,1196,0,5.586999963087772,5.894451937028233,105.50298865172252,0.12671702664794043,0.1336902502441768,0.09765625,,
2.622459999999963,1140,,,,0,0.015625,-0.95703125,0.047044444217714525,0.7469274231794107,23.0022002829514,0.24076778541297214,1197,0,5.53818882175185,5.89475449651406,106.43830837550642,0.12671052265554333,0.13486853684832317,0.09765625,,
2.6307450000001116,1140,,,,-0.0625,0.109375,-0.98046875,0.047044444217714525,0.7469274231794107,23.002355321243478,0.2394987441247601,1197,0,5.509035211349306,5.896234032784105,107.02843250370084,0.1266787273073562,0.13558225615270098,0.09765625,,
2.6392549999998884,1140,,,,-0.0625,0.0546875,-0.9609375,0.047044444217714525,0.7469274231794107,23.00262951980868,0.2382081299746557,1197,0,5.479413362413438,5.899456108243003,107.66583424260136,0.1266095398414386,0.13631521730100365,0.09765625,,
2.64569000000041,1140,,,,-0.03125,0.05078125,-1.052734375,0.047044444217714525,0.7469274231794107,23.0025019881761,0.23719239877567536,1198,0,5.45601862441773,5.900735853560607,108.15094778365675,0.1265820808990631,0.13689972021661187,0.09765625,,
2.65426500000013,1140,,,,-0.125,0.05859375,-0.921875,0.047044444217714525,0.7439457953389971,23.002379750278163,0.23600661812417126,1198,0,5.428713853671068,5.9012469865886095,108.70432934309109,0.1260658632031019,0.13703905112551057,0.09765625,,
2.6630800000000745,1140,,,,0,0.068359375,-0.98046875,0.047044444217714525,0.7439457953389971,23.002468463566846,0.23581324629941794,1198,0,5.424286761293683,5.901461063222887,108.79699623062331,0.12606129013968548,0.1371508970815487,0.09765625,,0.22983000000054019,1733,
2.677195000000298,1140,,,,-0.03125,0.05078125,-0.986328125,0.047044444217714525,0.7439457953389971,23.0024904172174,0.2369508324905201,1196,0,5.4504592537148735,5.8924454018307815,108.10915424814273,0.12625416861866098,0.13649231389665842,0.09765625,,
2.68594000000041,1350,,,,-0.0625,0.03125,-1.005859375,0.047044444217714525,0.7439457953389971,23.00236065950654,0.23841461628533697,1196,0,5.484098990293182,5.891158179006543,107.42253539613075,0.12628175525656188,0.1356550632393354,0.095703125,,
2.6936200000001116,1350,,,,0,0.04296875,-0.9375,0.047044444217714525,0.7439457953389971,23.002313739241256,0.23933357524319973,1196,0,5.505225986078384,5.890707632158342,107.00210394731778,0.12629141383246972,0.1351344699055565,0.095703125,,
2.7022599999997765,1350,,,,-0.03125,0.07421875,-0.9765625,0.047044444217714525,0.7439457953389971,23.002199877260654,0.24124014866408125,1196,0,5.549054117991272,5.890512159437154,106.15344586996906,0.12629560472889031,0.1340671364020327,0.095703125,,
2.710729999999981,1350,,,,-0.0625,0.1015625,-1.009765625,0.047044444217714525,0.7439457953389971,23.002225684272293,0.24039851116769148,1195,0,5.529700808042293,5.886633769542128,106.45483316169147,0.12637881418549032,0.13453635579288778,0.095703125,,
2.718470000000205,1350,,,,-0.25,0.400390625,-0.92578125,0.047044444217714525,0.7439457953389971,22.982612665714964,0.7723564104580894,1195,0,17.750768221440232,5.8853278618885385,33.1553417208161,0.12640685664371346,0.041910625278765316,0.1015625,,
2.7268849999997764,1350,,,,0.3125,0.05859375,-1.0390625,0.047044444217714525,0.7439457953389971,22.959607278388475,1.315809044630821,1195,0,30.210458918075183,5.8848076222529,19.47937182355071,0.12641803149619185,0.02462543840715666,0.10546875,,
2.735590000000317,1350,,,,-0.4375,-0.060546875,-0.978515625,0.047044444217714525,0.7439457953389971,22.94132534353398,1.7851621634846013,1242,0,40.953985983467234,6.120497376769575,14.944814844739085,0.12154989203371816,0.01816540630841944,0.111328125,,
2.746,1350,,,,0.5,-0.77734375,-0.70703125,0.049506951100835576,0.7439457953389971,22.92379039623775,2.1089612394782495,1305,0,48.345385407589156,6.763165323439128,13.989267572117567,0.10999964657979028,0.01538814488843053,0.12109375,,
2.754444999999832,1350,,,,-0.21875,0.1015625,-0.8828125,0.049506951100835576,0.7439457953389971,22.91175249661857,2.492085123504907,1333,0,57.09803755024955,6.9084116023637625,12.09921023342346,0.10768695297258354,0.013029270834120735,0.123046875,,
2.7625,1350,,,,-0.03125,0.123046875,-1.12890625,0.049506951100835576,0.7439457953389971,22.90621743024146,2.6539245379901426,1666,0,60.791372510655314,8.636361406629803,14.20655769059343,0.08614111433177153,0.012237687102863166,0.125,,
2.772854999999981,1350,,,,0.0625,-0.146484375,-0.986328125,0.049506951100835576,0.7439457953389971,22.90224605629069,2.7932974429716317,1795,0,63.97278534734392,9.306073008391108,14.54692484915773,0.07994196850467382,0.01162909808131224,0.12890625,,
2.7833600000003353,1350,,,,-0.375,0.109375,-0.80859375,0.049506951100835576,0.7439457953389971,22.89902378895367,2.9209827687476317,2029,0,66.88765390867577,10.517154208783401,15.723610553216394,0.07073641600859011,0.011122318572493725,0.13671875,,
2.79131500000041,1350,,,,-0.21875,0.115234375,-1.060546875,0.049506951100835576,0.7439457953389971,22.89798153419202,2.966671595903711,2133,0,67.93079142101514,11.056972335213832,16.2768195451838,0.06728295710478593,0.010951525512609427,0.140625,,
2.798505000000354,1350,,,,-0.09375,0.025390625,-0.927734375,0.049506951100835576,0.7439457953389971,22.89762733783595,2.998168427732261,2273,0,68.65094335427884,11.781804304550331,17.161897169787398,0.063143621817897,0.010836643445666925,0.142578125,,
2.806795000000391,1350,,,,0.0625,-0.30859375,-0.9765625,0.049506951100835576,0.7524639693279636,22.89774086665343,3.0109911519206887,2335,0,68.94489514846623,12.104375340188957,17.556594022114826,0.06216462627605673,0.0109139910606522,0.142578125,,
2.8145100000002423,1350,,,,-0.0625,0.23828125,-1.060546875,0.049506951100835576,0.7524639693279636,22.897914008464337,3.011269060567833,2407,0,68.95178000523143,12.47762804088826,18.096165233068053,0.06030504891331871,0.010912901295236664,0.14453125,,
2.822625,1350,,,,-0.09375,-0.12109375,-0.93359375,0.049506951100835576,0.7524639693279636,22.898115759999428,3.0159865597485784,2483,0,69.06040937572538,12.87501585960054,18.643121255701804,0.058443731451163404,0.010895735720797124,0.146484375,,
2.8305150000001302,1350,,,,0,0.00390625,-1.0625,0.049506951100835576,0.7524639693279636,22.898600464371327,3.008889357405671,2574,0,68.89935523673145,13.34311366886699,19.36609366375252,0.05639343169830449,0.01092120480289795,0.146484375,,
2.837470000000205,1350,,,,-0.0625,0.298828125,-1.037109375,0.049506951100835576,0.7524639693279636,22.899860943124818,2.978058932352889,2607,0,68.19713543131192,13.514307327316416,19.816532236794625,0.055679063018421314,0.011033659472190652,0.1484375,,
2.845540000000037,1350,,,,0.0625,-0.3671875,-0.83984375,0.049506951100835576,0.7524639693279636,22.901589776704686,2.937105364850514,2662,0,67.26438219676503,13.800874904550334,20.51735919342773,0.054522917897028844,0.011186662907671098,0.150390625,,
2.8535200000000187,1350,,,,-0.125,0.115234375,-1.013671875,0.049506951100835576,0.7524639693279636,22.903271228373097,2.9011571943722134,2683,0,66.44599009885273,13.911917307077932,20.93718113972108,0.054087725848193074,0.011324445135191924,0.15234375,,
2.861804999999702,1350,,,,0,0.359375,-1.1015625,0.049506951100835576,0.7524639693279636,22.905288147563322,2.8557279362455783,2705,0,65.41127125075131,14.02360922546365,21.43913267134764,0.05365694075114857,0.01150358271502514,0.154296875,,
2.8697650000001302,1350,,,,-0.0625,-0.24609375,-0.822265625,0.049506951100835576,0.7524639693279636,22.90698432378635,2.8113984296233765,2726,0,64.40065975530025,14.1339847646512,21.946956472736996,0.05323792135462466,0.011684103426689428,0.15625,,
2.877725000000093,1350,,,,-0.0625,0.275390625,-1.095703125,0.049506951100835576,0.7524639693279636,22.90869747677998,2.7681744523291734,2743,0,63.41527109136014,14.218757052608606,22.421660915277243,0.05292051664881037,0.011865658797609103,0.158203125,,
2.886285000000149,1350,,,,0,-0.04296875,-1.015625,0.049506951100835576,0.7524639693279636,22.91045809653355,2.7262286183317723,2757,0,62.459146521860625,14.292591898855072,22.883104708855864,0.05264713179057752,0.012047298293847198,0.158203125,,
2.896590000000317,1350,,,,-0.03125,-0.15234375,-0.861328125,0.08581449571214185,0.7524639693279636,22.912325621615352,2.6776155014706715,2777,0,61.350398259180906,24.9593443616627,40.683263792713205,0.030147585546507406,0.012265021755019489,0.162109375,,
2.9127050000000745,1350,,,,-0.09375,-0.314453125,-0.828125,0.08581449571214185,0.7524639693279636,22.916542975252018,2.5754088051812447,2796,0,59.01946656277845,25.12502160461714,42.5707365177418,0.029948788947098296,0.012749420032923793,0.16796875,,
2.921185000000056,1350,,,,0,0.37890625,-1.1015625,0.08581449571214185,0.7524639693279636,22.918303352509387,2.5364053554660155,2804,0,58.13010736149955,25.19641735895936,43.344866374093996,0.029863927026133417,0.012944479263534474,0.169921875,,
2.9285400000000372,1350,,,,0.0625,-0.18359375,-0.91015625,0.08581449571214185,0.7524639693279636,22.920028622319634,2.4943304340150503,2809,0,57.17012494114791,25.245886535235382,44.15922924993432,0.02980540882483008,0.01316183881183687,0.171875,,
2.9376500000003727,1350,,,,-0.1875,-0.45703125,-0.87109375,0.08581449571214185,0.7524639693279636,22.921809726940467,2.4475740427688923,2814,0,56.102826500946996,25.288061998700545,45.07448835625723,0.029755699324314763,0.013412229227261166,0.17578125,,
2.945895000000019,1350,,,,-0.01953125,0.302734375,-1.078125,0.08581449571214185,0.7524639693279636,22.92302442508918,2.406434752918974,2818,0,55.16276261854509,25.322151292030906,45.904429165623206,0.02971564148125007,0.013640795594870983,0.177734375,,
2.9548400000003165,1350,,,,-0.0625,-0.53515625,-0.7421875,0.08581449571214185,1.7687848629128815,22.925032711269058,2.3714567251292666,2824,0,54.36572299694743,25.374790869963345,46.674245225043926,0.06970638189600326,0.03253492762364619,0.181640625,,
2.9624950000001116,1350,,,,-0.09375,0.19921875,-1.037109375,0.08581449571214185,1.7687848629128815,22.925826900424866,2.3497299370294837,2826,0,53.86950179908416,25.39280311132685,47.137623819195134,0.06965693606799511,0.0328346244877088,0.18359375,,
2.9709950000001117,1350,,,,0,0.29296875,-1.078125,0.08581449571214185,1.7687848629128815,22.92692832282269,2.3265268512815664,2833,0,53.340114360454834,25.457465611478458,47.726679848200796,0.06948000597967452,0.033160500012430025,0.185546875,,
2.9790950000002048,1350,,,,-0.09375,-0.265625,-0.830078125,0.08581449571214185,1.7687848629128815,22.928143759304476,2.2912916158909913,2838,0,52.5350635636377,25.50138661936635,48.54164988013303,0.06936034064789344,0.033668653712968025,0.1875,,
2.98781500000041,1350,,,,0.03125,0.478515625,-1.12109375,0.08581449571214185,1.7687848629128815,22.929816190017434,2.248286425725893,2844,0,51.55279448440601,25.560559856819918,49.581327476925864,0.06919976999020798,0.034310164572124484,0.19140625,,
2.9964100000001492,1350,,,,-0.125,-0.38671875,-0.833984375,0.08581449571214185,1.7687848629128815,22.930993683255082,2.211976243368617,2847,0,50.72281326419607,25.58603996097054,50.44286449117574,0.06913085673324289,0.034871584383538545,0.1953125,,
3.0039249999998137,1350,,,,0.1875,0.2890625,-1.0625,0.08581449571214185,1.7687848629128815,22.932377874919194,2.1764623619635173,2850,0,49.91145731508654,25.6085383033794,51.30793545400809,0.06907012192411881,0.035438453574831566,0.197265625,,
3.011645000000019,1350,,,,-0.125,0.2109375,-1.05859375,0.08581449571214185,1.7687848629128815,22.933574584804646,2.147222639799143,2850,0,49.24349056001477,25.60979498167139,52.006457483877654,0.06906673263799179,0.03591916094488065,0.19921875,,
3.020125,1350,,,,-0.03125,-0.251953125,-0.8046875,0.08581449571214185,1.7687848629128815,22.93461158760465,2.1165876549567226,2849,0,48.543115757551405,25.6041875154707,52.74524948779723,0.06908185865472737,0.03643739869824338,0.203125,,
3.0289799999999816,1350,,,,-0.0625,0.734375,-1.265625,0.08581449571214185,1.7687848629128815,22.9357134012839,2.0856696054040467,2848,0,47.836320319316094,25.597485069519536,53.510564564021,0.06909994704984046,0.0369757717798092,0.20703125,,
3.036725000000093,1350,,,,-0.03125,-0.21484375,-0.87890625,0.08581449571214185,1.7687848629128815,22.93680907050506,2.060816005442907,2848,0,47.26854324628487,25.59108668837743,54.13978288909674,0.06911722368226753,0.03741991484055099,0.208984375,,
3.046964999999851,1350,,,,-0.03125,0.18359375,-1.021484375,0.11721668060627852,1.7687848629128815,22.937945776496846,2.034065070245655,2848,0,46.65727428716109,34.96347763990268,74.9368199794812,0.05058950031029594,0.03791016277604555,0.2109375,,
3.055785000000149,1350,,,,-0.03125,-0.041015625,-0.91796875,0.11721668060627852,1.7687848629128815,22.93930094489541,1.9998709363825289,2849,0,45.87564126062861,34.96705896852182,76.22140641014046,0.050584318930144624,0.03855607931154714,0.212890625,,
3.0644199999999255,1350,,,,-0.125,-0.375,-0.8203125,0.11721668060627852,1.7687848629128815,22.94011228391476,1.976806073197597,2848,0,45.348153282677494,34.95631852301492,77.08432646664767,0.050599861130923435,0.03900456214583138,0.216796875,,
3.0725150000001302,1350,,,,0.03125,0.494140625,-1.10546875,0.11721668060627852,1.7687848629128815,22.94097592555255,1.9590798613546176,2847,0,44.94320393557111,34.95054392581794,77.76602659641651,0.05060822133890402,0.03935600286638543,0.21875,,
3.080060000000056,1350,,,,-0.125,-0.453125,-0.869140625,0.11721668060627852,1.7687848629128815,22.941541832799604,1.9392368213504367,2847,0,44.48908266071638,34.94497440357187,78.54730264966352,0.050616287265961964,0.039757728348818244,0.22265625,,
3.088845000000205,1350,,,,0.125,0.33203125,-0.9140625,0.11721668060627852,1.7687848629128815,22.942406602240197,1.9195622189756634,2846,0,44.0393769260381,34.93926576108223,79.33642162958154,0.05062455733924084,0.04016371225876938,0.224609375,,
3.0968449999997394,1350,,,,-0.125,0.259765625,-1.138671875,0.11721668060627852,1.7687848629128815,22.94316716552169,1.9004779721494627,2846,0,43.6029838094168,34.9345322461978,80.1195908951834,0.050631416801219443,0.04056568400557218,0.228515625,,
3.1096049999999815,1350,,,,0,-0.310546875,-0.734375,0.11721668060627852,3.0508129068039693,22.944232278593518,1.8774652875711502,2846,0,43.07699965302884,34.938968971479916,81.1081766439211,0.0873183438610995,0.07082231658140703,0.23046875,,
3.118285000000149,1350,,,,-0.0625,0.146484375,-1.029296875,0.11721668060627852,3.0508129068039693,22.94490269931932,1.859302261522993,2846,0,42.66150947926944,34.937637856806504,81.89498750339294,0.08732167066668517,0.07151207128023575,0.236328125,,
3.1260800000000746,1350,,,,-0.1875,-0.19921875,-0.875,0.11721668060627852,3.0508129068039693,22.945566773834553,1.8464417340556916,2846,0,42.36765210276973,34.934094201023754,82.45463807219089,0.0873305284301479,0.07200807114361021,0.23828125,,
3.1359300000001675,1350,,,,-0.03125,0.4375,-1.166015625,0.11721668060627852,3.0508129068039693,22.94635844167721,1.8318353108978296,2845,0,42.03394964998281,34.92050154274495,83.07689815857987,0.08736452147084936,0.07257973452906816,0.240234375,,
3.143345000000205,1350,,,,-0.09375,-0.39453125,-0.8203125,0.11721668060627852,3.0508129068039693,22.94681296240711,1.8216284249110641,2844,0,41.80056675343846,34.90968728024815,83.51486592553563,0.08739158510108211,0.07298496512736909,0.244140625,,
3.152089999999851,1350,,,,0.0625,0.3203125,-1.09765625,0.11721668060627852,3.0508129068039693,22.947261389058415,1.809637747575474,2846,0,41.52623041312131,34.92841238479877,84.11168564378579,0.0873447345156666,0.07346712852221675,0.24609375,,
3.1591450000000187,1350,,,,-0.0625,0.25,-1.041015625,0.11721668060627852,3.0508129068039693,22.947886175765827,1.799014030818634,2846,0,41.28356920783169,34.935856455326984,84.62411832526216,0.08732612325405822,0.0738989618713785,0.25,,
3.166600000000093,1350,,,,0.0625,-0.65234375,-0.703125,0.11721668060627852,3.0508129068039693,22.94842884173481,1.7874595773002575,2847,0,41.01938891715234,34.94935195417275,85.2020297639261,0.08729240275483048,0.07437489897681694,0.25390625,,
3.1743650000002237,1350,,,,-0.09375,0.373046875,-1.11328125,0.11721668060627852,3.0508129068039693,22.948890814805623,1.7777726742161972,2848,0,40.797910994132515,34.95531069358007,85.67916798143729,0.08727752224969595,0.0747786548983533,0.25390625,,
3.183089999999851,1350,,,,0.0625,0.14453125,-1.015625,0.11721668060627852,3.0508129068039693,22.94919394531073,1.768791652258496,2847,0,40.59234267652684,34.9471304161694,86.09291337200435,0.08729795180529082,0.07515735002326313,0.25390625,,
3.193200000000186,1350,,,,-0.08203125,-0.0234375,-0.923828125,0.12083801285432012,3.0508129068039693,22.949780627802625,1.7548820456863234,2847,0,40.27415797617063,36.025473897058575,89.4505948910815,0.08468487924743341,0.0757511282696232,0.259765625,,
3.2043450000002047,1350,,,,0.0625,0.39453125,-1.125,0.12083801285432012,3.0508129068039693,22.94999515295302,1.7481640383359587,2847,0,40.120356206377025,36.02790635215795,89.79956749843464,0.08467916167493968,0.07604152094539605,0.26171875,,
3.211520000000019,1350,,,,-0.041015625,-0.17578125,-0.912109375,0.12083801285432012,3.0508129068039693,22.95003991378672,1.7387226037794221,2848,0,39.903753155740915,36.03420413500802,90.30279431202779,0.08466436209812216,0.07645428476105766,0.265625,,
3.21945500000054,1350,,,,-0.0625,0.53125,-1.171875,0.12083801285432012,3.0508129068039693,22.95044534367597,1.7278052971780922,2848,0,39.65390103739962,36.037233453165626,90.87941541786032,0.08465724514532555,0.07693600949693681,0.267578125,,
3.2386250000004657,1350,,,,0.03125,0.47265625,-1.119140625,0.12083801285432012,3.0508129068039693,22.950583450598867,1.7197999930564283,2848,0,39.47041325898091,36.03613867377792,91.29911672657349,0.08465981703594469,0.07729366517615069,0.271484375,,
3.2457050000000747,1350,,,,-0.25,-0.02734375,-0.99609375,0.12083801285432012,3.0508129068039693,22.95065984052219,1.7240222721404457,2847,0,39.56744872537954,36.03207684912048,91.06494861269286,0.08466936056944045,0.07710410969325658,0.2734375,,
3.253885000000242,1350,,,,-0.03125,-0.26953125,-0.80078125,0.12083801285432012,3.55661026432758,22.950824267215566,1.7180647041912271,2852,0,39.43100110559855,36.0947260688426,91.53895426641284,0.09853545522257583,0.09019832529239538,0.27734375,,
3.2619000000003724,1350,,,,-0.09375,0.39453125,-1.181640625,0.12083801285432012,3.55661026432758,22.951274594124392,1.7058645283717024,2854,0,39.15176521103544,36.11934767418564,92.25471055901441,0.09846828620522058,0.09084163243104815,0.279296875,,
3.2701500000003727,1350,,,,0,-0.58203125,-0.734375,0.12083801285432012,3.55661026432758,22.951606243273783,1.6958117852551142,2856,0,38.92160435787854,36.14078552066031,92.85533347585314,0.0984098771814022,0.09137881962996852,0.28125,,
3.2776200000001117,1350,,,,0,0.142578125,-1.005859375,0.12083801285432012,3.55661026432758,22.951951177257502,1.6854995314914416,2857,0,38.68550295608196,36.14916156426643,93.44369027670407,0.09838707484278976,0.0919365134884055,0.283203125,,
3.285935000000056,1350,,,,0,0.34375,-1.06640625,0.12083801285432012,3.55661026432758,22.952475134922633,1.6763155058322008,2856,0,38.47558996589884,36.144711498745885,93.9419292356041,0.0983991880652024,0.09243809562062144,0.283203125,,
3.2939199999999254,1350,,,,-0.09375,-0.357421875,-0.8046875,0.12083801285432012,3.55661026432758,22.952745934193135,1.670001727560374,2856,0,38.331125362356886,36.13905848535078,94.2812352721613,0.09841458005247361,0.09278648176138216,0.28515625,,
3.3025600000000557,1350,,,,0,0.515625,-1.123046875,0.12083801285432012,3.55661026432758,22.953101743055644,1.662401145503144,2853,0,38.15726263050591,36.10771036262933,94.62867059483976,0.09850002197892316,0.09320926133427997,0.2890625,,
3.311149999999907,1350,,,,0,-0.25,-0.93359375,0.12083801285432012,3.55661026432758,22.95370188223893,1.655485864375759,2852,0,37.9995290011418,36.094600327783404,94.98696767188572,0.0985357984859004,0.09359616705303667,0.291015625,,
3.319945000000298,1350,,,,-0.0625,-0.162109375,-0.875,0.12083801285432012,3.55661026432758,22.953899610771536,1.6513817940287712,2852,0,37.90565191919221,36.089929242284626,95.20988933054531,0.0985485518813512,0.0938279671830895,0.29296875,,
3.3281000000000933,1350,,,,-0.09375,0.28125,-1.203125,0.12083801285432012,3.55661026432758,22.95400343558411,1.6440067673750633,2852,0,37.73653698645073,36.08540721937655,95.62458588166949,0.09856090143879018,0.09424845384208355,0.296875,,
3.3386150000002237,1350,,,,0.03125,-0.2734375,-0.712890625,0.12083801285432012,3.55661026432758,22.954130707103374,1.6420111011591372,2851,0,37.69093743852157,36.08011028615216,95.72622157515487,0.09857537119814835,0.09436247825167088,0.298828125,,
3.347114999999758,1350,,,,-0.0625,0.4296875,-1.19921875,0.12154090067214804,3.55661026432758,22.954386324506224,1.6367114646353769,2849,0,37.56970726098885,36.26426259539696,96.52527325666063,0.098074798983477,0.09466696771472179,0.30078125,,
3.356985000000335,1350,,,,-0.125,-0.400390625,-0.779296875,0.12154090067214804,3.55661026432758,22.95446600873614,1.6332770787108717,2848,0,37.491003186116565,36.243263389913196,96.6718954144566,0.09813162313958226,0.09486570009000565,0.3046875,,
3.3652650000001305,1350,,,,0.0625,0.541015625,-1.158203125,0.12154090067214804,3.55661026432758,22.95447813577869,1.629303315456279,2848,0,37.39980733119289,36.24706994910904,96.91779860822325,0.09812131764915256,0.0950970210309407,0.30859375,,
3.387040000000037,1350,,,,-0.01953125,0.181640625,-1.03515625,0.12154090067214804,3.55661026432758,22.954618317774056,1.624285545363632,2847,0,37.28485473289965,36.24099788735238,97.20031939771462,0.09813775755796143,0.09539021379609333,0.3125,,
3.3951550000002606,1350,,,,-0.0625,-0.404296875,-0.80859375,0.12154090067214804,3.55661026432758,22.9543732884975,1.6239287933875506,2847,0,37.276267717357165,36.23386764328358,97.20358249925273,0.09815706949481127,0.09541218802523771,0.31640625,,
3.403785000000149,1350,,,,-0.0625,0.494140625,-1.10546875,0.12154090067214804,3.7328092362348118,22.95435293444186,1.627598697948922,2847,0,37.36047494835759,36.23942394943631,96.99936630765299,0.10300409966347918,0.09991332394447813,0.318359375,,
3.411960000000428,1350,,,,-0.0625,-0.09375,-1.109375,0.12154090067214804,3.7328092362348118,22.954368388370778,1.6296329645520211,2848,0,37.40719540615987,36.24519446103519,96.89364323492336,0.10298770062463612,0.09978853521908589,0.3203125,,
3.4199799999999816,1350,,,,0.03125,-0.298828125,-0.751953125,0.12154090067214804,3.7328092362348118,22.954449493600965,1.6271725821988192,2849,0,37.35085085545506,36.26709992064588,97.09845717035147,0.10292549568072368,0.09993906834091944,0.322265625,,
3.4279850000003353,1350,,,,-0.1875,0.47265625,-1.28515625,0.12154090067214804,3.7328092362348118,22.954590983504463,1.6229496323033918,2851,0,37.254144996353325,36.28532505750266,97.39943048231143,0.10287379898951697,0.10019849433130738,0.32421875,,
3.436125,1350,,,,0.0625,-0.0078125,-0.908203125,0.12154090067214804,3.7328092362348118,22.954854690360712,1.6180092321633988,2851,0,37.14116681197293,36.28666169270812,97.69930459215044,0.1028700095877083,0.10050328400106949,0.32421875,,
3.445834999999963,1350,,,,-0.125,0.04296875,-1.048828125,0.12154090067214804,3.7328092362348118,22.954990185429054,1.6164137217885035,2851,0,37.10476111924795,36.287223838415066,97.79667822626465,0.10286841597077799,0.10060189376339718,0.326171875,,
3.455655000000261,1350,,,,-0.03125,0.203125,-1.013671875,0.12154090067214804,3.7328092362348118,22.954894428909846,1.6120601507533485,2850,0,37.004670573595604,36.27475681588466,98.02750910521071,0.10290377011156752,0.10087400261572195,0.330078125,,
3.4632599999997766,1350,,,,-0.03125,-0.13671875,-0.931640625,0.12154090067214804,3.7328092362348118,22.954805024551053,1.6114726411081106,2850,0,36.99104027903501,36.274699462832984,98.06347480146964,0.10290393281023441,0.10091117222108548,0.33203125,,
3.4706499999999068,1350,,,,-0.125,0.59765625,-1.26953125,0.12154090067214804,3.7328092362348118,22.954914457249977,1.6112433626856522,2850,0,36.985953560260945,36.276498830232214,98.081826580805,0.10289882862466189,0.1009250506453206,0.3359375,,
3.4783300000000743,1350,,,,0.03125,-0.404296875,-0.81640625,0.12154090067214804,3.7328092362348118,22.955141691057975,1.6081082493519052,2850,0,36.91435271843217,36.27729618499007,98.27423078957578,0.10289656696573993,0.10112080969446163,0.3359375,,
3.4862650000001305,1350,,,,0,0.06640625,-0.98828125,0.12154090067214804,3.7328092362348118,22.9551186884166,1.6059048758487133,2850,0,36.86373702741414,36.27765111497747,98.41012887000356,0.1028955602556555,0.10125965344910272,0.3359375,,
3.4951650000000374,1350,,,,-0.09375,0.48046875,-1.115234375,0.121609725680715,3.7328092362348118,22.955167514529276,1.600156881127325,2850,0,36.731869255804455,36.29834499004373,98.81975985828106,0.10283689896216161,0.1016231766001112,0.337890625,,
3.5043549999999812,1350,,,,-0.125,-0.400390625,-0.857421875,0.121609725680715,3.7328092362348118,22.955359697592524,1.5961953379726006,2850,0,36.64123813078131,36.29839855946075,99.06433409783565,0.10283674719478497,0.1018745388163884,0.33984375,,
3.5156100000003354,1350,,,,0.0625,0.419921875,-1.103515625,0.121609725680715,3.7328092362348118,22.955394581660496,1.5939057733869553,2849,0,36.58873595408429,36.27994507915995,99.15604934996429,0.1028890542168716,0.10202072137499271,0.341796875,,
3.5241450000000185,1350,,,,-0.09375,-0.283203125,-0.873046875,0.121609725680715,3.7328092362348118,22.955437138970105,1.592939709736834,2848,0,36.56662737303318,36.27019662507957,99.18934074797335,0.10291670802947081,0.10208240421394865,0.341796875,,
3.53225,1350,,,,0,0.2265625,-1.125,0.121609725680715,3.7328092362348118,22.9557073010489,1.5907606085557957,2848,0,36.51703491604527,36.264155733989426,99.30750351818753,0.10293385191747755,0.10222103861435496,0.33984375,,
3.5399950000001117,1350,,,,0,0.232421875,-1.048828125,0.121609725680715,3.7328092362348118,22.955917619579985,1.5889641715935696,2847,0,36.47613062356614,36.26154617913925,99.41171269880185,0.10294125953135015,0.10233566917383377,0.341796875,,
3.5486150000002237,1350,,,,-0.125,-0.09765625,-0.890625,0.121609725680715,3.7328092362348118,22.955921760071114,1.587238036728661,2847,0,36.43651218575202,36.2605100787747,99.51696225456467,0.10294420095374868,0.10244694160640529,0.34375,,
3.5576100000003352,1350,,,,-0.09375,0.27734375,-1.16015625,0.121609725680715,3.8067561209491743,22.955599473441808,1.5864970473655586,2846,0,36.4189907851218,36.24778873989621,99.52990996857734,0.1050203682289524,0.10452667794694474,0.345703125,,
3.565155000000261,1350,,,,0.0625,-0.52734375,-0.578125,0.121609725680715,3.8067561209491743,22.955422699760362,1.587037427816806,2846,0,36.431114995875205,36.24341953158122,99.4847935224732,0.10503302862005344,0.10449189165306036,0.34765625,,
3.573320000000298,1350,,,,-0.125,0.23046875,-1.0625,0.121609725680715,3.8067561209491743,22.95545117871818,1.5889405026269448,2847,0,36.47484613394076,36.2592321913117,99.40886949368534,0.10498722369144195,0.10436661218446902,0.34765625,,
3.581195000000298,1350,,,,0,0.41796875,-1.1171875,0.121609725680715,3.8067561209491743,22.95547804236888,1.5914774752257808,2848,0,36.53312623747008,36.265425531262274,99.26723843870433,0.10496929417435334,0.1042001195354803,0.349609375,,
3.590070000000298,1350,,,,-0.125,-0.400390625,-0.79296875,0.121609725680715,3.8067561209491743,22.955211250556268,1.590607159795356,2849,0,36.51272336974971,36.2804681125151,99.36390595989609,0.10492577188208929,0.10425834530061429,0.3515625,,
3.5971450000000185,1350,,,,0.0625,0.5625,-1.1328125,0.121609725680715,3.8067561209491743,22.955331069280582,1.585681707663415,2850,0,36.39984856991588,36.290578704222,99.6998068124267,0.10489653945656978,0.10458164719112102,0.353515625,,
3.605545000000391,1350,,,,-0.1875,-0.4296875,-0.9375,0.121609725680715,3.8067561209491743,22.955364038466666,1.5843417701454119,2851,0,36.36914209503661,36.3070541034861,99.8292838709578,0.10484893955039058,0.10466994549944834,0.35546875,,
3.6130800000000747,1350,,,,0.03125,-0.072265625,-0.89453125,0.121609725680715,3.8067561209491743,22.955102289217635,1.5877900469752229,2851,0,36.447882942117914,36.30962656824724,99.62067378758258,0.1048415112117452,0.10444381987822449,0.357421875,,
3.62131500000041,1350,,,,-0.15625,0.22265625,-1.0625,0.121609725680715,3.8067561209491743,22.954949943408586,1.602776561515023,2851,0,36.79165574004588,36.30869434014173,98.68730724347783,0.104844203024413,0.10346792076567812,0.359375,,
3.6302600000002423,1350,,,,0.125,-0.44921875,-0.66015625,0.121609725680715,3.8067561209491743,22.954340621932985,1.6183021886738935,2854,0,37.147059668040214,36.34270077019556,97.83466334877457,0.1047460986738518,0.10247799300853815,0.359375,,
3.6388100000005217,1350,,,,-0.125,0.322265625,-1.13671875,0.121609725680715,3.8067561209491743,22.954493701240196,1.6116899764819768,2857,0,36.995527413507496,36.38724257117022,98.35578815909734,0.10461787846395607,0.10289773891855056,0.359375,,
3.6479849999998697,1350,,,,0.03125,-0.220703125,-0.837890625,0.12168310417600317,3.8067561209491743,22.95469702868884,1.6038235878203195,2862,0,36.81528454588017,36.47212179488734,99.06787967219114,0.10437440800284904,0.10340151292882432,0.359375,,
3.6551750000002796,1350,,,,-0.0625,-0.109375,-0.83984375,0.12168310417600317,3.8067561209491743,22.95492728902595,1.5982688593763372,2863,0,36.68814545529826,36.479615229328346,99.43161415388523,0.10435296800742226,0.10375984050726737,0.359375,,
3.6654849999998698,1350,,,,-0.0625,0.37109375,-1.171875,0.12168310417600317,3.8067561209491743,22.955172177800677,1.59299724960752,2861,0,36.56752614350354,36.45966592583048,99.70503824281198,0.1044100658709605,0.10410209610598636,0.359375,,
3.673285000000149,1350,,,,-0.09375,-0.296875,-0.78125,0.12168310417600317,3.8067561209491743,22.955349673676224,1.5876922283338617,2860,0,36.44603027558199,36.44177345798239,99.98832021603612,0.10446132994428467,0.10444912908662138,0.361328125,,
3.681255000000354,1350,,,,0,0.521484375,-1.138671875,0.12168310417600317,3.8067561209491743,22.955759467788685,1.5845583473136202,2858,0,36.374740283608226,36.421404734575276,100.12828806639777,0.10451975009451997,0.10465383646092001,0.36328125,,
3.6904000000003725,1350,,,,-0.15625,-0.458984375,-0.837890625,0.12168310417600317,3.8067561209491743,22.955698312525286,1.5826077057075685,2856,0,36.32986503930074,36.393556931718386,100.17531552167547,0.10459972703661288,0.10478310659373825,0.365234375,,
3.698800000000279,1350,,,,0.125,0.33984375,-1.0234375,0.12168310417600317,3.8067561209491743,22.9557820699661,1.5791480750389706,2855,0,36.25057906680109,36.38417071562198,100.36852279952471,0.10462671117895503,0.10501228446404234,0.3671875,,
3.7063300000000745,1350,,,,-0.0625,0.244140625,-1.076171875,0.12168310417600317,3.9099401055000276,22.955886211652636,1.5743033836836433,2853,0,36.139529338461436,36.35214158568062,100.5883093972475,0.10755735246806428,0.10819012248006452,0.369140625,,
3.715245000000112,1350,,,,0,-0.201171875,-0.80859375,0.12168310417600317,3.9099401055000276,22.956322832847984,1.5711154378638696,2852,0,36.06703319927431,36.33808105223423,100.75151136347242,0.1075989703440773,0.10840758883319236,0.369140625,,
3.7225200000000185,1350,,,,-0.1875,0.53125,-1.296875,0.12168310417600317,3.9099401055000276,22.95630721670293,1.5681805449239319,2851,0,35.999634360530386,36.333209960646684,100.92660830044993,0.10761339583634288,0.10861055049455848,0.37109375,,
3.7295000000004657,1350,,,,0.0625,-0.119140625,-0.865234375,0.12168310417600317,3.9099401055000276,22.956294073058707,1.568134386356337,2851,0,35.99855411927153,36.33140268818097,100.92461649378093,0.10761874896649605,0.10861380966984097,0.369140625,,
3.7365499999998137,1350,,,,-0.3125,-0.17578125,-0.91796875,0.12168310417600317,3.9099401055000276,22.956367268781683,1.5675316819406868,2850,0,35.98483299608148,36.319750662852435,100.9307189693153,0.10765327498514699,0.1086552244365229,0.37109375,,
3.7453900000001306,1350,,,,0.0625,0.484375,-1.126953125,0.12168310417600317,3.9099401055000276,22.956482878087584,1.5668558141614743,2850,0,35.96949867022987,36.314181224037235,100.95826343582776,0.10766978556883844,0.10870154575537877,0.37109375,,
3.753855000000447,1350,,,,-0.1875,-0.46875,-0.87109375,0.12168310417600317,3.9099401055000276,22.95666967040504,1.565947363779237,2849,0,35.94893635152154,36.3058785022902,100.99291435851774,0.10769440836566967,0.10876372160965311,0.373046875,,
3.761229999999981,1350,,,,-0.03125,0.03515625,-0.953125,0.12168310417600317,3.9099401055000276,22.956817892892076,1.5642597818010433,2849,0,35.91042694798165,36.29754921023789,101.07802188711655,0.107719121278778,0.10888035698277285,0.375,,
3.7685849999999625,1350,,,,-0.0625,0.12109375,-1.03515625,0.12168310417600317,3.9099401055000276,22.956843414751,1.5650436775266674,2847,0,35.92846264222576,36.28206940786466,100.98419676110304,0.1077650798124677,0.1088257002375821,0.375,,
3.776235000000335,1350,,,,-0.0625,-0.5390625,-0.70703125,0.12168310417600317,3.9099401055000276,22.956807083019353,1.5645709368419094,2847,0,35.91755316477857,36.27643812303511,100.99919099892493,0.10778180846308781,0.10885875459172951,0.376953125,,
3.7844150000000374,1350,,,,-0.03125,0.48046875,-1.115234375,0.12168310417600317,3.9099401055000276,22.95657140694071,1.5646953017552918,2848,0,35.920039424849996,36.28547861855872,101.01736857631596,0.10775495471899972,0.10885121976773432,0.376953125,,
3.792370000000112,1350,,,,-0.09375,-0.396484375,-0.8359375,0.12168310417600317,3.9099401055000276,22.95654319109746,1.5583705614327121,2848,0,35.774801101264856,36.28710463815096,101.43202343860966,0.10775012623600884,0.10929313329884,0.37890625,,
3.801350000000093,1350,,,,0.125,0.078125,-0.890625,0.12278981405881574,3.9099401055000276,22.956586780515185,1.5571782377264913,2847,0,35.747497347097905,36.61364816635386,102.42296911262314,0.10678914288287367,0.10937661083056066,0.376953125,,
3.80939000000013,1350,,,,-0.125,0.373046875,-1.185546875,0.12278981405881574,3.9099401055000276,22.956753509612433,1.5570272329991062,2847,0,35.744290395714366,36.61247389757756,102.42887323332424,0.10679256792201433,0.10938642401945173,0.37890625,,
3.820325000000186,1350,,,,-0.0625,-0.32421875,-0.7109375,0.12278981405881574,3.9099401055000276,22.95691306632619,1.556882817881412,2847,0,35.74122350456053,36.612008073491744,102.43635914931704,0.10679392667158698,0.10939581027496512,0.380859375,,
3.8285150000001305,1350,,,,0.03125,0.501953125,-1.12109375,0.12278981405881574,3.9099401055000276,22.95664002366476,1.5571420088643493,2846,0,35.74674856322507,36.59795601620143,102.38121643838693,0.10683493099366394,0.1093789019324244,0.3828125,,
3.8374300000001678,1350,,,,-0.1875,-0.45703125,-0.81640625,0.12278981405881574,3.9099401055000276,22.956468861586792,1.5581081305277735,2847,0,35.768660781446044,36.603496370193085,102.333986150189,0.10681876031613105,0.10931189538771313,0.3828125,,
3.8452400000002234,1350,,,,0,-0.0546875,-0.95703125,0.12278981405881574,3.9099401055000276,22.9562504397963,1.5585481065835587,2847,0,35.77842065720251,36.61434329532607,102.33638775208287,0.10678711547447427,0.10928207656122245,0.384765625,,
3.8534150000000373,1350,,,,-0.125,0.240234375,-1.044921875,0.12278981405881574,4.036422131047661,22.956238205492156,1.557049379139471,2847,0,35.74399644523937,36.6098019867525,102.42224045327323,0.11025522980179643,0.1129258765799049,0.384765625,,
3.8610550000001678,1350,,,,0.03125,-0.19921875,-0.869140625,0.12278981405881574,4.036422131047661,22.95622670635612,1.559010906202159,2846,0,35.78900780045846,36.59923718212893,102.26390568352134,0.11028705628374702,0.11278385121914314,0.384765625,,
3.875920000000391,1350,,,,-0.125,0.78515625,-1.24609375,0.12278981405881574,4.036422131047661,22.955872111752424,1.5651563316507275,2846,0,35.92952858427366,36.59763169244172,101.85948197622746,0.11029189443100704,0.11234275232919143,0.388671875,,
3.8914400000004097,1350,,,,-0.03125,0.361328125,-1.2109375,0.12278981405881574,4.036422131047661,22.955946694922687,1.5651824924057414,2848,0,35.93024586349243,36.614876127789884,101.90544274842573,0.11023995047696214,0.11234050961919355,0.38671875,,
3.898879999999888,1350,,,,0.0625,-0.41796875,-0.63671875,0.12278981405881574,4.036422131047661,22.955949194061123,1.5643763958786636,2847,0,35.91174506417905,36.607353055047994,101.93699300779117,0.1102626055748397,0.11239838453503272,0.38671875,,
3.9058650000002233,1350,,,,-0.3125,-0.35546875,-0.87890625,0.12278981405881574,4.036422131047661,22.95618054707784,1.566731321406757,2847,0,35.96616708297535,36.6043294601759,101.77434080125435,0.11027171349878521,0.11222830950363648,0.388671875,,
3.912720000000205,1350,,,,0.0625,0.498046875,-1.138671875,0.12278981405881574,4.036422131047661,22.95600377288613,1.5656456206958282,2847,0,35.94096677569608,36.608442500219695,101.85714460239555,0.11025932422619283,0.11230699931469734,0.388671875,,
3.9206450000000186,1350,,,,-0.125,-0.423828125,-0.83984375,0.12278981405881574,4.036422131047661,22.956099953211996,1.5669706180088905,2847,0,35.971534130758464,36.61039865523237,101.77602801746404,0.11025343288554366,0.11221156474380682,0.390625,,
3.9283500000000933,1350,,,,0.1875,0.2421875,-1.0234375,0.12278981405881574,4.036422131047661,22.956000655161542,1.5688262686154795,2847,0,36.01397685017159,36.605397738318075,101.6421982237812,0.11026849537062627,0.11207932264299295,0.390625,,
3.935720000000205,1350,,,,-0.09375,0.25,-1.052734375,0.12278981405881574,4.036422131047661,22.95600068324695,1.5684576233759824,2846,0,36.005514273862936,36.59782404579142,101.64505294223349,0.11029131475131594,0.11210566526966047,0.392578125,,
3.9432250000000932,1350,,,,0,-0.59765625,-0.71875,0.12327304983292361,4.036422131047661,22.955876565210954,1.5683946506707898,2846,0,36.0038740063358,36.73856224950654,102.04058108591718,0.10986881042417156,0.11211077258900942,0.392578125,,
3.9506200000001117,1350,,,,-0.0625,0.3828125,-1.07421875,0.12327304983292361,4.036422131047661,22.95570461786148,1.5706486290229054,2846,0,36.05534598629891,36.73724524767708,101.89125701813344,0.10987274913605248,0.11195072521510421,0.392578125,,
3.957895000000019,1350,,,,-0.25,0.109375,-1.1015625,0.12327304983292361,4.036422131047661,22.95571770177275,1.5733637452636824,2846,0,36.117693978476986,36.74040019977444,101.72410293322862,0.10986331420179905,0.11175747082449444,0.392578125,,
3.970560000000056,1350,,,,0,-0.349609375,-0.75390625,0.12327304983292361,4.036422131047661,22.955603195455655,1.5838111416757215,2847,0,36.35734010484946,36.75116027820958,101.08319302848999,0.10983114820026313,0.11102083154067888,0.39453125,,
3.988189999999944,1350,,,,-0.0625,-0.37109375,-0.7421875,0.12327304983292361,4.036422131047661,22.955710144211704,1.583201172447305,2848,0,36.343507214676464,36.76259089991237,101.15311844495479,0.1097969983137745,0.11106308775333733,0.39453125,,
4.007084999999963,1350,,,,-0.15625,-0.455078125,-0.787109375,0.12327304983292361,4.150014903465109,22.955632414358078,1.5822779854386162,2849,0,36.322191811059895,36.779035049005145,101.25775239644581,0.11283642700075039,0.11425562986541615,0.3984375,,
4.01444000000041,1350,,,,-0.03125,0.455078125,-1.166015625,0.12327304983292361,4.150014903465109,22.955734682008625,1.5811062573033638,2848,0,36.29545574671968,36.77002334522336,101.30751243851392,0.11286408127897532,0.11433979318031239,0.400390625,,
4.023504999999888,1350,,,,-0.0625,-0.109375,-0.96484375,0.12327304983292361,4.150014903465109,22.95585233948576,1.5810554048127614,2849,0,36.29447441342763,36.773338223881545,101.31938488762565,0.11285390731184648,0.11434288471001401,0.3984375,,
4.031314999999944,1350,,,,0,-0.251953125,-0.798828125,0.12327304983292361,4.150014903465109,22.95560770666036,1.5832646169924385,2849,0,36.344801443514285,36.77838940412888,101.19298481046445,0.11283840784499424,0.11418455291095496,0.400390625,,
4.038970000000205,1350,,,,-0.125,0.6875,-1.30078125,0.12327304983292361,4.150014903465109,22.95543257454098,1.5835338429555175,2850,0,36.35070436146914,36.78833944154046,101.20392462198117,0.11280788876213906,0.11416601071048361,0.40234375,,
4.046285000000149,1350,,,,0,-0.16015625,-0.84375,0.12327304983292361,4.150014903465109,22.955276830186165,1.5845606603091462,2850,0,36.37402861161903,36.792147672003566,101.14949890442153,0.11279621240004428,0.11409280362581177,0.40234375,,
4.054800000000279,1350,,,,-0.25,-0.1953125,-0.8828125,0.12327304983292361,4.150014903465109,22.954986672515687,1.5893250635793055,2850,0,36.48293565275811,36.793811899414884,100.85211412155995,0.11279111049461839,0.1137522194750073,0.40234375,,
4.063925000000279,1350,,,,0.0625,0.41796875,-1.134765625,0.12327304983292361,4.150014903465109,22.95446725749884,1.6024995257003023,2852,0,36.78452289284501,36.81111211333644,100.07228371717336,0.11273810176361349,0.1128195930542389,0.40234375,,
4.071760000000242,1350,,,,-0.09375,-0.490234375,-0.8125,0.12327304983292361,4.150014903465109,22.95415365151282,1.6108828966060615,2854,0,36.97645352328957,36.848594084471706,99.6542138938843,0.11262342584771663,0.1122339896889037,0.404296875,,
4.08310999999987,1350,,,,0.03125,0.54296875,-1.17578125,0.12327304983292361,4.150014903465109,22.954255919403842,1.6048530612088632,2858,0,36.83820788002692,36.88992533100565,100.14039078976687,0.11249724325077608,0.1126551790190418,0.40625,,
4.090540000000037,1350,,,,-0.09375,-0.5078125,-0.84765625,0.12327304983292361,4.150014903465109,22.954423506867432,1.5987721731646196,2861,0,36.69889355381547,36.931858448995904,100.63480086896573,0.11236951179146358,0.11308283442876835,0.41015625,,
4.098415000000503,1350,,,,0,0.478515625,-1.087890625,0.12353006765263376,4.150014903465109,22.954698874178387,1.5930337376122752,2862,0,36.56760974329668,37.02123480333835,101.24051055900591,0.1120982302592156,0.11348882064203994,0.41015625,,
4.106695000000298,1350,,,,-0.1875,-0.1015625,-1.09765625,0.12353006765263376,4.150014903465109,22.955080392345685,1.5874285543940994,2862,0,36.43955008322165,37.026015120956515,101.60941898677531,0.1120837575933529,0.11388765486915153,0.41015625,,
4.114479999999982,1350,,,,0.03125,-0.244140625,-0.744140625,0.12353006765263376,4.150014903465109,22.95532450313084,1.5825446188087646,2861,0,36.32782526543869,37.00389334754631,101.8610199679385,0.1121507638260527,0.11423791193505109,0.412109375,,
4.1239150000000375,1350,,,,-0.125,0.45703125,-1.26953125,0.12353006765263376,4.150014903465109,22.955410495382054,1.5792822818352465,2860,0,36.25307306761174,36.99593039621906,102.04908788621007,0.11217490299660732,0.1144734653452787,0.412109375,,
4.131785000000149,1350,,,,0,-0.046875,-0.87109375,0.12353006765263376,4.150014903465109,22.9557155895817,1.5781846147235739,2856,0,36.22835716344793,36.95030099654531,101.99275895906695,0.1123134261843528,0.11455156204687651,0.41015625,,
4.1409449999998325,1350,,,,-0.09375,0.0234375,-1.068359375,0.12353006765263376,4.150014903465109,22.9557296689745,1.5755013492697039,2855,0,36.16678306693989,36.932357310300794,102.1167883301756,0.11236799396792443,0.11474658655108984,0.412109375,,
4.1489550000000746,1350,,,,0,0.19140625,-1.0078125,0.12353006765263376,4.195174900109635,22.955743208501996,1.5721600741315709,2854,0,36.090102944423805,36.919250688684,102.29743801378739,0.11363109548145527,0.11624169946452927,0.4140625,,
4.1569599999999625,1350,,,,-0.3125,-0.5703125,-0.84375,0.12353006765263376,4.195174900109635,22.955624899805965,1.573831035021695,2853,0,36.12827489563142,36.902272449054955,102.14235956646003,0.113683375621413,0.11611888229451302,0.416015625,,
4.16564000000013,1350,,,,0.09375,0.5234375,-1.115234375,0.12353006765263376,4.195174900109635,22.95564533083937,1.572758636018874,2852,0,36.10368943946396,36.895239902976066,102.1924364955535,0.11370504463832584,0.11619795553426192,0.416015625,,
4.174660000000149,1350,,,,-0.0625,-0.396484375,-0.841796875,0.12353006765263376,4.195174900109635,22.955368521868863,1.5801689743975615,2851,0,36.27336113411959,36.88000199060758,101.67241423877142,0.11375202477424055,0.11565442983345574,0.41796875,,
4.183390000000131,1350,,,,-0.15625,0.341796875,-1.103515625,0.12353006765263376,4.195174900109635,22.95474433588359,1.6010185725162187,2851,0,36.7509720091111,36.88302160145627,100.35930911517777,0.11374271190254093,0.11415139983425715,0.41796875,,
4.191625000000466,1350,,,,0.125,0.1875,-1.09375,0.12353006765263376,4.195174900109635,22.954545775967148,1.6117354691624355,2852,0,36.99665560563901,36.89983466531961,99.7382981279404,0.1136908861017873,0.11339335492449777,0.41796875,,
4.199410000000149,1350,,,,-0.03125,-0.306640625,-0.763671875,0.12353006765263376,4.195174900109635,22.954815269514217,1.603746404214637,2857,0,36.81370244789467,36.958520550871924,100.39338097867831,0.11351035803327529,0.11395688619060786,0.41796875,,
4.207424999999814,1350,,,,-0.0625,0.44921875,-1.208984375,0.12353006765263376,4.195174900109635,22.95487247847564,1.5988356114178595,2861,0,36.70106757414259,37.006913813770225,100.83334425901856,0.113361922618595,0.11430661769265012,0.419921875,,
4.217180000000168,1350,,,,0.125,-0.3984375,-0.65625,0.12353006765263376,4.195174900109635,22.955210757816985,1.5915174651425124,2862,0,36.533618837093016,37.019140310645,101.32897174987501,0.1133244820086569,0.11483053236024415,0.419921875,,
4.2255950000002045,1350,,,,-0.125,0.03515625,-1.078125,0.12353006765263376,4.195174900109635,22.955475048957865,1.5862166281357313,2862,0,36.412356229411856,37.01926927838738,101.6667777420163,0.11332408720878956,0.11521294787072878,0.419921875,,
4.233805000000167,1350,,,,0.03125,0.201171875,-0.98828125,0.12353006765263376,4.195174900109635,22.955501029719244,1.5842029475876427,2859,0,36.36617239463239,36.98332156207227,101.69704185731399,0.11343423800018919,0.11535926449957758,0.421875,,
4.242575000000186,1350,,,,-0.09375,-0.154296875,-0.935546875,0.12353006765263376,4.195174900109635,22.95552865975067,1.581819071829292,2858,0,36.311493037917515,36.96839134641891,101.8090644408795,0.11348005004594329,0.11553297727881669,0.421875,,
4.250695000000298,1350,,,,0.0625,0.76953125,-1.140625,0.12381654890619431,4.195174900109635,22.955616900717875,1.5787691409092621,2856,0,36.2416195733885,37.03122146635313,102.17871580315474,0.11328751075417279,0.11575572365397457,0.423828125,,
4.259530000000261,1350,,,,-0.0625,-0.470703125,-0.861328125,0.12381654890619431,4.195174900109635,22.955783790842528,1.5776564239981232,2855,0,36.216339765534705,37.013207545262674,102.200299049785,0.11334264653987211,0.1158365237146901,0.42578125,,
4.269399999999907,1350,,,,-0.0625,0.423828125,-1.1484375,0.12381654890619431,4.195174900109635,22.95589262142689,1.5733022756940978,2853,0,36.11655810188027,36.991156834291374,102.42160044693065,0.11341021095670743,0.11615655313210005,0.42578125,,
4.278625000000465,1350,,,,0.0625,-0.224609375,-0.84375,0.12381654890619431,4.195174900109635,22.955959265521855,1.5705803729314132,2852,0,36.054179064241644,36.9771647071278,102.55999628015817,0.11345312528250615,0.1163575210694615,0.42578125,,
4.285950000000186,1350,,,,-0.1875,0.248046875,-1.0703125,0.12381654890619431,4.195174900109635,22.955813638624356,1.569423451530504,2851,0,36.02739227342086,36.97058748789217,102.61799468391486,0.11347330905908785,0.11644403425791706,0.42578125,,
4.300620000000111,1350,,,,-0.21875,-0.486328125,-0.822265625,0.12381654890619431,4.200147590205528,22.955740892803583,1.581168740469216,2849,0,36.29689991401192,36.94375605164282,101.78212502765614,0.11369032386242045,0.11571642757799597,0.4296875,,
