Time (s),ESC signal (µs),Servo 1 (µs),Servo 2 (µs),Servo 3 (µs),AccX (g),AccY (g),AccZ (g),Torque (N·m),Thrust (N),Voltage (V),Current (A),Motor Electrical Speed (RPM),Motor Optical Speed (RPM),Electrical Power (W),Mechanical Power (W),Motor Efficiency (%),Propeller Mech. Efficiency (N/W),Overall Efficiency (N/W),Vibration (g),App message,90% settling time (s),Max acceleration (RPM/s),
0,1000,,,,-0.0625,0.048828125,-0.955078125,-0.001088176787457367,-0.014347788173740142,22.664867020256636,0.05154303931606252,0,0,1.1682161319184166,0,0,0,0,0.05859375,,
0,1200,,,,-0.0625,0.05078125,-0.955078125,-0.001088176787457367,-0.014347788173740142,22.665251128442236,0.051787159217525955,0,0,1.173768968893848,0,0,0,0,0.05859375,,
0.008399999999441207,1200,,,,-0.0625,0.044921875,-0.953125,-0.001088176787457367,-0.014347788173740142,22.665387229916476,0.05299569367921944,0,0,1.2011679187575457,0,0,0,0,0.05859375,,
0.016919999999925495,1200,,,,-0.0625,0.046875,-0.955078125,-0.001088176787457367,-0.017004610149953813,22.66538435047179,0.05307929535289507,0,0,1.203062630225578,0,0,0,0,0.05859375,,
0.025169999999925495,1200,,,,-0.0625,0.05078125,-0.95703125,-0.001088176787457367,-0.017004610149953813,22.665512921433432,0.05165820435947334,0,0,1.1708596984076918,0,0,0,0,0.05859375,,
0.03376499999966472,1200,,,,-0.0625,0.05078125,-0.95703125,-0.001088176787457367,-0.017004610149953813,22.665158734358172,0.05264029999732864,0,0,1.1931007552636876,0,0,0,0,0.05859375,,
0.0421949999993667,1200,,,,-0.125,0.103515625,-0.984375,-0.001088176787457367,-0.017004610149953813,22.66351976029067,0.10146414646435652,0,0,2.2995346883559704,0,0,0,0,0.060546875,,
0.05016999999899417,1200,,,,0,0.046875,-1.021484375,-0.001088176787457367,-0.017004610149953813,22.661905704712424,0.1487091991794865,0,0,3.3700338492288213,0,0,0,0,0.0625,,
0.058399999999441204,1200,,,,-0.1875,0.01171875,-0.8671875,-0.001112028674187677,-0.017004610149953813,22.660631425683015,0.17588845760182062,0,0,3.985743509746731,0,0,0,0,0.0625,,
0.06578499999921769,1200,,,,0.03125,0.037109375,-0.984375,-0.001112028674187677,-0.017004610149953813,22.66013947910553,0.18822515517738667,0,0,4.265208269795864,0,0,0,0,0.06640625,,
0.07424499999918044,1200,,,,0,0.01171875,-1.0078125,-0.001112028674187677,-0.017004610149953813,22.659739344681334,0.20064254458954311,0,0,4.5465077618526495,0,0,0,0,0.068359375,,
0.08237000000011176,1200,,,,-0.1875,0.2265625,-0.96484375,-0.001112028674187677,-0.017004610149953813,22.659098653202143,0.21464728076202605,0,0,4.863713910428327,0,0,0,0,0.0703125,,
0.09129000000003726,1200,,,,0.0625,0.12109375,-0.833984375,-0.001112028674187677,-0.017004610149953813,22.658500840709852,0.2520798609123128,0,0,5.711751740407663,0,0,0,0,0.07421875,,
0.09942499999981373,1200,,,,0.03125,0.087890625,-1.12109375,-0.001112028674187677,-0.017004610149953813,22.657850767872947,0.271865788706075,0,0,6.159894469392325,0,0,0,0,0.08203125,,
0.10640499999932945,1200,,,,0.1875,0.03125,-1.2421875,-0.001112028674187677,-0.017004610149953813,22.657540634484967,0.28103312445393636,0,0,6.3675194369513335,0,0,0,0,0.0859375,,
0.11688999999966472,1200,,,,-0.125,0.103515625,-0.951171875,-0.001112028674187677,-0.017004610149953813,22.657269257641573,0.2882214408284186,0,0,6.530310790674888,0,0,0,0,0.087890625,,
0.12808499999996276,1200,,,,-0.0625,-0.04296875,-0.91015625,-0.001112028674187677,-0.017004610149953813,22.657325811264695,0.2919539234571734,2,0,6.614895165646212,0.00022096978082764763,0.0033404880242884545,76.95445995494333,0.002570654518950736,0.087890625,,
0.13610999999940396,1200,,,,0,0.189453125,-1.046875,-0.001112028674187677,-0.017004610149953813,22.657461995694796,0.2921295770108492,2,0,6.618914788941711,0.00022096978082764763,0.0033384593679438826,76.95445995494333,0.0025690933774164294,0.08984375,,
0.1451049999995157,1200,,,,-0.0625,-0.0078125,-0.95703125,-0.001112028674187677,-0.017004610149953813,22.65760174492812,0.28920514210831894,2,0,6.552694932475632,0.00022096978082764763,0.0033721969831451387,76.95445995494333,0.002595055976996233,0.08984375,,
0.15338499999884517,1200,,,,-0.03125,-0.04296875,-0.955078125,-0.001112028674187677,-0.017004610149953813,22.657852185869526,0.28532802016546255,2,0,6.46492010539585,0.00022096978082764763,0.0034179816181056665,76.95445995494333,0.002630289295572449,0.08984375,,
0.16210999999940395,1200,,,,-0.125,0.18359375,-0.95703125,-0.001112028674187677,-0.018049539670625038,22.65829690982287,0.2799557792381649,2,0,6.343321167599165,0.00022096978082764763,0.0034835029630271865,81.68329444424506,0.0028454399822634975,0.08984375,,
0.1702299999995157,1200,,,,-0.03125,0.06640625,-1.033203125,-0.001112028674187677,-0.018049539670625038,22.65831505688567,0.2757319439983287,2,0,6.247621258361687,0.00022096978082764763,0.003536862618423072,81.68329444424506,0.0028890259066949534,0.091796875,,
0.17796999999973923,1200,,,,-0.0625,-0.078125,-0.904296875,-0.001112028674187677,-0.018049539670625038,22.6582995957242,0.2713593831116113,2,0,6.1485422006537895,0.0002209697808276476,0.003593856455992956,81.68329444424506,0.002935580350852237,0.091796875,,
0.1865249999994412,1200,,,,-0.03125,0.064453125,-0.98046875,-0.001112028674187677,-0.018049539670625038,22.658515150107725,0.26836801006054994,276,0,6.080820621761233,0.0321052402305362,0.52797545310977,0.5621991781097969,0.002968273658004603,0.091796875,,
0.19412000000011176,1200,,,,-0.0625,0.11328125,-1.09765625,-0.001112028674187677,-0.018049539670625038,22.65858832375092,0.2659601948351676,520,0,6.026282565274648,0.060535961460419244,1.0045324095694859,0.2981622697514522,0.002995136632761333,0.091796875,,
0.20236999999918043,1200,,,,-0.03125,0.04296875,-1.0078125,-0.001112028674187677,-0.018049539670625038,22.65865764246699,0.2646370957721123,616,0,5.996321352597041,0.07168762237527883,1.1955266931154467,0.2517804200024542,0.003010102129167523,0.09375,,
0.2103449999988079,1200,,,,0,0.234375,-1.08203125,-0.0009530654870380595,-0.018049539670625038,22.658802554976063,0.26430557544715744,655,0,5.988847848236469,0.06540537555494938,1.092119506328905,0.2759641622340503,0.003013858446235209,0.09375,,
0.21721499999891966,1200,,,,0.03125,0.02734375,-1.076171875,-0.0009530654870380595,-0.018049539670625038,22.658853354264956,0.26295704705657263,668,0,5.958305167725428,0.06666746691005336,1.118899838685227,0.27073984519281613,0.003029307691119053,0.09765625,,
0.22629499999899416,1200,,,,0.0625,1.11328125,-0.99609375,-0.0009530654870380595,-0.018049539670625038,22.658916510479735,0.2605631181122977,674,0,5.904077939016823,0.06730872797715856,1.1400379309417983,0.26816046318317305,0.003057130996077389,0.107421875,,
0.23347499999962748,1200,,,,-0.375,-0.923828125,-0.556640625,-0.0009530654870380595,-0.018049539670625038,22.658963493664526,0.2562465586948032,676,0,5.806281418842709,0.06751099038736683,1.16272335970968,0.26735705648902175,0.003108622949630061,0.12109375,,
0.2422599999997765,1200,,,,0.09375,0.669921875,-1.32421875,-0.0009530654870380595,-0.018049539670625038,22.65911689031333,0.24979252421091033,677,0,5.6600780044214405,0.06760665622589764,1.1944474294008995,0.26697873668407995,0.0031889206573699896,0.130859375,,
0.2502849999992177,1200,,,,0,-0.078125,-0.9453125,-0.0009530654870380595,-0.018049539670625038,22.65935396399668,0.24262774749811136,695,0,5.497788012046915,0.06932179714277004,1.2609034213554626,0.26037322190957546,0.0032830548633512886,0.1328125,,
0.2589799999995157,1200,,,,0,-0.228515625,-0.994140625,-0.0009530654870380595,-0.018049539670625038,22.65953544512179,0.23779367105632584,702,0,5.388294117926447,0.07004627952148315,1.2999713450764403,0.2576802050577041,0.0033497688276843654,0.142578125,,
0.26996999999973925,1200,,,,-0.03125,0.490234375,-1.107421875,-0.0009530654870380595,-0.018049539670625038,22.659755671431476,0.23303955774678767,704,0,5.280619440320655,0.0702932406415526,1.331155206997537,0.25677489764151484,0.0034180724202176205,0.154296875,,
0.28734999999962746,1200,,,,-0.0625,-0.28515625,-0.5,-0.0009530654870380595,-0.018049539670625038,22.658789352002472,0.2770282760375011,706,0,6.277125351282131,0.07043565417724831,1.1221004876517484,0.2562557256187916,0.002875446746803987,0.18359375,,
0.2951949999993667,1200,,,,-0.03125,0.322265625,-0.90625,-0.0009530654870380595,-0.018049539670625038,22.658459444752864,0.31027638143684766,763,0,7.030384805451483,0.07611083666178013,1.082598446144263,0.23714809168152012,0.002567361555604909,0.1953125,,
0.30373499999940395,1200,,,,-0.25,0.125,-1.1875,-0.0009530654870380595,-0.018049539670625038,22.656695547930216,0.35202718737231725,814,0,7.9757728088887765,0.08124128903824299,1.0186008426381181,0.22217200002979418,0.0022630458644094438,0.197265625,,
0.3122599999988452,1200,,,,0.09375,0.12890625,-1.080078125,-0.0009530654870380595,-0.01850277606231241,22.65512085744001,0.40191466322740166,835,0,9.105425269794084,0.0833678318109343,0.9155841637347228,0.2219414330490677,0.002032060613763166,0.201171875,,
0.3212000000001863,1200,,,,0.03125,-0.580078125,-0.833984375,-0.0009530654870380595,-0.01850277606231241,22.652911752589315,0.4511784528904936,843,0,10.220505677998126,0.08412984808871062,0.8231476087315183,0.21993117166694728,0.0018103581804316865,0.20703125,,
0.32909499999973924,1200,,,,-0.0625,1.00390625,-1.16015625,-0.0009530654870380595,-0.01850277606231241,22.65168035449065,0.486301154602667,846,0,11.015538310079352,0.08439105703697783,0.7661092418857005,0.21925043614757667,0.0016796978542012917,0.216796875,,
0.3393399999989197,1200,,,,0.03125,0.4375,-1.783203125,-0.0009530654870380595,-0.01850277606231241,22.650743771088422,0.5115010892711633,1017,0,11.585880111713745,0.10147219903606021,0.8758264202429311,0.1823433042555535,0.0015970108342140904,0.232421875,,
0.3480649999994785,1200,,,,-0.46875,-1.19921875,-0.078125,-0.0009530654870380595,-0.01850277606231241,22.650449324344855,0.5227789136300806,1078,0,11.841177291014196,0.10756261750984808,0.9083777302403294,0.17201864821315227,0.0015625790922287293,0.2578125,,
0.3556949999993667,1200,,,,0.625,1.3984375,-1.50390625,0.0030946408506712683,-0.01850277606231241,22.650094421980896,0.5347470358283505,1100,0,12.11207085338654,0.35644249589733157,2.9428699700651944,0.051909568234091485,0.0015276310951515798,0.283203125,,
0.3632049999991432,1200,,,,0.0625,-0.4453125,-1.01171875,0.0030946408506712683,-0.01850277606231241,22.649826229849218,0.5397817791391735,1107,0,12.225963499541129,0.35872626330638774,2.934134911492674,0.05157909513446805,0.0015134002373724464,0.29296875,,
0.37144999999925493,1200,,,,-0.1875,-0.42578125,-0.51171875,0.0030946408506712683,-0.01850277606231241,22.649932014681468,0.541934851007894,1234,0,12.27478753171533,0.3999734523820572,3.2584959319956823,0.046260010388485574,0.0015073805566495826,0.306640625,,
0.37913499999977646,1200,,,,0.1875,1.38671875,-1.375,0.0030946408506712683,-0.01850277606231241,22.64977201001652,0.5414451940360604,1285,0,12.263610200835924,0.41641460154671367,3.39553031062851,0.04443354290072068,0.001508754417280093,0.31640625,,
0.38750999999884517,1200,,,,-0.125,-0.771484375,-0.857421875,0.0030946408506712683,-0.01850277606231241,22.64988176367127,0.5400156141666653,1305,0,12.231289811411294,0.4229225140024178,3.4577098615376474,0.04374980155870026,0.0015127412028983298,0.32421875,,
0.4047649999996647,1200,,,,-0.03125,0.1640625,-0.970703125,0.0030946408506712683,-0.01850277606231241,22.650066387990076,0.5321409356243949,1410,0,12.053027519659699,0.4568563988726294,3.7903870884510202,0.04050020117474801,0.0015351143961243364,0.32421875,,
0.41241999999899415,1200,,,,-0.125,0.052734375,-0.95703125,0.0030946408506712683,-0.01850277606231241,22.650159852455566,0.526153904958931,1439,0,11.917470054313501,0.466313600166709,3.912857326609584,0.039678825699481196,0.0015525758384947962,0.322265625,,
0.4221699999989942,1200,,,,0.1875,0.0625,-1.0625,0.0030946408506712683,-0.01850277606231241,22.650376809257292,0.52048086485922,1451,0,11.789087711069454,0.47008039960133924,3.9874196470686503,0.039360875454505326,0.0015694832811311672,0.3203125,,
0.4386499999994412,1200,,,,-0.0625,0.03125,-0.962890625,0.0030946408506712683,-0.01850277606231241,22.650744587579556,0.5026736764090765,1506,0,11.385933055241606,0.48798550060978946,4.285863075447659,0.03791665129228478,0.0016250557571822809,0.31640625,,
0.453589999999851,1200,,,,-0.03125,0.103515625,-1.0390625,0.0030946408506712683,-0.01850277606231241,22.65115549808173,0.4910929155898546,1523,0,11.123821995032122,0.49367888099145235,4.438032910018952,0.037479375308000606,0.0016633470106385841,0.310546875,,
0.4643249999992549,1200,,,,0.0625,0.04296875,-0.98046875,0.0030946408506712683,-0.19645529626726146,22.651449007835915,0.4817353527469944,1536,0,10.912003778020392,0.49764820524526704,4.560557486679575,0.3947674164130423,0.018003594964196536,0.30859375,,
0.4937749999994412,1200,,,,0,0.13671875,-1.021484375,0.0030946408506712683,-0.19645529626726146,22.65217127731154,0.456404109907421,1553,0,10.33854406929182,0.5033313002148926,4.868493057063211,0.3903101122131422,0.019002220714112453,0.306640625,,
0.5143349999990314,1200,,,,-0.125,-0.146484375,-0.84765625,0.01528718142226278,-0.19645529626726146,22.65276062780481,0.4367955875344118,1564,0,9.894625887698393,2.5034204753250084,25.300809790468325,0.07847475012832453,0.01985474726351269,0.306640625,,
0.5225549999987706,1200,,,,0.03125,0.244140625,-1.115234375,0.01528718142226278,-0.19645529626726146,22.652904862442185,0.4306977446040158,1567,0,9.756555032983192,2.5083650258379477,25.709535972052862,0.07832005878077228,0.020135723685575597,0.306640625,,
0.5300849999999627,1200,,,,-0.125,0.11328125,-0.91796875,0.01528718142226278,-0.19645529626726146,22.65315372384603,0.4245148033712662,1568,0,9.616599098817565,2.5105824472102936,26.106760003325803,0.078250884166564,0.020428770529845333,0.3046875,,
0.5381849999995902,1200,,,,0.03125,-0.001953125,-0.958984375,0.01528718142226278,-0.19645529626726146,22.653684432641437,0.4186230103967732,1572,0,9.483353573770875,2.5163713881746173,26.53461529826763,0.07807086711861347,0.020715804249945808,0.3046875,,
0.5465099999997765,1200,,,,-0.15625,-0.029296875,-0.98828125,0.01528718142226278,-0.19645529626726146,22.65379883095067,0.4140340585033514,1573,0,9.379444270496982,2.518671285167879,26.85309718285073,0.07799957756463126,0.020945302365643466,0.310546875,,
0.554129999998957,1200,,,,-0.1875,-0.3984375,-0.8515625,0.01528718142226278,-0.19645529626726146,22.65390665788756,0.40865173659677717,1574,0,9.257558296447044,2.5195692765597184,27.216347938383528,0.07797177799195358,0.021221070392034042,0.314453125,,
0.562269999999553,1200,,,,0.03125,0.490234375,-1.1171875,0.01528718142226278,-0.19645529626726146,22.654008577943973,0.4041921808121686,1575,0,9.15657313125675,2.5221619939583713,27.54482444254996,0.07789162501768473,0.021455111366570585,0.31640625,,
0.5706749999998137,1200,,,,-0.0625,-0.2421875,-0.828125,0.01528718142226278,-0.19645529626726146,22.654041253130448,0.40009954563552297,1577,0,9.063871612185885,2.5243273032709546,27.85043093369872,0.07782481139141506,0.021674545345847347,0.31640625,,
0.5838849999997765,1200,,,,0.0625,-0.083984375,-0.986328125,0.01528718142226278,-0.19645529626726146,22.654411322035894,0.39292232737604,1577,0,8.901424021988454,2.525273476338292,28.36932012339056,0.07779565188009911,0.022070097523943826,0.31640625,,
0.5929849999994039,1200,,,,-0.166015625,-0.25390625,-0.859375,0.01528718142226278,-0.19645529626726146,22.65458495072231,0.38552230216639216,1578,0,8.733847744826567,2.526134893216118,28.923505046357782,0.07776912341254541,0.022493556334735786,0.322265625,,
0.6001849999995902,1200,,,,0,0.7578125,-1.14453125,0.01528718142226278,-0.19645529626726146,22.654653129650512,0.38076257243198053,1578,0,8.626044003199947,2.5267801982911893,29.29245662732356,0.07774926224296053,0.02277466892058326,0.328125,,
0.6084699999997393,1200,,,,-0.125,0.078125,-1.0625,0.01528718142226278,-0.5100991442871047,22.654914802785033,0.37605575314125705,1579,0,8.519511048512339,2.5270402990687497,29.661799658209453,0.20185635522911266,0.059874227685423005,0.328125,,
0.6163399999989196,1200,,,,0.03125,0.080078125,-1.125,0.01528718142226278,-0.5100991442871047,22.654968710964077,0.37539176915817213,1579,0,8.504488784631839,2.527295394155474,29.717193568677054,0.2018359806561355,0.059979989062821364,0.326171875,,
0.6240549999997019,1200,,,,-0.3125,0.4296875,-0.67578125,0.01528718142226278,-0.5100991442871047,22.65495416056749,0.3761347887618639,1579,0,8.521316397594761,2.527467390487235,29.66052746498935,0.2018222455438959,0.0598615425700055,0.328125,,
0.6313099999995903,1200,,,,-0.125,-0.36328125,-0.88671875,0.01528718142226278,-0.5100991442871047,22.654999003742905,0.37751174629254414,1579,0,8.552528236158832,2.52753230392218,29.553042493752262,0.2018170622371638,0.05964308216259146,0.33203125,,
0.6395649999994785,1200,,,,-0.0625,0.4375,-1.24609375,0.01528718142226278,-0.5100991442871047,22.655245846417397,0.37581621428559675,1579,0,8.514208727710077,2.5275630591683917,29.686411738324715,0.20181460653841624,0.059911515045074235,0.333984375,,
0.6474699999997392,1200,,,,-0.0625,-0.0859375,-0.888671875,0.01528718142226278,-0.5100991442871047,22.655543109695394,0.3704057758188846,1586,0,8.391744022144907,2.539362719653777,30.260249990379506,0.20087683430929978,0.06078583223475455,0.333984375,,
0.6564699999997392,1200,,,,0.125,0.3203125,-1.048828125,0.01982698329357515,-0.5100991442871047,22.65571786401978,0.36475610449263507,1589,0,8.263811392564058,3.2999640213355073,39.93271221442542,0.1545771835659789,0.06172686186256647,0.33203125,,
0.6643149999994784,1200,,,,-0.1875,-0.58984375,-0.76953125,0.01982698329357515,-0.5100991442871047,22.655829628416154,0.3600332149704681,1590,0,8.156851178941853,3.3021085531031504,40.48263822230867,0.15447679447356144,0.06253628184415119,0.337890625,,
0.6722849999992176,1200,,,,-0.1875,0.7265625,-1.078125,0.01982698329357515,-0.5100991442871047,22.655903376419474,0.35601468993710617,1591,0,8.065834415801016,3.3026587998806884,40.94627573076334,0.1544510575253891,0.06324195588342572,0.34375,,
0.6808199999993667,1200,,,,0.15625,-0.033203125,-1.072265625,0.01982698329357515,-0.5100991442871047,22.656010688604376,0.3533564565457061,1591,0,8.005647656386884,3.3028807250179133,41.25688347504132,0.15444067974460027,0.06371741128029147,0.34375,,
0.6895899999998509,1200,,,,-0.3125,0.18359375,-0.92578125,0.01982698329357515,-0.5100991442871047,22.656080011214435,0.3505482847325449,1591,0,7.942049986694517,3.3029664883431438,41.58833668733731,0.1544366696081691,0.0642276421253561,0.34375,,
0.6982849999992177,1200,,,,0.03125,0.390625,-1.1171875,0.01982698329357515,-0.5100991442871047,22.656075687300245,0.34756316576297996,1589,0,7.874417389643755,3.3000900660810815,41.909006124329665,0.15457127959324363,0.0647792870311872,0.345703125,,
0.7077949999999255,1200,,,,-0.09375,-0.673828125,-0.708984375,0.01982698329357515,-0.5100991442871047,22.65629346409317,0.3446684575640208,1588,0,7.808909722386799,3.297561334551246,42.228191281270746,0.15468981242058455,0.06532270988160335,0.353515625,,
0.7150099999997764,1200,,,,0.1875,0.328125,-1.2109375,0.01982698329357515,-0.5100991442871047,22.65637592892115,0.3414507652570363,1588,0,7.736036898881224,3.296723036779491,42.61514105828863,0.15472914727632422,0.06593804437009272,0.35546875,,
0.722195000000298,1200,,,,-0.1875,-0.06640625,-0.8984375,0.01982698329357515,-0.5100991442871047,22.656359231150024,0.3384425664442934,1587,0,7.667876364474272,3.295704203790686,42.980664360472474,0.15477698019755343,0.0665241743659854,0.35546875,,
0.7305149999996647,1200,,,,0.0625,0.025390625,-1.142578125,0.01982698329357515,-0.5100991442871047,22.656438666839374,0.3361487553201187,1587,0,7.615933657844665,3.294514435081266,43.25818189983583,0.15483287578144184,0.06697788704628296,0.353515625,,
0.7407849999992177,1200,,,,-0.21875,-0.296875,-0.732421875,0.01982698329357515,-0.5100991442871047,22.65641692448925,0.3345590779649726,1587,0,7.579909956247123,3.2940341308337433,43.45743089096862,0.15485545201621664,0.06729620104084443,0.359375,,
0.7485949999997392,1200,,,,-0.1875,0.3671875,-1.01953125,0.01982698329357515,-0.5100991442871047,22.656390373328154,0.33178832307589734,1586,0,7.517125768919452,3.292986883524195,43.806462533053306,0.15490469969354698,0.06785826923319241,0.36328125,,
0.757074999999255,1200,,,,0.03125,0.171875,-1.080078125,0.01982698329357515,-0.6960986702642367,22.656564789197244,0.33202254519952956,1586,0,7.5224903067873115,3.2919675818637004,43.76167263244539,0.21145368323164054,0.09253566862507862,0.36328125,,
0.7665349999992177,1200,,,,-0.0625,-0.009765625,-0.9140625,0.01982698329357515,-0.6960986702642367,22.656465219935168,0.33101332701480685,1585,0,7.499591930845997,3.291542395068512,43.88961993425697,0.21148099787721183,0.09281820620148232,0.361328125,,
0.7736249999990686,1200,,,,-0.15625,0.17578125,-1.00390625,0.01982698329357515,-0.6960986702642367,22.65665813742862,0.33025472826215624,1585,0,7.48246847650506,3.291380440508892,43.9878958507319,0.211491403940108,0.09303061849842541,0.361328125,,
0.7820400000000373,1200,,,,-0.0625,0.00390625,-0.900390625,0.01982698329357515,-0.6960986702642367,22.65682211802542,0.3289713369126765,1587,0,7.453445062359521,3.2945737663888734,44.20202656388692,0.21128641202871554,0.0933928759708164,0.3671875,,
0.7908649999992922,1200,,,,0.0625,0.296875,-1.265625,0.01982698329357515,-0.6960986702642367,22.65678004080323,0.3259200210759806,1587,0,7.384298228412446,3.2958620013918605,44.63338152717648,0.2112038276997855,0.09426741021724569,0.369140625,,
0.7999549999991432,1200,,,,-0.125,-0.05859375,-0.875,0.01982698329357515,-0.6960986702642367,22.65695406326062,0.3228651050614431,1588,0,7.31513985400693,3.296365835059149,45.06223942189617,0.21117154621029677,0.09515862774420406,0.369140625,,
0.8084449999993667,1200,,,,0,0.404296875,-1.0859375,0.027736818325932618,-0.6960986702642367,22.657123117024316,0.32074118473118307,1589,0,7.267072511154654,4.614773956299621,63.50251699313768,0.15084133629427143,0.09578804521294566,0.369140625,,
0.8170849999990314,1200,,,,-0.1875,-0.94140625,-0.59375,0.027736818325932618,-0.6960986702642367,22.65719733831193,0.3188978773687122,1589,0,7.225332138311711,4.615879570984303,63.884669695791466,0.150805206149648,0.09634140783276002,0.376953125,,
0.8239249999988825,1200,,,,0,0.201171875,-1.01953125,0.027736818325932618,-0.6960986702642367,22.657334623748074,0.3166854887912606,1589,0,7.175249090028812,4.616327880051715,64.33683098844418,0.15079056088547127,0.09701386830341265,0.376953125,,
0.8313150000004098,1200,,,,0.125,0.08203125,-1.015625,0.027736818325932618,-0.6960986702642367,22.65727705065484,0.31529928653468076,1588,0,7.143823288890067,4.612068571772428,64.5602275597302,0.15092981802669173,0.09744063397351886,0.376953125,,
0.8394950000001118,1200,,,,-0.125,0,-0.919921875,0.027736818325932618,-0.6960986702642367,22.657411803523477,0.31732074908221947,1586,0,7.189666885758391,4.605286824120628,64.05424475566431,0.15115207735126368,0.09681932157984949,0.375,,
0.8474999999990687,1200,,,,-0.125,0.3125,-1.009765625,0.027736818325932618,-0.6960986702642367,22.657146414089453,0.31603309766856186,1585,0,7.160408165574839,4.602644009674149,64.279073248957,0.15123886809432346,0.09721494280324364,0.376953125,,
0.855875,1200,,,,-0.03125,-0.3828125,-0.888671875,0.027736818325932618,-0.6960986702642367,22.657286362945143,0.3160857234197588,1584,0,7.161644750760152,4.600916062059468,64.243846521026,0.15129566827016794,0.09719815691644734,0.3828125,,
0.8632949999999255,1200,,,,0.1875,0.55859375,-1.265625,0.027736818325932618,-0.6960986702642367,22.657288646040413,0.3146589346181098,1583,0,7.129318306698072,4.598871973840416,64.5064755983714,0.15136291556360507,0.0976388821930204,0.384765625,,
0.8717900000000373,1200,,,,-0.125,-0.001953125,-0.857421875,0.027736818325932618,-0.6960986702642367,22.65732400447453,0.31413440988486757,1583,0,7.11744510571585,4.5980506138194865,64.60254410851589,0.1513899538582949,0.0978017617171668,0.3828125,,
0.8801249999990687,1200,,,,0.0625,0.046875,-1.0078125,0.027736818325932618,-0.6960986702642367,22.65725927587247,0.31300578092980136,1583,0,7.091853133373448,4.597732086352918,64.8311802273022,0.15140044204193864,0.09815469344514145,0.380859375,,
0.891254999998957,1200,,,,-0.125,0.12890625,-1.03125,0.027736818325932618,-0.6960986702642367,22.65730442818143,0.31206639898921035,1583,0,7.070583403704869,4.598201452724441,65.03284368748213,0.1513849876785623,0.0984499624033135,0.380859375,,
0.9071849999995902,1200,,,,0.09375,0.015625,-1.09375,0.027736818325932618,-0.8447673595312317,22.65695512597323,0.31055035921327634,1583,0,7.036125553050069,4.598786529076065,65.35964280913878,0.18369353615136222,0.12006143909200655,0.388671875,,
0.9156549999993294,1200,,,,-0.25,0.015625,-0.859375,0.027736818325932618,-0.8447673595312317,22.65668176083533,0.31139102883879,1583,0,7.055087443579562,4.599285094983747,65.19104308436741,0.1836736236361136,0.11973875111923764,0.38671875,,
0.9258799999989569,1200,,,,0.03125,0.484375,-1.109375,0.027736818325932618,-0.8447673595312317,22.656551808921655,0.3107217292345169,1584,0,7.039882956559559,4.599451795495745,65.3342083082519,0.18366696664992002,0.11999735858450629,0.38671875,,
0.932714999999851,1200,,,,-0.0625,-0.583984375,-0.80859375,0.027736818325932618,-0.8447673595312317,22.656699114499794,0.3107141917141806,1584,0,7.039757952273194,4.5995256600622465,65.33641769000059,0.18366401711079905,0.11999948936574582,0.39453125,,
0.9399199999989942,1200,,,,0,0.69921875,-1.19140625,0.027736818325932618,-0.8447673595312317,22.65675598264226,0.309571462531093,1584,0,7.013885085756656,4.599739518344231,65.58048017759921,0.18365547791613268,0.12044214428986448,0.396484375,,
0.947535000000149,1200,,,,0.0625,-0.1015625,-0.927734375,0.027736818325932618,-0.8447673595312317,22.656908567752687,0.30808935632661827,1584,0,6.980352376989968,4.600037036166373,65.89978252860034,0.18364359958180962,0.12102073275210613,0.39453125,,
0.9552649999987334,1200,,,,0.0625,0.126953125,-1.138671875,0.027736818325932618,-0.8447673595312317,22.656957794116032,0.3067354206314551,1584,0,6.949691479207306,4.600155602788654,66.1922276197699,0.1836388662633774,0.1215546563554196,0.392578125,,
0.9633199999993667,1200,,,,-0.4375,0.62890625,-0.609375,0.027222511202111825,-0.8447673595312317,22.656976352253814,0.3063919973042527,1584,0,6.941916237442268,4.514909205667951,65.03837054841011,0.1871061678207666,0.12169080274620027,0.39453125,,
0.9707349999994039,1200,,,,-0.0625,-0.35546875,-0.83984375,0.027222511202111825,-0.8447673595312317,22.657108337345996,0.30316290923158706,1582,0,6.868794878325058,4.510387743614545,65.66490663227366,0.18729373338848473,0.12298625515764806,0.40234375,,
0.9787349999994039,1200,,,,0.1875,0.45703125,-1.31640625,0.027222511202111825,-0.8447673595312317,22.657151820238184,0.30257357279779873,1581,0,6.855455375671616,4.508311768499792,65.76239682776902,0.18737997789632474,0.12322556463996698,0.40234375,,
0.9879199999989942,1200,,,,-0.125,0.03125,-0.908203125,0.027222511202111825,-0.8447673595312317,22.65716180477746,0.3021795728714443,1581,0,6.846531476646855,4.507436874718869,65.8353341409952,0.18741634836182156,0.12338617917885679,0.400390625,,
0.9969149999991059,1200,,,,0.03125,0.251953125,-1.072265625,0.027222511202111825,-0.8447673595312317,22.657022115664034,0.300219216419798,1581,0,6.80207342597069,4.507694747074272,66.26942205392324,0.18740562680725656,0.12419262578170115,0.396484375,,
1.005859999999404,1200,,,,-0.0625,-0.59375,-0.791015625,0.027222511202111825,-0.8447673595312317,22.65711123685174,0.2983118301744186,1581,0,6.758884319530628,4.508066656501782,66.69838457621132,0.18739016609545064,0.12498621364034483,0.400390625,,
1.0137099999999628,1200,,,,-0.1875,0.6875,-1.0234375,0.027222511202111825,-0.8447673595312317,22.65718742440429,0.2998693180796449,1581,0,6.794195342558821,4.508194762634169,66.35362298747653,0.18738484116370083,0.12433663104144377,0.404296875,,
1.0215949999997391,1200,,,,0.09375,0.025390625,-1.126953125,0.027222511202111825,-0.8447673595312317,22.65712930278544,0.30039412385051995,1581,0,6.806068505878174,4.506637531378301,66.21498927737899,0.18744959044284837,0.12411972621222286,0.404296875,,
1.0304799999995158,1200,,,,-0.0625,0.08203125,-0.92578125,0.027222511202111825,-0.8447673595312317,22.6571404409002,0.3008325122738017,1580,0,6.816004479776359,4.504286963866096,66.08397892387956,0.1875474112346864,0.12393879171261189,0.40234375,,
1.0377900000000373,1200,,,,-0.15625,-0.119140625,-0.9921875,0.027222511202111825,-0.8447673595312317,22.65727811835125,0.29910842298366447,1580,0,6.7769827270823315,4.503492111932424,66.45276066494115,0.18758051275208001,0.12465242919320914,0.404296875,,
1.0484199999999255,1200,,,,0.0625,-0.3203125,-0.78125,0.027222511202111825,-0.8447673595312317,22.657396195636732,0.29932421336771015,1580,0,6.781907293219513,4.504130977655672,66.41392727616403,0.18755390634108948,0.12456191496097598,0.408203125,,
1.055919999998994,1200,,,,0.0625,0.439453125,-1.146484375,0.027222511202111825,-0.9942160367911473,22.657302884127258,0.29855355440070735,1581,0,6.764418309189591,4.505637215434877,66.60790343663228,0.22066047248217854,0.14697731443374604,0.408203125,,
1.0649399999994784,1200,,,,-0.09375,-0.091796875,-0.90234375,0.027222511202111825,-0.9942160367911473,22.657440476609132,0.296845139003645,1581,0,6.7257510677458505,4.506036104144507,66.996771940516,0.22064093891229575,0.14782230665048401,0.40625,,
1.0732099999990314,1200,,,,0.3125,-0.03125,-1.28515625,0.027222511202111825,-0.9942160367911473,22.6573706555453,0.29677534761459246,1581,0,6.724149052332123,4.50605137688099,67.01296092355604,0.2206401910755235,0.14785752502709995,0.40625,,
1.0812549999998882,1200,,,,-0.21875,-0.2265625,-0.759765625,0.027222511202111825,-0.9942160367911473,22.657440837305415,0.29811020056189647,1581,0,6.754414232228421,4.5057755692840775,66.70860587414002,0.22065369690597314,0.14719500501572508,0.412109375,,
1.0899049999993295,1200,,,,-0.03125,0.435546875,-1.0859375,0.027222511202111825,-0.9942160367911473,22.65756704365004,0.29904638548416396,1581,0,6.775663528268659,4.505680273497919,66.49799321793103,0.22065836376341508,0.14673338377019335,0.4140625,,
1.0975499999988825,1200,,,,-0.0625,-0.00390625,-0.865234375,0.027222511202111825,-0.9942160367911473,22.65748959002452,0.29886651746127535,1581,0,6.771565008185728,4.50564273849386,66.53768712324649,0.2206602019945089,0.14682219480863,0.412109375,,
1.1057249999996275,1200,,,,-0.0625,0.1484375,-1.0390625,0.02448770095870213,-0.9942160367911473,22.657514637856973,0.29944108417685966,1581,0,6.78459074791296,4.054072195209533,59.7541155515773,0.24523885834247258,0.14654031079133004,0.41015625,,
1.1136949999993666,1200,,,,-0.09375,0.25390625,-0.896484375,0.02448770095870213,-0.9942160367911473,22.657538284490194,0.29966694048631665,1581,0,6.789715176664764,4.054494017913573,59.71522976174705,0.24521334410619433,0.14642971183947734,0.41015625,,
1.1217299999995156,1200,,,,0.0625,-1.02734375,-0.79296875,0.02448770095870213,-0.9942160367911473,22.657528253446905,0.3011590007886503,1581,0,6.823518569148684,4.054662241084517,59.42186864438159,0.2452031704927462,0.1457043058820587,0.416015625,,
1.129789999999106,1200,,,,-0.0625,0.451171875,-1.16015625,0.02448770095870213,-0.9942160367911473,22.65745321899888,0.3017289597823972,1582,0,6.83640979108686,4.055635583955517,59.32405616239029,0.24514432231642339,0.14542955544990607,0.416015625,,
1.1386499999994413,1200,,,,-0.09375,-0.083984375,-0.90234375,0.02448770095870213,-0.9942160367911473,22.657483422447754,0.3040129658232682,1582,0,6.8881687333498745,4.057004796688782,58.89816225096691,0.24506158770199132,0.14433677153951444,0.4140625,,
1.1468099999995902,1200,,,,0.125,0.07421875,-1.02734375,0.02448770095870213,-0.9942160367911473,22.657607003883914,0.30401654658677807,1582,0,6.888287435241183,4.05746609116482,58.90384408766697,0.24503372658025765,0.14433428426703515,0.412109375,,
1.1549400000004097,1200,,,,-0.15625,-0.056640625,-0.916015625,0.02448770095870213,-0.9942160367911473,22.657724949777275,0.30466126458454557,1583,0,6.902931135807954,4.058376478766758,58.79207540858287,0.24497875985454792,0.14402809722869692,0.4140625,,
1.1718999999994413,1200,,,,0.125,-0.103515625,-1.021484375,0.02448770095870213,-0.9942160367911473,22.657646407885455,0.30267556612666047,1583,0,6.857915953604425,4.059929794500667,59.200635032087625,0.244885031789922,0.14497349391816347,0.41796875,,
1.1800099999997764,1200,,,,-0.3125,0.1015625,-0.81640625,0.02448770095870213,-0.9942160367911473,22.65763080357245,0.30144772983578316,1583,0,6.830091369194226,4.060073451271058,59.44391124228902,0.24487636707160934,0.14556409029538928,0.416015625,,
1.1877199999997392,1200,,,,-0.03125,0.36328125,-1.1484375,0.02448770095870213,-0.9942160367911473,22.657560926377208,0.3023995137800269,1584,0,6.851635407577803,4.062825829261732,59.29716903453895,0.24471047457424705,0.14510638375351376,0.41796875,,
1.1981849999995902,1200,,,,-0.03125,-0.52734375,-0.78515625,0.02448770095870213,-0.9942160367911473,22.657481959657606,0.30182606035368276,1585,0,6.8386185174180945,4.064145863336077,59.4293401947282,0.2446309926423358,0.14538258483915426,0.423828125,,
1.2061049999995157,1200,,,,0.0625,0.73046875,-1.2890625,0.02448770095870213,-1.1205316465900028,22.657633579692575,0.3017662000744978,1585,0,6.837307988024169,4.06469770294353,59.44880221957264,0.2756740423226426,0.16388491619108878,0.42578125,,
1.2229299999997019,1200,,,,0.03125,0.1953125,-1.185546875,0.02448770095870213,-1.1205316465900028,22.65753132133395,0.29968846483486467,1583,0,6.790200778638433,4.059782410073417,59.78884192710841,0.27600780864749325,0.1650218724187256,0.421875,,
1.2302649999996647,1200,,,,-0.09375,-0.396484375,-0.72265625,0.02448770095870213,-1.1205316465900028,22.657650541673682,0.29864313362318096,1583,0,6.7665517583043915,4.059291572885678,59.990549365174495,0.27604118267203864,0.16559862195908084,0.42578125,,
1.2378200000002981,1200,,,,-0.3125,0.609375,-1,0.02448770095870213,-1.1205316465900028,22.65775282647697,0.2986910986855745,1583,0,6.767669085486586,4.059786302868512,59.987955255891755,0.276007543992715,0.16557128199323565,0.4296875,,
1.2460099999997765,1200,,,,0.0625,0.138671875,-1.12890625,0.02448770095870213,-1.1205316465900028,22.657569752898365,0.29895438964857274,1583,0,6.773579936397693,4.060015065812241,59.938985055684256,0.2759919922528245,0.16542679899130575,0.431640625,,
1.2538549999995157,1200,,,,-0.1875,0,-0.91796875,0.02448770095870213,-1.1205316465900028,22.657624459294908,0.2978052486591304,1583,0,6.747559486125515,4.060106631823626,60.17148333663614,0.2759857679123831,0.16606473035088692,0.427734375,,
1.262824999999255,1200,,,,0.03125,0.42578125,-1.08984375,0.019370327318084843,-1.1205316465900028,22.657427031694098,0.2974381757513981,1583,0,6.739183763527507,3.211363136696236,47.65210816888757,0.3489271063075027,0.1662711221282205,0.427734375,,
1.2705149999996648,1200,,,,-0.125,-0.630859375,-0.783203125,0.019370327318084843,-1.1205316465900028,22.657422402109002,0.2969086066489554,1583,0,6.727183715667012,3.210692025310286,47.727134578365536,0.34900004041393934,0.16656771896691097,0.431640625,,
1.2775499999998137,1200,,,,-0.125,0.84375,-1.078125,0.019370327318084843,-1.1205316465900028,22.65753297995406,0.29721631472847954,1583,0,6.734188453140931,3.210448876137382,47.67387931711324,0.3490264725654683,0.16639445931563873,0.435546875,,
1.286609999999404,1200,,,,0.09375,0.146484375,-1.033203125,0.019370327318084843,-1.1205316465900028,22.65726363024232,0.29628236055054546,1583,0,6.712947551984215,3.2103345608149763,47.823024624496945,0.34903890088811934,0.16692095952079883,0.435546875,,
1.2940599999995903,1200,,,,-0.03125,0.078125,-1.017578125,0.019370327318084843,-1.1205316465900028,22.65741331959853,0.29742080331339477,1583,0,6.7387860705186045,3.2105900112519086,47.643447612884785,0.3490111296250725,0.1662809347060588,0.43359375,,
1.3016849999986588,1200,,,,-0.3125,0.76171875,-1.01171875,0.019370327318084843,-1.1205316465900028,22.657264595709577,0.29742753892946294,1583,0,6.738894447575553,3.2106714942948225,47.64389054127303,0.34900227213563356,0.16627826052285707,0.435546875,,
1.3079349999995902,1200,,,,-0.125,-1.04296875,-0.578125,0.019370327318084843,-1.1205316465900028,22.65715392683236,0.2986357105785373,1583,0,6.7662352626268785,3.210706350392611,47.451887582550704,0.34899848329417676,0.16560636795755973,0.44140625,,
1.3159349999995902,1200,,,,0,0.302734375,-1.07421875,0.019370327318084843,-1.1205316465900028,22.657292649127275,0.2971559782274614,1583,0,6.732749961137286,3.2107228971017445,47.6881350953867,0.34899668470346173,0.1664300104798076,0.439453125,,
1.3235649999994785,1200,,,,-0.15625,0.01953125,-0.9921875,0.019370327318084843,-1.1205316465900028,22.657236692766368,0.2971741416638142,1583,0,6.733144866646721,3.2112652208447634,47.69339267824273,0.3489377455703372,0.16642024919746845,0.439453125,,
1.3319249999988825,1200,,,,-0.1875,0.1015625,-0.9609375,0.019370327318084843,-1.1205316465900028,22.65717464647253,0.29708544535199555,1583,0,6.731116820265234,3.21152101668993,47.71156261946117,0.34890995287489013,0.16647039065143562,0.435546875,,
1.3398349999990313,1200,,,,0.25,0.17578125,-1.33203125,0.019370327318084843,-1.1205316465900028,22.65731312716289,0.29806615342122866,1583,0,6.753378170673752,3.2116188831580783,47.555738802017515,0.3488993206716207,0.16592164962060943,0.435546875,,
1.3495099999997764,1200,,,,-0.1875,-0.416015625,-0.70703125,0.019370327318084843,-1.1205316465900028,22.657182464564237,0.29729193423920014,1583,0,6.735797599300789,3.210889037472375,47.66902493931352,0.3489786266398324,0.16635470856581552,0.44140625,,
1.3581249999990688,1200,,,,0,0.498046875,-1.1484375,0.019370327318084843,-1.2321660096354115,22.657111147712346,0.2969163405889819,1583,0,6.7272665302965775,3.2101498392532366,47.71848751340783,0.38383442248354516,0.1831599809649716,0.4453125,,
1.3752800000002607,1200,,,,0.0625,0.30078125,-1.1015625,0.019370327318084843,-1.2321660096354115,22.65699439561571,0.29585293162786996,1582,0,6.703138213819127,3.2100300751876087,47.88846616007172,0.3838487430879906,0.183819275439553,0.44140625,,
1.3827399999992922,1200,,,,-0.375,-0.29296875,-0.83203125,0.019370327318084843,-1.2321660096354115,22.65688583434065,0.29502160187615145,1583,0,6.684270752372263,3.2101653310282856,48.025662782869624,0.3838325701563546,0.18433813579411235,0.443359375,,
1.3910599999995903,1200,,,,-0.03125,0.048828125,-0.896484375,0.019370327318084843,-1.2321660096354115,22.656941288079718,0.2948248487930506,1583,0,6.679829289371128,3.2102227151327134,48.058454431474544,0.3838257089849521,0.1844607034488173,0.447265625,,
1.3998199999993668,1200,,,,0.1875,0.015625,-1.068359375,0.019370327318084843,-1.2321660096354115,22.65696080963877,0.2934499404243256,1582,0,6.648683799784776,3.208945152751774,48.26436704443141,0.38397851972595715,0.18532480213231042,0.447265625,,
1.4072450000001118,1200,,,,-0.3125,0.10546875,-0.90234375,0.013367078183301987,-1.2321660096354115,22.656980922822605,0.29214891171981694,1581,0,6.619212319459278,2.213135017989552,33.43502083296737,0.5567513954728037,0.18614994506416846,0.4453125,,
1.414410000000149,1200,,,,0,0.458984375,-1.08203125,0.013367078183301987,-1.2321660096354115,22.657109251585887,0.292102870912736,1581,0,6.618206658971749,2.2127215399979567,33.433853821992024,0.5568554322639935,0.1861782312229654,0.4453125,,
1.4218349999999627,1200,,,,-0.1875,-0.93359375,-0.6796875,0.013367078183301987,-1.2321660096354115,22.657060468949553,0.2909118260359528,1581,0,6.591206833629115,2.212535480856259,33.567987421782036,0.5569022600074006,0.1869408805909041,0.451171875,,
1.4300999999996276,1200,,,,0,0.259765625,-1.0546875,0.013367078183301987,-1.2321660096354115,22.657007391472234,0.2902680933764045,1581,0,6.57660633713775,2.212449556081932,33.64120402932354,0.5569238883879808,0.18735590158064275,0.451171875,,
1.4376499999994412,1200,,,,0.03125,-0.07421875,-0.984375,0.013367078183301987,-1.2321660096354115,22.65715164981855,0.290306491478407,1581,0,6.577518202353024,2.21241700338122,33.6360453185786,0.5569320827639191,0.18732992775217555,0.44921875,,
1.4457099999999627,1200,,,,-0.25,0.0859375,-0.8203125,0.013367078183301987,-1.2321660096354115,22.65709558897765,0.2905548822980025,1581,0,6.5831297420699935,2.2124037867398765,33.60717277986094,0.5569354098110136,0.18717024544741395,0.447265625,,
1.4536099999994039,1200,,,,-0.0625,0.333984375,-1.021484375,0.013367078183301987,-1.2321660096354115,22.65723880974396,0.2915419625391162,1580,0,6.605535868310183,2.2122664085151005,33.49109675005124,0.5569699946140103,0.18653535976493338,0.44921875,,
1.460734999999404,1200,,,,0,-1.1953125,-0.6953125,0.013367078183301987,-1.2321660096354115,22.657128000851966,0.2924563675936119,1580,0,6.626221355232679,2.2121551017888565,33.38486572052009,0.5569980190986709,0.1859530407420481,0.455078125,,
1.4687999999988823,1200,,,,0.03125,0.45703125,-1.146484375,0.013367078183301987,-1.2321660096354115,22.657170942895455,0.2939892363669605,1580,0,6.660964383737522,2.2121027920290754,33.209947758163004,0.5570111904723893,0.18498312536300235,0.455078125,,
1.4771699999999255,1200,,,,-0.0625,0.0859375,-0.9296875,0.013367078183301987,-1.2321660096354115,22.65731061907948,0.2938449564519121,1580,0,6.657736452180856,2.2120821809954565,33.22573966217679,0.557016380413555,0.18507281243188808,0.453125,,
1.486054999999702,1200,,,,-0.09375,0.021484375,-0.943359375,0.013367078183301987,-1.2321660096354115,22.657238976914122,0.2944045138062333,1581,0,6.67039342519004,2.2127002958092836,33.17196085396182,0.5568607786463703,0.18472163950364098,0.451171875,,
1.4940449999989942,1200,,,,-0.125,0.126953125,-0.9921875,0.013367078183301987,-1.2321660096354115,22.657243597964012,0.2942410395058842,1581,0,6.666690908602971,2.2129107147976157,33.1935400206118,0.5568078284387993,0.18482422937073234,0.44921875,,
1.5048299999991432,1200,,,,-0.0625,-0.158203125,-0.884765625,0.013367078183301987,-1.2321660096354115,22.65718280072397,0.2950407116389266,1581,0,6.684791337258848,2.2129937927173415,33.10490456722015,0.5567869253363026,0.1843237802753423,0.453125,,
1.512964999999851,1200,,,,0.03125,0.021484375,-1.1171875,0.013367078183301987,-1.3169155237758903,22.657238551268236,0.29499173776079735,1582,0,6.683698173099548,2.214182704129507,33.12810732598784,0.5947637118291139,0.1970339607907779,0.453125,,
1.5202199999997392,1200,,,,-0.25,0.12890625,-0.91015625,0.013367078183301987,-1.3169155237758903,22.65724300608848,0.29480714585129053,1582,0,6.679517143484058,2.214478174990664,33.153267330871536,0.5946843543768239,0.19715729378141586,0.451171875,,
1.5283699999991804,1200,,,,0.03125,0.3046875,-1.080078125,0.013367078183301987,-1.3169155237758903,22.657186774523982,0.2952269508101835,1582,0,6.689012165379532,2.214596234612632,33.107971399346035,0.5946526518890426,0.19687742991287696,0.44921875,,
1.5371149999992921,1200,,,,-0.09375,-0.625,-0.791015625,0.013367078183301987,-1.3169155237758903,22.657230510581474,0.29430443413385377,1582,0,6.668123404456967,2.213821740921643,33.200071543995826,0.5948606879376119,0.1974941739823929,0.453125,,
1.5458149999994784,1200,,,,0.03125,0.42578125,-1.171875,0.013367078183301987,-1.3169155237758903,22.657305834500878,0.2941346600911447,1581,0,6.664298950212025,2.213132463719566,33.20878130248276,0.5950459565183809,0.19760751034945578,0.455078125,,
1.5540699999993668,1200,,,,0.0625,-0.26171875,-0.8125,0.013367078183301987,-1.3169155237758903,22.657237829587515,0.29374895277830704,1581,0,6.655539885290375,2.21287575445626,33.24862885048602,0.5951149860645828,0.19786757295023474,0.453125,,
1.5620099999988453,1200,,,,-0.03125,0.095703125,-1.11328125,0.0069689580153558285,-1.3169155237758903,22.657275118293974,0.2955265511691564,1581,0,6.695826374600157,1.1536394473792175,17.22923180558288,1.1415312875852117,0.19667707167131107,0.453125,,
1.570304999999702,1200,,,,-0.25,0.57421875,-0.87109375,0.0069689580153558285,-1.3169155237758903,22.657212437310605,0.2959476055570059,1581,0,6.705347769418487,1.153620158726328,17.20447914704317,1.141550374110878,0.1963977960668993,0.453125,,
1.577629999998957,1200,,,,-0.09375,-0.4375,-0.732421875,0.0069689580153558285,-1.3169155237758903,22.65715367054949,0.2966577121772963,1581,0,6.721419372354643,1.1536126188145137,17.16322929587387,1.1415578351849094,0.19592818879779988,0.458984375,,
1.5852900000000372,1200,,,,0,0.41796875,-1.126953125,0.0069689580153558285,-1.3169155237758903,22.65709764915335,0.2960699294969573,1581,0,6.70808530359051,1.1536096156803166,17.19730092076864,1.1415608069453091,0.1963176471639396,0.458984375,,
1.592160000000149,1200,,,,-0.0625,-0.11328125,-0.85546875,0.0069689580153558285,-1.3169155237758903,22.6571653259811,0.296415279634394,1581,0,6.715929995823384,1.1535126139902743,17.175768876501692,1.1416568035787371,0.1960883339455408,0.455078125,,
1.5999349999995902,1200,,,,-0.0625,0.13671875,-1.0625,0.0069689580153558285,-1.3169155237758903,22.657114405363806,0.2967510505166623,1581,0,6.723522501467912,1.1534698902454652,17.155737784675132,1.1416990897748036,0.19586690213178803,0.453125,,
1.6080449999999256,1200,,,,-0.09375,0.29296875,-0.982421875,0.0069689580153558285,-1.3169155237758903,22.657059525609895,0.2961507225375243,1581,0,6.709904549085068,1.1534502599349266,17.1902633114536,1.1417185200948203,0.1962644198799309,0.453125,,
1.6161399999996646,1200,,,,-0.0625,-0.23828125,-0.90625,0.0069689580153558285,-1.3169155237758903,22.65700722230391,0.2978292179615544,1581,0,6.747918742368064,1.1537875061665799,17.098420271754463,1.141384801566536,0.19515877028977704,0.4609375,,
1.62455999999959,1200,,,,0.25,0.3828125,-1.2578125,0.0069689580153558285,-1.3169155237758903,22.65682662176396,0.3024043736224657,1581,0,6.851523462827335,1.1540913687685548,16.844302949993985,1.141084284497399,0.19220769379551314,0.4609375,,
1.6333699999991804,1200,,,,-0.0625,-0.16015625,-0.900390625,0.0069689580153558285,-1.3169155237758903,22.656781463566798,0.3053420302524912,1582,0,6.918067651072494,1.1542177976373036,16.684106832322858,1.1409592942264715,0.1903588675620614,0.4609375,,
1.6422849999992177,1200,,,,0.0625,0.279296875,-1.0703125,0.0069689580153558285,-1.3169155237758903,22.656738958280457,0.31282537130463456,1586,0,7.087602777176263,1.157333526955725,16.32898404919939,1.137887646994841,0.18580549237559785,0.45703125,,
1.6493149999994785,1200,,,,-0.125,-0.58203125,-0.732421875,0.0069689580153558285,-1.3169155237758903,22.656702790557727,0.31685943818677975,1591,0,7.178990117380966,1.1613122303677064,16.176540312488623,1.1339891971678582,0.18344021961912468,0.4609375,,
1.6591149999992922,1200,,,,-0.125,0.7265625,-1.12890625,0.0069689580153558285,-1.372238049012544,22.65667215973198,0.3163022193766051,1593,0,7.1663556878113654,1.162786872453614,16.225637173316663,1.180128604407929,0.19148338552975608,0.462890625,,
1.6761100000003353,1200,,,,-0.03125,0.142578125,-1.060546875,0.0069689580153558285,-1.372238049012544,22.65684647772797,0.30803105823301846,1605,0,6.979012396757584,1.1713456658805166,16.783831282843376,1.1715056357689375,0.1966235293764601,0.458984375,,
1.6843349999999628,1200,,,,-0.21875,-0.32421875,-0.697265625,0.0069689580153558285,-1.372238049012544,22.656806589621123,0.306004106061959,1609,0,6.933075846675713,1.174202642448205,16.936244005050288,1.1686552213435975,0.1979262998645122,0.46484375,,
1.6923499999996274,1200,,,,-0.125,0.37109375,-0.88671875,0.0069689580153558285,-1.372238049012544,22.656832739096714,0.30396861221837934,1611,0,6.886966004967171,1.175399192063513,17.067010222146667,1.1674655370516835,0.1992514625486503,0.466796875,,
1.7012750000003725,1200,,,,0.0625,0.291015625,-1.1328125,0.0069689580153558285,-1.372238049012544,22.65693277161862,0.30220218950666844,1605,0,6.846974691088537,1.1715067151209673,17.10984439077458,1.1713445866768675,0.2004152360601737,0.46484375,,
1.7099799999995158,1200,,,,-0.09375,0.044921875,-0.978515625,0.0012666899052262994,-1.372238049012544,22.657100626296234,0.3001674752113734,1603,0,6.800924690605367,0.21267906015329394,3.12720798757092,6.452154001543302,0.2017722753066389,0.4609375,,
1.7180449999989942,1200,,,,0.125,0.3203125,-1.13671875,0.0012666899052262994,-1.372238049012544,22.65717733295365,0.2988720016059525,1603,0,6.771595940240874,0.21259202858751672,3.139467128039458,6.454795403806224,0.20264617988469816,0.458984375,,
1.7265349999992177,1200,,,,-0.09375,-0.529296875,-0.80859375,0.0012666899052262994,-1.372238049012544,22.657218118644586,0.2981630030867986,1597,0,6.755544195847695,0.21188391340478263,3.136444781680466,6.476367303972827,0.20312768434791564,0.458984375,,
1.7350699999993666,1200,,,,-0.03125,0.490234375,-1.099609375,0.0012666899052262994,-1.372238049012544,22.657297539024736,0.2968244136271267,1595,0,6.725239056396358,0.21159237575350445,3.1462431889652978,6.4852906165727795,0.2040430143085266,0.462890625,,
1.751414999999106,1200,,,,-0.03125,-0.150390625,-0.96484375,0.0012666899052262994,-1.372238049012544,22.65755436117165,0.2987512286338006,1594,0,6.768972203237157,0.2114640744916945,3.124020429431887,6.489225426640687,0.20272472804014358,0.4609375,,
1.760359999999404,1200,,,,-0.041015625,-0.03515625,-0.970703125,0.0012666899052262994,-1.372238049012544,22.657563349591044,0.2988405915622795,1592,0,6.77099963475161,0.2111383115398775,3.118273858061181,6.499237580354387,0.20266402644147888,0.4609375,,
1.767714999999851,1200,,,,0,0.244140625,-1.021484375,0.0012666899052262994,-1.372238049012544,22.657487804603026,0.2990942363917876,1590,0,6.776724013473983,0.21097340759834043,3.1132064280449896,6.50431760397531,0.20249283374742122,0.46484375,,
1.776294999998994,1200,,,,-0.0625,0.109375,-1.09375,0.0012666899052262994,-1.372238049012544,22.657614171257606,0.2989087033117812,1589,0,6.772558072069249,0.21077218857255478,3.112150332705182,6.510527116058171,0.20261739130326545,0.462890625,,
1.7851349999997765,1200,,,,-0.15625,-0.021484375,-0.9140625,0.0012666899052262994,-1.372238049012544,22.657307609077797,0.2995469577162553,1587,0,6.786927564340616,0.21055130928021135,3.1023067107195135,6.5173569981761865,0.20218840351596765,0.4609375,,
1.7936399999996646,1200,,,,-0.0625,0.267578125,-1.005859375,0.0012666899052262994,-1.372238049012544,22.65737662528993,0.2988967050505327,1587,0,6.772215218388118,0.21047459941345778,3.1079136239198504,6.519732323219251,0.20262764911643724,0.462890625,,
1.8024049999993295,1200,,,,0,-1.1328125,-0.7109375,0.0012666899052262994,-1.372238049012544,22.65751686332022,0.29824683000713437,1586,0,6.757532580318446,0.2104443743446851,3.114219159780477,6.520668719634989,0.20306791461268514,0.46875,,
1.8119249999998137,1200,,,,0,0.43359375,-1.15234375,0.0012666899052262994,-1.411327752067875,22.657442707950715,0.297257848424032,1587,0,6.735102670156203,0.21045260799684593,3.124712692642071,6.70615472766689,0.20954806796362366,0.46875,,
1.820519999999553,1200,,,,-0.125,-0.087890625,-0.8671875,0.0012666899052262994,-1.411327752067875,22.657599028671996,0.29953084473510055,1587,0,6.786649776727317,0.21045623037587793,3.1010327230612584,6.706039301127948,0.20795647314932622,0.466796875,,
1.8281799999987707,1200,,,,0.0625,0.25390625,-1.126953125,0.0012666899052262994,-1.411327752067875,22.657585857479987,0.30018746598855617,1586,0,6.801523283975064,0.2104067271448818,3.0935235881735044,6.707617057776216,0.20750171588665683,0.462890625,,
1.8362449999991803,1200,,,,-0.375,-0.265625,-0.8671875,0.0012666899052262994,-1.411327752067875,22.657573723859727,0.3003748164655761,1585,0,6.805764548859625,0.21028826991828925,3.0898552015515315,6.711395517288093,0.20737240348762245,0.462890625,,
1.8557999999998138,1200,,,,0.09375,0.06640625,-1.03125,0.0012666899052262994,-1.411327752067875,22.657771170145693,0.30143819997734617,1585,0,6.829917757027326,0.21021736774913535,3.077890177123172,6.713659138535569,0.20663905515051845,0.466796875,,
1.8635999999996276,1200,,,,0,0.12109375,-1.00390625,-0.0030744265497337467,-1.411327752067875,22.657750117853276,0.3011479211307353,1585,0,6.823334345491187,0.5103832852668527,7.4799688748084066,2.765231136693604,0.2068384283411923,0.46484375,,
1.8715799999991432,1200,,,,-0.21875,-0.125,-0.83984375,-0.0030744265497337467,-1.411327752067875,22.657729816429995,0.30086834978422405,1586,0,6.816993779726102,0.5105037218603323,7.488692792687917,2.76457877118866,0.2070308111861854,0.46875,,
1.8802049999991433,1200,,,,-0.0625,-0.07421875,-0.8515625,-0.0030744265497337467,-1.411327752067875,22.657641016502463,0.30036477024029534,1586,0,6.805557138108854,0.5105528509924943,7.501999331304828,2.7643127431847856,0.20737872350889677,0.46875,,
1.8874150000000371,1200,,,,0.03125,0.421875,-1.166015625,-0.0030744265497337467,-1.411327752067875,22.65768876621968,0.30134449992750634,1585,0,6.827769890769548,0.5104372795000173,7.475900442838249,2.7649386295810854,0.20670405925305813,0.470703125,,
1.8949699999997391,1200,,,,-0.0625,-0.15234375,-0.76171875,-0.0030744265497337467,-1.411327752067875,22.657614241114732,0.2995990491424636,1585,0,6.7881996824747155,0.5103910559780974,7.5187985011075655,2.765189036009361,0.20790899179226258,0.466796875,,
1.9030400000000371,1200,,,,0.0625,0.125,-1.1484375,-0.0030744265497337467,-1.411327752067875,22.657530704582552,0.299831540239434,1585,0,6.793442329177254,0.510369418327544,7.512677573423285,2.7653062691191965,0.207748543916586,0.46484375,,
1.9106899999994784,1200,,,,-0.1875,-0.384765625,-0.708984375,-0.0030744265497337467,-1.411327752067875,22.6574593932779,0.2994228378756309,1584,0,6.784160790587139,0.5101248303904117,7.519350530403078,2.7666321417597914,0.2080327686257169,0.46875,,
1.9184949999991805,1200,,,,-0.125,0.37890625,-0.89453125,-0.0030744265497337467,-1.411327752067875,22.657485094904985,0.2999531255253038,1584,0,6.796183470759734,0.5099036266759195,7.502793720472031,2.767832347591588,0.2076647515682953,0.470703125,,
1.9416549999993296,1200,,,,-0.09375,0.056640625,-0.966796875,-0.0030744265497337467,-1.411327752067875,22.65764185288696,0.300748437261778,1583,0,6.81425037929281,0.5097385372069773,7.480478538856955,2.768728767891471,0.20711416128128007,0.46875,,
1.958109999999404,1200,,,,-0.1875,0.6953125,-1.12109375,-0.0030744265497337467,-1.427012466798759,22.657806479057616,0.30234580235055414,1583,0,6.850492679414259,0.509622993838454,7.439216676632205,2.8001335968979246,0.20830800550841164,0.47265625,,
1.9677149999989196,1200,,,,0.09375,0.0625,-1.052734375,-0.0030744265497337467,-1.427012466798759,22.65772811481184,0.30242129552172486,1583,0,6.852179490060405,0.5096397264577174,7.437629548335499,2.800041662209691,0.20825672603421239,0.470703125,,
1.9755349999992178,1200,,,,-0.0625,0.18359375,-1.009765625,-0.0030744265497337467,-1.427012466798759,22.65786499036881,0.30278279872068503,1583,0,6.860411774819296,0.5096651349910177,7.429074984415821,2.7999020706486197,0.20800682431869721,0.46875,,
1.983679999999702,1200,,,,-0.1875,-0.1171875,-0.9609375,-0.0030744265497337467,-1.427012466798759,22.657835249777442,0.30261289230923394,1583,0,6.856553058401266,0.5096732529842576,7.433374301096672,2.7998574742607407,0.20812388595903225,0.470703125,,
1.9906849999995901,1200,,,,0.0625,-0.23828125,-0.79296875,-0.0030744265497337467,-1.427012466798759,22.658091262530174,0.30375443777164324,1583,0,6.8824957724284355,0.5096756933019224,7.405390575664492,2.799844068595642,0.20733938878908292,0.47265625,,
1.9988899999996648,1200,,,,0.0625,0.41015625,-1.15625,-0.0030744265497337467,-1.427012466798759,22.658120124026713,0.30355389035837366,1584,0,6.877960511855664,0.5099074831985692,7.413643656715278,2.7985713366027403,0.20747610637470104,0.47265625,,
2.006109999999404,1200,,,,0,-0.29296875,-0.8515625,-0.0057556329228766875,-1.427012466798759,22.65828820541934,0.3047043396282073,1584,0,6.904078744737898,0.9547530822543616,13.82882666252972,1.4946403351003583,0.20669122116928187,0.470703125,,
2.014854999999516,1200,,,,0.09375,0.09765625,-1.11328125,-0.0057556329228766875,-1.427012466798759,22.658273740295474,0.30336265053575645,1584,0,6.873673978420763,0.9548266306003523,13.891066605689161,1.4945252060067882,0.20760549180521612,0.46875,,
2.023304999999702,1200,,,,-0.21875,-0.361328125,-0.70703125,-0.0057556329228766875,-1.427012466798759,22.65815180842379,0.303168675949799,1583,0,6.8692418832293844,0.9543194046255062,13.892645227057566,1.4953195543149904,0.20773944069179995,0.47265625,,
2.0312999999988826,1200,,,,-0.1875,0.35546875,-0.96484375,-0.0057556329228766875,-1.427012466798759,22.658241540630705,0.30258122777626933,1583,0,6.855958544615307,0.9541430097848199,13.916989193789789,1.4955959978374538,0.208141933401791,0.474609375,,
2.0394949999991803,1200,,,,0.0625,0.16015625,-1.109375,-0.0057556329228766875,-1.427012466798759,22.65819670332525,0.30286962806410006,1583,0,6.862479608139337,0.9540722159887953,13.902732983821256,1.4957069736275792,0.20794414676383616,0.474609375,,
2.0475599999995904,1200,,,,-0.1875,0.0078125,-0.9296875,-0.0057556329228766875,-1.427012466798759,22.658088583970102,0.3027158607763488,1583,0,6.858962789243272,0.9539162431476559,13.907587378133284,1.4959515335329845,0.20805076666062464,0.47265625,,
2.0551899999994783,1200,,,,0.03125,0.25,-1.06640625,-0.0057556329228766875,-1.427012466798759,22.657791275812087,0.3024648384950151,1582,0,6.853185178892265,0.9537274720863662,13.916557734698841,1.4962476268792368,0.20822616484871032,0.46875,,
2.0624550000000745,1200,,,,-0.3125,-0.171875,-0.8671875,-0.0057556329228766875,-1.427012466798759,22.657829043168,0.30216091346633034,1582,0,6.846310320847593,0.95365780979941,13.929514805886631,1.4963569239777037,0.208435259274384,0.46875,,
2.0699799999995157,1200,,,,-0.0625,-0.068359375,-0.923828125,-0.0057556329228766875,-1.427012466798759,22.65774005837865,0.301620720051581,1582,0,6.83404387114972,0.9537101871841257,13.95528336027025,1.4962747446497144,0.20880938046402778,0.47265625,,
2.078649999999441,1200,,,,0.125,0.05859375,-1.05859375,-0.0057556329228766875,-1.427012466798759,22.657652962400114,0.30206975038500133,1583,0,6.844191574662188,0.9539037147180519,13.937419844434062,1.4959711811380725,0.20849978426695231,0.470703125,,
2.0865149999996646,1200,,,,-0.3125,0.109375,-0.83203125,-0.0057556329228766875,-1.427012466798759,22.65757338424457,0.3027941851877258,1583,0,6.860581471213437,0.9539773146662318,13.90519620922891,1.4958557660231449,0.20800167927258242,0.46875,,
2.094399999999441,1200,,,,0.0625,0.326171875,-1.126953125,-0.0057556329228766875,-1.427012466798759,22.657397568794057,0.30349825372534023,1583,0,6.876480596089765,0.9540071259845834,13.873479502393552,1.4958090227324143,0.2075207581637348,0.46875,,
2.1024850000003354,1200,,,,-0.25,-0.78125,-0.73828125,-0.0057556329228766875,-1.4274253897614448,22.65745944435823,0.3020486252762973,1582,0,6.843654477421862,0.9537639893541452,13.936471990231844,1.4966232796522818,0.20857648416802943,0.47265625,,
2.109659999999218,1200,,,,-0.03125,0.158203125,-0.962890625,-0.0057556329228766875,-1.4274253897614448,22.657485790937976,0.3021478121547117,1582,0,6.845909760658377,0.953412812662579,13.926751096568479,1.497174540559298,0.20850777174488613,0.47265625,,
2.1191749999998137,1200,,,,0.0625,-0.150390625,-1.013671875,-0.0057556329228766875,-1.4274253897614448,22.657606023965567,0.30130759813230484,1582,0,6.826908850509106,0.9532746728385685,13.963489094591901,1.4973914973645492,0.20908809843784523,0.470703125,,
2.1285899999998508,1200,,,,0.03125,0.1484375,-1.095703125,-0.0057556329228766875,-1.4274253897614448,22.657503486070606,0.3012078672417907,1581,0,6.824618302062765,0.9531785087639353,13.966766587895965,1.4975425658856958,0.2091582747316433,0.46875,,
2.138539999999106,1200,,,,-0.1875,-0.326171875,-0.6875,-0.0057556329228766875,-1.4274253897614448,22.657413515088567,0.3011852976410153,1581,0,6.824079833317513,0.9530866165747157,13.966522078499402,1.4976869519912561,0.20917477881666352,0.47265625,,
2.147234999999404,1200,,,,-0.0625,0.27734375,-0.8984375,-0.0057556329228766875,-1.4274253897614448,22.657409582347892,0.30090166288049197,1581,0,6.8176522198928735,0.9530588952064765,13.979282962331158,1.4977305148095792,0.20937198667841025,0.474609375,,
2.155589999999851,1200,,,,0.0625,0.2109375,-1.123046875,-0.0057556329228766875,-1.4274253897614448,22.65755329186255,0.30083757504102354,1581,0,6.816243388686689,0.9529265505022935,13.980230695457859,1.4979385231831772,0.20941526121714268,0.474609375,,
2.163620000000112,1200,,,,-0.1875,0.05859375,-0.9140625,-0.006964738799177589,-1.4274253897614448,22.657477306201415,0.3016340061734827,1581,0,6.834265649654301,1.1527833814734,16.867699334042005,1.2382425117345275,0.2088630239056699,0.470703125,,
2.17155999999959,1200,,,,-0.08203125,0.16015625,-0.96484375,-0.006964738799177589,-1.4274253897614448,22.65750306516672,0.30175462323630237,1580,0,6.837006300904749,1.1526534029366555,16.8590367217319,1.2383821416956242,0.2087793000238353,0.466796875,,
2.1795649999994784,1200,,,,0.125,-0.97265625,-0.79296875,-0.006964738799177589,-1.4274253897614448,22.657559989816548,0.30186867899230196,1580,0,6.839607703314756,1.1526024611563266,16.851879685990294,1.2384368746960748,0.20869989211072087,0.470703125,,
2.1874399999994782,1200,,,,-0.125,0.478515625,-1.1328125,-0.006964738799177589,-1.4274253897614448,22.657581589244906,0.3013394866035517,1581,0,6.827624003781145,1.1529941009533098,16.887193851254555,1.2380162123823808,0.20906619769497198,0.47265625,,
2.1954999999990688,1200,,,,0.0625,-0.2734375,-0.9453125,-0.006964738799177589,-1.4274253897614448,22.65770071461396,0.30168809845907874,1581,0,6.835558644046794,1.15314897491564,16.86985709529297,1.2378499403044343,0.20882351598352744,0.470703125,,
2.2034249999988824,1200,,,,-0.0625,0.068359375,-0.91796875,-0.006964738799177589,-1.4274253897614448,22.657617821231298,0.3005348917556634,1581,0,6.809404719344938,1.1532096443293232,16.935542706885272,1.2377848180341906,0.20962557647752247,0.46875,,
2.2123549999995156,1200,,,,-0.15625,-0.060546875,-0.939453125,-0.006964738799177589,-1.4274253897614448,22.65760220338971,0.301683094502823,1582,0,6.835415546732588,1.1537811440129586,16.879458697496162,1.2371717090094971,0.2088278876393655,0.46875,,
2.2200499999998136,1200,,,,0.0625,-0.5390625,-0.8046875,-0.006964738799177589,-1.4274253897614448,22.65752392048743,0.3013763435972161,1582,0,6.828441714122963,1.1539745749533155,16.899530277407234,1.2369643324413728,0.20904116188165806,0.470703125,,
2.228059999998659,1200,,,,0.03125,0.474609375,-1.1171875,-0.006964738799177589,-1.4274253897614448,22.657645070671737,0.3015087457275052,1582,0,6.8314781463972265,1.1540510462652926,16.893138227689626,1.2368823670156002,0.20894824797386463,0.470703125,,
2.2383899999987333,1200,,,,-0.09375,-0.015625,-0.88671875,-0.006964738799177589,-1.4274253897614448,22.65779027961934,0.3016675412343133,1582,0,6.83511988345549,1.1536242988206775,16.877894148031586,1.2373399131941547,0.20883692080025537,0.46875,,
2.246464999999851,1200,,,,0.03125,0.287109375,-1.068359375,-0.006964738799177589,-1.4274253897614448,22.657767967158076,0.3022095469683347,1581,0,6.847393792668488,1.153295094455493,16.84283289928976,1.237693107881793,0.2084625819665565,0.466796875,,
2.255234999999404,1200,,,,-0.0625,-1.0390625,-0.67578125,-0.006964738799177589,-1.406095151348105,22.65789088043322,0.30302970306045274,1581,0,6.866013945473819,1.1531566253430134,16.795139574442487,1.2193444675651528,0.20479060522081,0.47265625,,
2.262759999998845,1200,,,,-0.03125,0.375,-1.09375,-0.006964738799177589,-1.406095151348105,22.65792435957438,0.3013945865568805,1581,0,6.828975744590992,1.153113122828779,16.885594062068858,1.2193904687327806,0.20590132458177596,0.470703125,,
2.2738149999994786,1200,,,,-0.0625,-0.044921875,-0.921875,-0.006964738799177589,-1.406095151348105,22.657818537090105,0.3011845576436314,1581,0,6.824185053263155,1.1530914696315118,16.89713072889388,1.2194133669182763,0.20604587073378755,0.466796875,,
2.281769999999553,1200,,,,0.03125,0.24609375,-1.1640625,-0.006964738799177589,-1.406095151348105,22.657639071922144,0.29971110074880536,1581,0,6.790745946614926,1.1530831818892395,16.98021382266601,1.2194221314062743,0.20706048531369667,0.46484375,,
2.2893349999990313,1200,,,,-0.375,0.15234375,-0.66015625,-0.006964738799177589,-1.406095151348105,22.657686881186166,0.29910799580920655,1581,0,6.777095312704146,1.1528810207626683,17.011432886320943,1.21963596071512,0.2074775529144883,0.46484375,,
2.2970849999999627,1200,,,,-0.03125,-0.267578125,-0.890625,-0.006964738799177589,-1.406095151348105,22.657787932713013,0.29932529981442346,1580,0,6.782049166090949,1.1526073445196727,16.994971818878966,1.2199255522999193,0.20732600382467486,0.46875,,
2.3054599999990315,1200,,,,0.125,0.099609375,-1.078125,-0.006964738799177589,-1.406095151348105,22.65779948933121,0.29746533975576944,1580,0,6.739910023212008,1.152474590978507,17.09925780922039,1.2200660755169117,0.20862224369547425,0.46875,,
2.3135499999998137,1200,,,,-0.25,0.10546875,-0.84375,-0.0070152011640262964,-1.406095151348105,22.657975107148406,0.29844150897130445,1580,0,6.762080281211624,1.1607784023539414,17.165995582441592,1.211338140420847,0.20793825167307273,0.466796875,,
2.321359999999404,1200,,,,0.0625,0.328125,-1.0703125,-0.0070152011640262964,-1.406095151348105,22.658074164405257,0.2980804118996867,1580,0,6.753928079779569,1.1607604069379145,17.186449029759267,1.2113569199499004,0.2081892396156514,0.46484375,,
2.3294550000000744,1200,,,,-0.15625,-0.517578125,-0.818359375,-0.0070152011640262964,-1.406095151348105,22.657974368725668,0.2985779108014908,1580,0,6.765170650007838,1.1607534225093488,17.157784815199065,1.211364208867349,0.2078432642857983,0.466796875,,
2.3372349999994038,1200,,,,-0.125,0.69140625,-1.0859375,-0.0070152011640262964,-1.406095151348105,22.657877723586378,0.29789142906582833,1580,0,6.7495875746779435,1.1607505379577143,17.19735502525278,1.2113672191977296,0.20832312134496558,0.46875,,
2.3437849999992175,1200,,,,0.09375,0.009765625,-1.009765625,-0.0070152011640262964,-1.406095151348105,22.657969423439376,0.29872158336288596,1580,0,6.768424501957666,1.1604598771204815,17.14519940031592,1.2116706308167526,0.20774334572859798,0.466796875,,
2.352389999999665,1200,,,,-0.3125,0.1796875,-0.84375,-0.0070152011640262964,-1.406095151348105,22.658070429245964,0.29834128960584316,1579,0,6.759837951841261,1.1603230881229716,17.16495419549103,1.2118134731100743,0.20800722759413331,0.46484375,,
2.3607050000000744,1200,,,,0.03125,0.3515625,-1.095703125,-0.0070152011640262964,-1.406095151348105,22.65806700707028,0.29990777378456807,1579,0,6.795330434352018,1.1602699209525567,17.074518040905197,1.2118690021660918,0.20692079140698713,0.46484375,,
2.369724999998696,1200,,,,-0.09375,-0.47265625,-0.736328125,-0.0070152011640262964,-1.406095151348105,22.658099962211963,0.2998988943646888,1580,0,6.795139127071965,1.160650194601481,17.080595009120977,1.2114719472656443,0.20692661696155637,0.46875,,
2.3776299999998884,1200,,,,0,0.357421875,-1.16796875,-0.0070152011640262964,-1.406095151348105,22.65825755093891,0.2996801312955109,1581,0,6.790229597792874,1.161536555388472,17.10599823849878,1.2105474811146528,0.20707623079566387,0.46875,,
2.3861799999987707,1200,,,,-0.0625,-0.140625,-0.859375,-0.0070152011640262964,-1.406095151348105,22.658353730175698,0.2999232139058905,1582,0,6.795766272570818,1.161911497029758,17.097578851696003,1.2101568449426345,0.20690752079326344,0.46484375,,
2.395269999999553,1200,,,,0.03125,0.115234375,-1.173828125,-0.0070152011640262964,-1.406095151348105,22.658303932723523,0.2997027271380157,1582,0,6.790755480959266,1.1620372657903282,17.112046944534928,1.2100258681392524,0.20706019459700517,0.462890625,,
2.402679999999702,1200,,,,-0.375,0.390625,-0.6484375,-0.0070152011640262964,-1.3510728524340985,22.658323636805967,0.29947047793849274,1581,0,6.78549900879933,1.1617623491754934,17.12125147566801,1.162951143487271,0.1991117898156124,0.46484375,,
2.4108049999987706,1200,,,,-0.03125,-0.37890625,-0.873046875,-0.0070152011640262964,-1.3510728524340985,22.65839734541605,0.2980994911968601,1581,0,6.754456720004809,1.1616728296960699,17.198612380704436,1.163040761474624,0.20002687239561387,0.46875,,
2.4186499999994413,1200,,,,0.09375,0.171875,-1.0859375,-0.0070152011640262964,-1.3510728524340985,22.658278563058985,0.2983959440305252,1581,0,6.761138421930599,1.1616316710690824,17.18100708160603,1.1630819700281312,0.19982919563541615,0.470703125,,
2.4300299999993293,1200,,,,-0.125,0.052734375,-0.990234375,-0.0070152011640262964,-1.3510728524340985,22.658153599144484,0.2977554767806906,1582,0,6.746589327883386,1.1620547582733862,17.224329239526405,1.1626585088309958,0.20026012949241892,0.466796875,,
2.438219999999739,1200,,,,-0.09375,0.076171875,-0.982421875,-0.0070152011640262964,-1.3510728524340985,22.658143435607705,0.29774349787371857,1582,0,6.746314881842273,1.1624598539546498,17.23103463615987,1.1622533439221951,0.20026827625115973,0.46484375,,
2.446519999999553,1200,,,,0.0625,-0.828125,-0.70703125,-0.0070152011640262964,-1.3510728524340985,22.658168904891266,0.29784055562075956,1583,0,6.748521615981832,1.1625651312366914,17.22696017574438,1.1621480948743748,0.20020278948718057,0.46875,,
2.454899999999441,1200,,,,-0.03125,0.484375,-1.150390625,-0.0070152011640262964,-1.3510728524340985,22.6581606075431,0.2987923292386844,1583,0,6.7700845841920065,1.1626074314108572,17.172716484599306,1.1621058114126563,0.19956513624494776,0.46875,,
2.464039999999106,1200,,,,0.125,-0.21875,-1,-0.005734747704024924,-1.3510728524340985,22.658188389357896,0.29860697029787064,1583,0,6.765892987384551,0.9504161598402207,14.047165120884022,1.4215592174497897,0.19968877056631873,0.466796875,,
2.4728849999997764,1200,,,,-0.08203125,0.2265625,-1.12890625,-0.005734747704024924,-1.3510728524340985,22.657838545515304,0.30002095436047665,1583,0,6.797826344171096,0.9504213869753142,13.981254284176709,1.4215513991471138,0.1987507158950298,0.46484375,,
2.4810799999991433,1200,,,,-0.25,-0.8046875,-0.58984375,-0.005734747704024924,-1.3510728524340985,22.657878505996262,0.2997988689290111,1582,0,6.7928063484286305,0.9503389433645237,13.990372971317875,1.4216747212850607,0.19889759594672385,0.470703125,,
2.489699999999255,1200,,,,0,0.1640625,-0.982421875,-0.005734747704024924,-1.3510728524340985,22.657627349479817,0.2997959308747428,1582,0,6.792664482650333,0.9502132102701082,13.988814149397793,1.421862838604445,0.1989017499517277,0.470703125,,
2.497914999999106,1200,,,,0.03125,0.0546875,-0.95703125,-0.005734747704024924,-1.3510728524340985,22.65754769207733,0.2980937039230405,1582,0,6.7540723133442695,0.9501710275379791,14.068120438401158,1.4219259620396023,0.20003825688462556,0.46875,,
2.5058699999991805,1200,,,,0.03125,0.13671875,-1.119140625,-0.005734747704024924,-1.3510728524340985,22.65734152732867,0.29859951493094555,1582,0,6.765471189685109,0.95026758642907,14.045844846370548,1.4217814768482007,0.19970122029253407,0.466796875,,
2.513709999999963,1200,,,,-0.4375,0.48046875,-0.75,-0.005734747704024924,-1.3510728524340985,22.657211327424417,0.29738674579590324,1583,0,6.737954345472825,0.9505315425026849,14.107123523942237,1.4213866579080747,0.20051677158392636,0.46875,,
2.5218999999994414,1200,,,,-0.0625,-0.3828125,-0.849609375,-0.005734747704024924,-1.3510728524340985,22.65734992695327,0.2990119964860346,1583,0,6.774819436741008,0.9506372897289069,14.031920682246346,1.421228545347073,0.19942566219654484,0.47265625,,
2.5326049999995157,1200,,,,0.125,0.51171875,-1.36328125,-0.005734747704024924,-1.3510728524340985,22.657164754198405,0.2990626702684982,1583,0,6.775912192103877,0.9506853281474009,14.030366704799627,1.4211567302368409,0.1993935007021688,0.474609375,,
2.5405499999988823,1200,,,,-0.03125,-0.08984375,-0.92578125,-0.005734747704024924,-1.3510728524340985,22.65717267377605,0.29848931017603086,1583,0,6.762923841934629,0.9504492904636287,14.053822173335895,1.421509664944929,0.19977644048814322,0.470703125,,
2.5486899999994783,1200,,,,0.03125,0.22265625,-1.02734375,-0.005734747704024924,-1.3510728524340985,22.657114784205564,0.29844419560298663,1582,0,6.761884396456765,0.9503487522088958,14.054495706949377,1.4216600477391057,0.19980715037690708,0.466796875,,
2.556799999999814,1200,,,,-0.375,-0.03515625,-0.8671875,-0.005734747704024924,-1.2616735382756068,22.657191122935984,0.2974418979246334,1582,0,6.739197929247235,0.9503094073270404,14.101224170948035,1.3276450054560107,0.18721419841374734,0.46484375,,
2.5667400000002236,1200,,,,-0.09375,-0.1328125,-0.9375,-0.005734747704024924,-1.2616735382756068,22.657125624755633,0.296852513423018,1582,0,6.725824688649777,0.9503530812867312,14.129911576352974,1.3275839928538593,0.1875864442920665,0.470703125,,
2.575074999999255,1200,,,,-0.01953125,0.12109375,-1.0078125,-0.005734747704024924,-1.2616735382756068,22.657298940522793,0.29728818645380106,1583,0,6.735747311969649,0.9504006988002127,14.109803334090618,1.327517477489595,0.18731010529946257,0.470703125,,
2.585394999999553,1200,,,,0.1875,0.015625,-1.109375,-0.005734747704024924,-1.2616735382756068,22.65736533138113,0.29803896753070275,1583,0,6.752777770330771,0.9504148386681731,14.074427902010154,1.327497727248876,0.18683771052246645,0.466796875,,
2.5937749999994413,1200,,,,-0.15625,-0.076171875,-0.98828125,-0.005734747704024924,-1.2616735382756068,22.6572807315011,0.29814473058078433,1583,0,6.755148859386591,0.9507068246894738,14.07381013326483,1.327090019247209,0.18677212960635994,0.46875,,
2.610014999999665,1200,,,,0.03125,0.001953125,-1.03515625,-0.0023998031290506463,-1.2616735382756068,22.657381958880578,0.29868386185708806,1583,0,6.767394343049566,0.3978884793756542,5.879493039803488,3.170922516418065,0.18643416865036175,0.470703125,,
2.617609999999404,1200,,,,-0.25,0.16015625,-0.9609375,-0.0023998031290506463,-1.2616735382756068,22.657412149438667,0.29608789717538936,1584,0,6.708585518763414,0.3979650187731169,5.932174787964444,3.1703126625682074,0.18806848846851545,0.46875,,
2.6257749999994413,1200,,,,-0.03125,0.32421875,-1.03125,-0.0023998031290506463,-1.2616735382756068,22.657473915396928,0.2952013701802571,1584,0,6.6885173446486075,0.39799544119353053,5.950428483406137,3.170070326665128,0.18863276766188772,0.470703125,,
2.635024999999441,1200,,,,-0.0625,-0.412109375,-0.84375,-0.0023998031290506463,-1.2616735382756068,22.65750304010137,0.2942527281881983,1584,0,6.667032083482225,0.39800816257292015,5.969795219060029,3.169969002945894,0.18924065798354886,0.474609375,,
2.6428999999994414,1200,,,,0.0625,0.546875,-1.33203125,-0.0023998031290506463,-1.2616735382756068,22.65762640472581,0.2951667767442477,1583,0,6.687778554558275,0.3979409864910369,5.950271577395563,3.170504122736361,0.18865360567533623,0.474609375,,
2.651319999999367,1200,,,,0,-0.052734375,-0.90625,-0.0023998031290506463,-1.2616735382756068,22.657677170646075,0.29602361174366215,1583,0,6.707207429776571,0.39787931773338037,5.932115890243675,3.170995530662533,0.18810712975334884,0.470703125,,
2.658934999998659,1200,,,,0.0625,0.244140625,-1.06640625,-0.0023998031290506463,-1.2616735382756068,22.657803148341603,0.29622532544569524,1583,0,6.7118151115019895,0.397853478309774,5.927658490293861,3.1712014775782635,0.1879779936299923,0.466796875,,
2.666285000000149,1200,,,,-0.375,0.0703125,-0.7109375,-0.0023998031290506463,-1.2616735382756068,22.658069255484683,0.29740214170089596,1583,0,6.73855832338837,0.3978562445535208,5.9041745349688615,3.171179428618677,0.18723196828267502,0.466796875,,
2.6738549999995156,1200,,,,-0.03125,-0.1875,-0.921875,-0.0023998031290506463,-1.2616735382756068,22.657968676048437,0.29646029142987207,1583,0,6.717187996910233,0.3978811661776962,5.923329321149167,3.1709807991065744,0.18782763544148992,0.47265625,,
2.6829150000000372,1200,,,,-0.0625,0.3515625,-1.21484375,-0.0023998031290506463,-1.2616735382756068,22.657869079600562,0.2959680246809314,1583,0,6.706004754968532,0.39789126369267064,5.933357911771086,3.1709003273068035,0.1881408654446335,0.47265625,,
2.6900149999996645,1200,,,,-0.09375,-0.12890625,-0.923828125,-0.0023998031290506463,-1.2616735382756068,22.65787538518429,0.29604494023992034,1583,0,6.7077493643704456,0.3978950363527689,5.9318709560954686,3.1708702622694256,0.1880919321430283,0.470703125,,
2.6969249999998137,1200,,,,0.03125,0.349609375,-1.03515625,-0.0023998031290506463,-1.2616735382756068,22.65796680263471,0.29583084651125774,1583,0,6.702925499447402,0.39787441891674696,5.935832330965759,3.1710345734481744,0.18822729543683886,0.466796875,,
2.7055349999992178,1200,,,,-0.3125,-0.578125,-0.92578125,-0.0023998031290506463,-1.134973394802771,22.657868180470214,0.29591828482700655,1583,0,6.704877489801153,0.39785258904640525,5.933778650714831,2.8527485456941144,0.16927578416297517,0.470703125,,
2.7128700000001116,1200,,,,0.0625,-0.5546875,-0.75,-0.0023998031290506463,-1.134973394802771,22.657671951456667,0.2964601647237363,1583,0,6.717097158985224,0.3978447812477599,5.922867748244149,2.8528045315641837,0.16896783952046263,0.470703125,,
2.7208549999995157,1200,,,,-0.03125,0.49609375,-1.158203125,-0.0023998031290506463,-1.134973394802771,22.65739431163781,0.2987457109910778,1583,0,6.7687993728354385,0.3978056178244089,5.877048438174771,2.853085386299766,0.16767721013532308,0.47265625,,
2.7287299999995156,1200,,,,-0.125,-0.03125,-0.880859375,-0.0023998031290506463,-1.134973394802771,22.65732552114358,0.30093527765449335,1583,0,6.818388546613582,0.3977187092237957,5.833030876794584,2.8537088361214686,0.16645771754478061,0.470703125,,
2.7398499999996275,1200,,,,0.1875,0.109375,-1.26953125,-0.0023998031290506463,-1.134973394802771,22.657455172762397,0.3001417121882475,1582,0,6.80044738938137,0.3976848973587497,5.847922564325972,2.85395146343442,0.16689687160509278,0.46875,,0.2354199999999255,4984,
2.7586699999999253,1200,,,,0.09375,0.265625,-1.13671875,0.003437902569859193,-1.134973394802771,22.657392373573256,0.29729525747213814,1586,0,6.7359352993487205,0.5711573499342243,8.47925825518912,1.9871466154352682,0.16849529343200617,0.47265625,,
2.776004999998957,1500,,,,0.03125,0.23828125,-1.064453125,0.003437902569859193,-1.134973394802771,22.657151246103762,0.2948103724460922,1588,0,6.679563197431293,0.571637159842399,8.558002116998145,1.985478682169095,0.16991730765257806,0.466796875,,
2.7839899999992923,1500,,,,-0.15625,-0.466796875,-0.77734375,0.003437902569859193,-1.134973394802771,22.657093864894232,0.29624721369748286,1587,0,6.712100927957249,0.5715255750806377,8.514853712942825,1.9858663274038701,0.16909361271302978,0.46875,,
2.7917949999999254,1500,,,,-0.1875,0.56640625,-1.0625,0.003437902569859193,-1.134973394802771,22.657233522707475,0.3992860038158925,1587,0,9.046716230805345,0.5714829760460884,6.317021131934129,1.9860143562898338,0.1254569465700744,0.47265625,,
2.7989799999995157,1500,,,,0.15625,0.26171875,-1.001953125,0.003437902569859193,-1.134973394802771,22.639418397136563,0.8782278683941597,1787,0,19.882568160600766,0.6433049447736191,3.235522391158654,1.764285202567767,0.05708384277297893,0.4765625,,
2.806139999999665,1500,,,,-0.21875,0.341796875,-0.78515625,0.003437902569859193,-1.134973394802771,22.621988636181847,1.350495058523781,1983,0,30.55088386714471,0.7138520267858554,2.336600243351886,1.5899280974420282,0.03715026379395044,0.48046875,,
2.8155849999999627,1500,,,,-0.125,0.421875,-0.7734375,0.003437902569859193,-1.134973394802771,22.602668633381995,1.9974993728598274,2070,0,45.14881642013903,0.7453787163172714,1.6509374451392895,1.522680175804306,0.025138497192066057,0.478515625,,
2.823804999999702,1500,,,,0.4375,-0.283203125,-1.25390625,0.003437902569859193,-1.134973394802771,22.591771900936752,2.2868320622752836,2079,0,51.663588326672,0.7485222656964895,1.4488390952706147,1.5162854157006191,0.02196853589855713,0.482421875,,
2.832204999999143,1500,,,,0.0625,-0.04296875,-0.642578125,0.003437902569859193,-1.134973394802771,22.581729700990216,2.535310053552495,2083,0,57.25168633752547,0.7498708520049643,1.309779501662405,1.5135584904629111,0.019824278853754134,0.482421875,,
2.840864999999292,1500,,,,0.125,-0.09765625,-1.23046875,0.003437902569859193,-1.134973394802771,22.573444368299658,2.758105231165211,2369,0,62.25993499762416,0.8528589287539384,1.3698358804686892,1.3307867884563431,0.01822959492081194,0.48046875,,
2.8487599999997766,1500,,,,-0.03125,0.37109375,-0.9921875,0.003437902569859193,-1.134973394802771,22.567455742933788,2.9108716621095962,2532,0,65.69096740801842,0.9115921154282639,1.3876978089943495,1.245045207822539,0.01727746506994252,0.48046875,,
2.8556550000002607,1500,,,,-0.09375,-0.05859375,-0.921875,0.003437902569859193,-1.0819217491091306,22.563188899264144,3.0097749276840426,2713,0,67.91012023760413,0.976749607452161,1.4382975674828826,1.1076756426156238,0.015931671823340904,0.478515625,,
2.8634799999995155,1500,,,,-0.0625,0.66796875,-1.484375,0.003437902569859193,-1.0819217491091306,22.55972534868116,3.101342265443262,2865,0,69.9654297206566,1.03129171118834,1.4740018253384088,1.0490938086397017,0.015463661888861438,0.48046875,,
2.8719949999991803,1500,,,,-0.25,-0.2890625,-0.8046875,0.003437902569859193,-1.0819217491091306,22.556670577980324,3.1790566665105975,4327,0,71.7089339752118,1.5577826624004145,2.1723690146319923,0.6945267624444983,0.015087684185671024,0.48046875,,
2.8799349999995902,1500,,,,0.0625,0.140625,-1.11328125,0.003437902569859193,-1.0819217491091306,22.554474521101863,3.2298942695221666,5527,0,72.84856800779062,1.9898033727561582,2.7314241407509385,0.5437329958942207,0.014851654311083057,0.478515625,,
2.8900249999994414,1500,,,,-0.03125,0.111328125,-0.951171875,0.003437902569859193,-1.0819217491091306,22.55288863377576,3.2621747661338105,6267,0,73.5714642045293,2.256087856188246,3.0665256979476476,0.4795565678621587,0.014705725389688845,0.482421875,,
2.8987900000000373,1500,,,,0,0.12890625,-0.923828125,0.003437902569859193,-1.0819217491091306,22.551312009544354,3.299575222328834,5232,0,74.40975033769921,1.8834582467138659,2.5311981805691186,0.5744336254848211,0.014540053476849018,0.48046875,,
2.9070649999994784,1500,,,,-0.09375,-0.10546875,-1.056640625,0.003437902569859193,-1.0819217491091306,22.550307405117767,3.3222315602338575,4245,0,74.9173429542575,1.528164999675885,2.039801385653708,0.7079875205482392,0.014441539254398315,0.48046875,,
2.915444999999367,1500,,,,0.125,0.0859375,-0.85546875,0.009999995469185294,-1.0819217491091306,22.549792410898448,3.322474161746638,3754,0,74.92110263796052,3.931047165630731,5.246915791705092,0.27522482013658006,0.014440814550438157,0.478515625,,
2.923144999999553,1500,,,,-0.09375,0.142578125,-1.09375,0.009999995469185294,-1.0819217491091306,22.549802479451806,3.3166217474264688,3607,0,74.78916530352117,3.7773106929213087,5.050612181044716,0.2864264650341459,0.014466289932750356,0.478515625,,
2.940125,1500,,,,0,-0.013671875,-1.03515625,0.009999995469185294,-1.0819217491091306,22.5502792226118,3.2923619177006245,3540,0,74.24368054604273,3.707069173110117,4.993110721135589,0.291853671616662,0.014572576967519405,0.478515625,,
2.9484749999996276,1500,,,,-0.1875,-0.20703125,-0.69140625,0.009999995469185294,-1.0819217491091306,22.55061497509544,3.2787768619104325,3571,0,73.93843460219382,3.739930300059211,5.058168082920495,0.2892892814317961,0.014632738100693156,0.478515625,,
2.9567099999990316,1500,,,,0,0.34765625,-1.083984375,0.009999995469185294,-1.0819217491091306,22.551356304408205,3.258136873568945,3587,0,73.47540552438387,3.7558598929813316,5.1117239383386535,0.2880623292500726,0.014724951041611868,0.478515625,,
2.964129999999888,1500,,,,-0.1875,-0.216796875,-0.865234375,0.009999995469185294,-1.0819217491091306,22.551813592963764,3.2417065706734274,3591,0,73.10636230491295,3.7603415327976917,5.143658382445581,0.28771901160376295,0.014799283058246527,0.478515625,,
2.974285000000149,1500,,,,0.1875,0.56640625,-1.21875,0.009999995469185294,-1.0819217491091306,22.552266072940796,3.2144140337438682,3626,0,72.49232055758661,3.797485846688672,5.238466388549415,0.2849047482435106,0.014924639476117631,0.478515625,,
2.9820499999988823,1500,,,,0.03125,-0.275390625,-0.849609375,0.009999995469185294,-1.0819217491091306,22.552839598458995,3.1952472102559377,3626,0,72.06189781032575,3.796954875398124,5.269018705824395,0.28494458970774245,0.015013783732935524,0.4765625,,
2.9910299999993293,1500,,,,0,0.298828125,-1.166015625,0.009999995469185294,-1.0819217491091306,22.553456403099386,3.1741818984485657,3632,0,71.58877306216696,3.803703632516216,5.313268365715834,0.2844390240764948,0.015113008686007245,0.4765625,,
2.9990749999992548,1500,,,,-0.0625,-0.640625,-0.67578125,0.009999995469185294,-1.0819217491091306,22.553904032455364,3.1536535156424104,3657,0,71.1271987434144,3.8294348229277424,5.383924701916236,0.28252778781647003,0.01521108335802842,0.478515625,,
3.0073349999999626,1500,,,,-0.125,0.4375,-1.10546875,0.009999995469185294,-2.113682194713367,22.55440072801337,3.1347076050369385,3649,0,70.70145148915417,3.821478400045613,5.405091860995018,0.5531058855881897,0.029895881204611664,0.478515625,,
3.0160699999993668,1500,,,,-0.0625,-0.412109375,-0.736328125,0.009999995469185294,-2.113682194713367,22.55508261693686,3.11149128737003,3655,0,70.17994304851025,3.827429926515578,5.453737578370442,0.5522458242985064,0.03011803804474925,0.48046875,,
3.0251349999997763,1500,,,,0.1875,0.259765625,-1.0703125,0.009999995469185294,-2.113682194713367,22.55578193294626,3.088271317566288,3666,0,69.65837438879782,3.8386726633802923,5.510712383201426,0.5506284020716896,0.03034354753838874,0.482421875,,
3.033375,1500,,,,-0.375,-0.28515625,-0.6796875,0.009999995469185294,-2.113682194713367,22.556453847687347,3.0657889077761973,3682,0,69.1533260050056,3.856302389575007,5.5764525184166445,0.5481111129737704,0.03056515596314732,0.484375,,
3.0432249999996275,1500,,,,0.125,0.3984375,-1.099609375,0.009999995469185294,-2.113682194713367,22.55707584698565,3.0439764425960867,3671,0,68.66320749207749,3.844162683006818,5.5985772051944505,0.5498420251715498,0.030783330285833913,0.484375,,
3.064035000000149,1500,,,,-0.0625,-0.087890625,-0.955078125,0.04428621482837739,-2.113682194713367,22.558556230647522,2.9850412242837487,3687,0,67.33822030880587,17.10068443707406,25.395212939475016,0.12360219864246672,0.03138904154312732,0.48828125,,
3.0731399999987334,1500,,,,0.15625,0.158203125,-1.12109375,0.04428621482837739,-2.113682194713367,22.55938074963014,2.9628363308843197,3690,0,66.83975288725652,17.110863470889218,25.599830537601413,0.12352866927548008,0.031623129999877,0.4921875,,
3.0809049999993294,1500,,,,-0.3125,-0.35546875,-0.76171875,0.04428621482837739,-2.113682194713367,22.559730932378184,2.9474802123587196,3690,0,66.49436051932162,17.114203124462932,25.737826472502086,0.12350456397774569,0.0317873903622125,0.4921875,,
3.089114999999292,1500,,,,0.0625,0.33203125,-1.029296875,0.04428621482837739,-2.113682194713367,22.560239446115826,2.9323284424789513,3688,0,66.15403179698102,17.104811418699207,25.85603772600266,0.12357237639011102,0.03195092025834511,0.4921875,,
3.0972599999988453,1500,,,,-0.0625,-0.65625,-0.83984375,0.04428621482837739,-2.113682194713367,22.56062286504568,2.9167639134251577,3691,0,65.80401063715973,17.116708857668417,26.0116498856721,0.12348648401333423,0.03212087187767495,0.494140625,,
3.1061199999991804,1500,,,,-0.09375,0.267578125,-1.05859375,0.04428621482837739,-2.113682194713367,22.561173065839448,2.8979876343696733,3698,0,65.38200056167685,17.149370587625786,26.229498088618836,0.12325129857759942,0.03232819700460934,0.4921875,,
3.114569999999367,1500,,,,-0.125,0.03125,-0.79296875,0.04428621482837739,-2.113682194713367,22.56170762979238,2.885323570007663,3698,0,65.09782680386168,17.150899070575957,26.346346587346513,0.12324031445905921,0.03246932038271946,0.490234375,,
3.1230699999993665,1500,,,,0.21875,0.017578125,-1.009765625,0.04428621482837739,-2.113682194713367,22.56241686790122,2.8723193368376747,3698,0,64.8064662554652,17.147741204789767,26.459923207653187,0.12326300994809546,0.032615297775707965,0.490234375,,
3.1311749999988825,1500,,,,-0.375,0.19140625,-0.8203125,0.04428621482837739,-2.113682194713367,22.562890881863158,2.8605722037035837,3698,0,64.54277849185479,17.150265635547424,26.57193575530958,0.12324486626797952,0.03274854668644473,0.490234375,,
3.1393399999989198,1500,,,,0.03125,0.05078125,-1.12890625,0.04428621482837739,-2.113682194713367,22.5631411814672,2.8472816187076373,3700,0,64.24361714629687,17.158417069578753,26.708360817394915,0.12318631643829481,0.03290104587199764,0.490234375,,
3.1483499999986964,1500,,,,-0.21875,0.14453125,-0.93359375,0.04428621482837739,-2.113682194713367,22.56340901212426,2.833777764822382,3698,0,63.939686757150675,17.15042167378909,26.8228115332002,0.12324374495955968,0.03305743743696061,0.490234375,,
3.1557399999992923,1500,,,,0.3125,-0.12109375,-1.17578125,0.04428621482837739,-4.251182410207045,22.563565316109468,2.8229848914777955,3692,0,63.69660398524944,17.123026023644513,26.882164750274256,0.24827284641959632,0.06674111560471127,0.490234375,,
3.1635699999993667,1500,,,,-0.21875,-0.033203125,-0.873046875,0.04428621482837739,-4.251182410207045,22.56388145281374,2.8111806705916433,3694,0,63.43114739367127,17.13338744903377,27.011000357126164,0.24812270328053485,0.06702042426921635,0.490234375,,
3.171089999999851,1500,,,,-0.0625,0.2421875,-1.08203125,0.04428621482837739,-4.251182410207045,22.564235143495356,2.804825567906534,3700,0,63.288743650730936,17.15732491245582,27.109599468653165,0.24777652879446174,0.06717122453351067,0.490234375,,
3.1781899999994785,1500,,,,-0.0625,-0.19140625,-0.890625,0.04428621482837739,-4.251182410207045,22.564568993934472,2.7955506748359245,3698,0,63.08039607837529,17.14983808232166,27.187270766362275,0.2478846966251673,0.06739308365985992,0.490234375,,
3.186125,1500,,,,0.15625,0.107421875,-1,0.04428621482837739,-4.251182410207045,22.56473606947104,2.788993177764275,3695,0,62.932894955806184,17.13681373986735,27.2302962574683,0.24807309426005072,0.06755103850208041,0.48828125,,
3.196629999998957,1500,,,,-0.125,-0.12890625,-0.70703125,0.04428621482837739,-4.251182410207045,22.56483142938076,2.7770955256572267,3704,0,62.664692399742876,17.17846575897149,27.413308996059122,0.24747160019146971,0.06784015443797964,0.48828125,,
3.212764999999665,1500,,,,-0.28125,0.130859375,-0.89453125,0.08813780024866309,-4.251182410207045,22.565350224765055,2.755008033341008,3702,0,62.16772114438104,34.16749977461717,54.960193402079305,0.12442181717273978,0.06838247135251932,0.490234375,,
3.2208899999987333,1500,,,,0.15625,-0.142578125,-1.0234375,0.08813780024866309,-4.251182410207045,22.565740090595764,2.744899506309444,3703,0,61.94068883418354,34.17918866950444,55.1805110869897,0.12437926632237647,0.06863311484293541,0.48828125,,
3.2288200000002982,1500,,,,-0.4375,0.4609375,-0.86328125,0.08813780024866309,-4.251182410207045,22.566045623730954,2.7373074724279007,3695,0,61.77020530898767,34.10310028353641,55.209627542834724,0.12465677240081727,0.06882253974941041,0.490234375,,
3.2371549999993294,1500,,,,0.125,-0.11328125,-1.1015625,0.08813780024866309,-4.251182410207045,22.566404359347384,2.7292667999681264,3700,0,61.58973821262281,34.15137139398946,55.44977521432318,0.12448057681675534,0.06902420003038373,0.490234375,,
3.245129999999888,1500,,,,-0.21875,0.212890625,-0.984375,0.08813780024866309,-4.251182410207045,22.566680313835025,2.7199598218232777,3700,0,61.380463765561586,34.148902648769976,55.634807158185275,0.12448957595889748,0.06925953551677519,0.490234375,,
3.251984999999404,1500,,,,0.3125,-0.16015625,-1.0390625,0.08813780024866309,-4.251182410207045,22.566910000018435,2.7145937542847243,3695,0,61.25999293955553,34.10811753677335,55.677638700395214,0.1246384355754513,0.06939573784152464,0.48828125,,
3.2600700000002982,1500,,,,-0.25,0.212890625,-0.919921875,0.08813780024866309,-4.251182410207045,22.566963397955472,2.7094135049283388,3698,0,61.14323539564407,34.13176980036937,55.82264265132585,0.12455206498436656,0.0695282541510701,0.490234375,,
3.2676699999999257,1500,,,,0.25,-0.09765625,-1.13671875,0.08813780024866309,-4.251182410207045,22.56714329447726,2.7047338350638994,3699,0,61.038116029308036,34.14108846618729,55.93404693191074,0.1245180690245813,0.06964799516691832,0.490234375,,
3.274625,1500,,,,-0.1875,-0.18359375,-0.857421875,0.08813780024866309,-4.251182410207045,22.567350072971003,2.700928514893174,3702,0,60.95279931766393,34.16432768277142,56.050465385058544,0.1244333694981756,0.0697454826980369,0.490234375,,
3.2814799999995157,1500,,,,0.0625,0.3046875,-1.2265625,0.08813780024866309,-4.251182410207045,22.567814060901217,2.695208338931444,3694,0,60.82496064839525,34.09461686036836,56.05366036725563,0.12468778950112289,0.06989207004639805,0.490234375,,
3.2892449999991804,1500,,,,0.1875,-0.45703125,-0.9375,0.08813780024866309,-4.251182410207045,22.56791052057829,2.6908190164683776,3691,0,60.72616279072883,34.0642485717446,56.094847766250176,0.12479894870580795,0.07000578029040361,0.490234375,,
3.297254999998957,1500,,,,-0.15625,0.384765625,-0.931640625,0.08813780024866309,-4.251182410207045,22.56810853987418,2.6855859111167795,3697,0,60.608594335240376,34.121263667252165,56.29773143808523,0.12459041528075386,0.07014157739235391,0.48828125,,
3.3076949999993666,1500,,,,-0.09375,-0.228515625,-0.90625,0.08813780024866309,-5.260791275204846,22.568264882112445,2.6824875374969808,3700,0,60.5390892891974,34.146690708723284,56.404368003627084,0.1540644544468521,0.08689908184898285,0.490234375,,
3.316034999999218,1500,,,,0.15625,0.162109375,-1.1328125,0.08813780024866309,-5.260791275204846,22.568397679377487,2.6784074046744286,3700,0,60.44736345608185,34.15463167846587,56.50309579388186,0.1540286343805522,0.08703094683405148,0.490234375,,
3.3232599999997765,1500,,,,-0.0625,-0.4140625,-0.734375,0.08813780024866309,-5.260791275204846,22.56855159840943,2.6763610822696373,3701,0,60.40159318117722,34.157094535134625,56.54998938964893,0.15401752832910007,0.0870968959283056,0.490234375,,
3.3312949999999253,1500,,,,-0.03125,0.345703125,-1.091796875,0.08813780024866309,-5.260791275204846,22.569110415457107,2.6740143075035596,3701,0,60.350124158559915,34.15826116966774,56.60015061430958,0.1540122680447325,0.08717117567783277,0.490234375,,
3.3394749999996276,1500,,,,-0.28125,-0.072265625,-0.85546875,0.08813780024866309,-5.260791275204846,22.56905559893349,2.671650431629405,3702,0,60.2966271323587,34.169494975929354,56.66899891584814,0.1539616338757948,0.08724851663189627,0.4921875,,
3.350729999999516,1500,,,,0,0.421875,-1.234375,0.08813780024866309,-5.260791275204846,22.569144079863424,2.6689085954982956,3704,0,60.23498262778696,34.18551277253211,56.75358617396199,0.15388949436592525,0.08733780679763978,0.4921875,,
3.3590849999999626,1500,,,,0.01953125,0.033203125,-0.939453125,0.08813780024866309,-5.260791275204846,22.56915681005383,2.664296687034008,3697,0,60.13092971817744,34.125720355961924,56.75235775648717,0.15415912749474783,0.08748893955009847,0.494140625,,
3.366969999999739,1500,,,,0.25,-0.21875,-1.05078125,0.1061389501047032,-5.260791275204846,22.569100806189976,2.6606606459915634,3708,0,60.048718330446135,41.21402588063029,68.63431398124244,0.12764565370153041,0.08760871874491781,0.494140625,,
3.375379999998957,1500,,,,-0.28125,0,-0.89453125,0.1061389501047032,-5.260791275204846,22.569310170351226,2.656379460925153,3705,0,59.95265198377016,41.17528212424882,68.67966764071657,0.12776576149084057,0.08774910035053994,0.494140625,,
3.3842199999997393,1500,,,,0.09375,-0.130859375,-0.962890625,0.1061389501047032,-5.260791275204846,22.569246854223557,2.650925888482975,3699,0,59.829400769424176,41.10891871922321,68.71022973747036,0.1279720177301772,0.08792986738208104,0.4921875,,
3.3926199999991806,1500,,,,-0.1875,0.443359375,-1.04296875,0.1061389501047032,-5.260791275204846,22.569324948989692,2.6471715249132397,3703,0,59.744874341479466,41.15347460882426,68.882017181267,0.12783346546580077,0.0880542696455619,0.494140625,,
3.3996049999995157,1500,,,,0.1875,-0.55859375,-0.8984375,0.1061389501047032,-5.260791275204846,22.56939139528212,2.643130483438749,3698,0,59.65384638953037,41.09949484476911,68.89663841019701,0.1280013609674428,0.08818863482587014,0.494140625,,
3.4083600000003353,1500,,,,-0.1875,0.2421875,-0.96875,0.1061389501047032,-5.260791275204846,22.569520365911217,2.6383720689477865,3698,0,59.54679214296838,41.10708529821804,69.0332490111681,0.12797772542226188,0.08834718186957902,0.494140625,,
3.416679999999702,1500,,,,0.4375,-0.34765625,-0.9609375,0.1061389501047032,-5.260791275204846,22.56938054113309,2.634158429526578,3700,0,59.45132400161885,41.12434742038233,69.17313972563927,0.127924006220156,0.088489051565304,0.494140625,,
3.4250199999995528,1500,,,,-0.21875,0.203125,-0.939453125,0.1061389501047032,-5.260791275204846,22.569378002584997,2.632299163806171,3698,0,59.40935484382988,41.10432224962978,69.18829931360344,0.12798632813492572,0.08855156379048307,0.494140625,,
3.4336399999996647,1500,,,,0.03125,-0.26953125,-0.927734375,0.1061389501047032,-5.260791275204846,22.569698819263973,2.6308431492318394,3698,0,59.377337518886556,41.097530890814156,69.21416925732309,0.12800747785022537,0.08859931238128536,0.494140625,,
3.4424349999995902,1500,,,,-0.375,0.4453125,-0.9921875,0.1061389501047032,-5.260791275204846,22.56960473140388,2.6291402006970266,3700,0,59.33865511317576,41.12667079035665,69.30839721917583,0.12791677940628232,0.08865706958088306,0.494140625,,
3.451609999999404,1500,,,,0.15625,-0.11328125,-1.12109375,0.1061389501047032,-5.690113225725356,22.569516094777487,2.627294158383583,3704,0,59.29675779335315,41.16903912419622,69.42881981451445,0.13821340858988168,0.09595993840936759,0.494140625,,
3.4593199999993667,1500,,,,-0.1875,0.30859375,-0.908203125,0.1061389501047032,-5.690113225725356,22.569637195446106,2.6257566967164916,3702,0,59.262376008404225,41.14886340479758,69.43505504902825,0.13828117607403806,0.096015610729452,0.494140625,,
3.467410000000149,1500,,,,-0.125,-0.216796875,-0.958984375,0.1061389501047032,-5.690113225725356,22.56985330847449,2.626850074926635,3700,0,59.287620854449365,41.12353281965687,69.36276448099481,0.1383663521973848,0.09597472699561581,0.49609375,,
3.477719999999739,1500,,,,0.0625,0.083984375,-1.068359375,0.1061389501047032,-5.690113225725356,22.57019034073743,2.6260966942383566,3698,0,59.271502242141054,41.1070192169712,69.35376641718521,0.13842193703444616,0.09600082688101298,0.49609375,,
3.5040149999987333,1500,,,,0,0.0703125,-0.9453125,0.1061389501047032,-5.690113225725356,22.57006940750151,2.627330775910993,3697,0,59.299037968775906,41.09210489281987,69.29641070139628,0.13847217709014473,0.09595624854355146,0.49609375,,
3.513644999999553,1500,,,,-0.01953125,0.07421875,-1.01953125,0.11203821429929374,-5.690113225725356,22.57001263138972,2.626233550922592,3698,0,59.274124417302374,43.38781295906649,73.19857254002962,0.13114542627658138,0.09599657998599449,0.49609375,,
3.521844999999739,1500,,,,-0.09375,0.337890625,-0.900390625,0.11203821429929374,-5.690113225725356,22.570122484942004,2.623828284265236,3701,0,59.220125755321604,43.41943151394239,73.31870873313818,0.1310499245919009,0.09608411250653304,0.494140625,,
3.5308999999994413,1500,,,,0.3125,-0.3125,-0.9453125,0.11203821429929374,-5.690113225725356,22.57001615196701,2.623074232642449,3699,0,59.20282779854855,43.40262694688813,73.31174634863001,0.13110066431435954,0.09611218648351218,0.49609375,,
3.539614999999292,1500,,,,-0.34375,0.119140625,-0.970703125,0.11203821429929374,-5.690113225725356,22.57005133489201,2.622298800457787,3701,0,59.18541854175799,43.4213352418657,73.3649204680879,0.1310441789509757,0.0961404576654421,0.49609375,,
3.5475649999994783,1500,,,,0.125,-0.302734375,-1.009765625,0.11203821429929374,-5.690113225725356,22.570147567752105,2.6229163804201576,3701,0,59.19960976395718,43.42779625162828,73.35824750329462,0.13102468273443674,0.09611741105073465,0.49609375,,
3.566379999999888,1500,,,,-0.15625,-0.140625,-0.8359375,0.11203821429929374,-5.690113225725356,22.57017590750032,2.6218611681538833,3696,0,59.17586777027742,43.36866548538936,73.28775583612543,0.13120332761086045,0.09615597438831916,0.498046875,,
3.5739599999990315,1500,,,,0.09375,-0.0390625,-1.056640625,0.11203821429929374,-5.690113225725356,22.57016770805144,2.619434541120243,3701,0,59.12107689334665,43.41769912541454,73.43861344701025,0.1310551535513002,0.0962450876189251,0.498046875,,
3.581649999999441,1500,,,,-0.3125,-0.23828125,-0.8046875,0.11203821429929374,-5.690113225725356,22.57006564598239,2.6204656105398185,3699,0,59.144080852923025,43.40251339018215,73.3843738278961,0.13110100732121394,0.09620765330473706,0.498046875,,
3.5901399999996646,1500,,,,0,0.69140625,-1.00390625,0.11203821429929374,-5.690113225725356,22.570234691590823,2.6189628006155914,3696,0,59.11060505843988,43.3587011652237,73.35181414968936,0.1312334796202145,0.09626213807319021,0.5,,
3.5969949999991804,1500,,,,0.09375,-0.310546875,-0.90234375,0.11203821429929374,-5.690113225725356,22.570224673305212,2.617418214526799,3698,0,59.07571716587123,43.385717961536486,73.44086545698501,0.13115175899059486,0.096318986864752,0.498046875,,
3.6041949999993665,1500,,,,-0.3125,0.53125,-1.0078125,0.11203821429929374,-5.880420750927226,22.57030347325612,2.6147253202720955,3699,0,59.015143977748004,43.393602480564404,73.52960537879262,0.13551354150789882,0.09964257230558435,0.5,,
3.6115999999996276,1500,,,,0.09375,-0.251953125,-0.974609375,0.11203821429929374,-5.880420750927226,22.570289911492658,2.613005216915899,3698,0,58.976285286034596,43.392672314717835,73.57647587375783,0.13551644637780738,0.0997082254741414,0.498046875,,
3.626334999999963,1500,,,,0.3125,-0.5234375,-0.79296875,0.11203821429929374,-5.880420750927226,22.56991319123124,2.612051757088262,3707,0,58.953781408485106,43.490707967288515,73.77085392698658,0.13521096863610907,0.09974628616580765,0.5,,
3.6340299999993295,1500,,,,-0.28125,0.28515625,-1.03515625,0.11203821429929374,-5.880420750927226,22.569825407089436,2.6136943500570764,3708,0,58.990625148284316,43.50322821608357,73.74600304155078,0.1351720548580617,0.09968398768695286,0.5,,
3.6569549999991433,1500,,,,-0.1875,0.12890625,-0.880859375,0.11203821429929374,-5.880420750927226,22.570004351446073,2.612598275228547,3693,0,58.96635444048881,43.32898770155527,73.48086567787502,0.13571562740931867,0.09972501788052678,0.501953125,,
3.671094999999739,1500,,,,-0.0625,-0.052734375,-0.95703125,0.11459544987750711,-5.880420750927226,22.570196982503056,2.6116006189110608,3699,0,58.944340408449534,44.39273330725447,75.3129698282125,0.13246358835864414,0.09976226233391325,0.501953125,,
3.678924999999814,1500,,,,0,0,-0.9609375,0.11459544987750711,-5.880420750927226,22.570273598358874,2.6131399548883745,3699,0,58.979283732633775,44.389108976516724,75.26220423045902,0.13247440389123735,0.0997031564097062,0.501953125,,
3.686294999998994,1500,,,,0.0625,0.66796875,-1.09375,0.11459544987750711,-5.880420750927226,22.57009782452693,2.6135615565921304,3700,0,58.988340002707254,44.40666102211743,75.28040460212883,0.1324220424498566,0.09968784933865481,0.501953125,,
3.6949199999999256,1500,,,,-0.03125,-0.21875,-0.873046875,0.11459544987750711,-5.880420750927226,22.570191137370195,2.613326594758891,3702,0,58.98328074808095,44.42912374573489,75.32494493735061,0.13235509177674779,0.09969640000261511,0.5,,
3.7038099999995904,1500,,,,0.03125,0.078125,-1.12109375,0.11459544987750711,-5.880420750927226,22.57014394996169,2.6135537094125985,3702,0,58.98828344239869,44.42866029979821,75.31777110141242,0.13235647240423168,0.09968794492332332,0.501953125,,
3.712534999999218,1500,,,,-0.1875,0.1328125,-0.845703125,0.11459544987750711,-5.880420750927226,22.57009926433036,2.614966990738965,3703,0,59.020064553925685,44.43836449060457,75.29365619382193,0.13232756916988922,0.09963426498041832,0.501953125,,
3.721234999999404,1500,,,,0.1875,0.29296875,-1.1640625,0.11459544987750711,-5.880420750927226,22.57019721168323,2.614647917949394,3702,0,59.013119147234775,44.42741201669334,75.28395831077692,0.13236019124223783,0.09964599119487093,0.5,,
3.729679999998771,1500,,,,-0.1875,-0.20703125,-0.87109375,0.11459544987750711,-5.880420750927226,22.570361692030268,2.6132018397178505,3701,0,58.980910696710794,44.40880139315383,75.29351593350421,0.13241566010457032,0.0997004061392894,0.501953125,,
3.736894999999553,1500,,,,0.125,0.005859375,-1.0859375,0.11459544987750711,-5.880420750927226,22.57044064445373,2.612988498356311,3701,0,58.9763018067914,44.41135350397988,75.30372733351976,0.1324080508017,0.0997081975433405,0.501953125,,
3.743844999999739,1500,,,,-0.375,-0.00390625,-0.78515625,0.11459544987750711,-5.880420750927226,22.570247545446716,2.6130883604096877,3705,0,58.978051152572135,44.46457908858814,75.39174018070104,0.13224955394745747,0.09970524010220318,0.501953125,,
3.7510999999986963,1500,,,,0.15625,0.16015625,-1.07421875,0.11459544987750711,-5.948136765630713,22.57041129647213,2.6140361560199756,3707,0,58.999871185219845,44.4876841301477,75.40301908539146,0.13370299852493053,0.10081609749549403,0.501953125,,
3.758949999999255,1500,,,,-0.1875,-0.30859375,-0.74609375,0.11459544987750711,-5.948136765630713,22.570310200216515,2.6151806795365045,3703,0,59.02543916675192,44.437808752168934,75.2858587407174,0.13385306190059146,0.1007724271026043,0.501953125,,
3.7657799999993293,1500,,,,-0.375,0.55078125,-1.17578125,0.11459544987750711,-5.948136765630713,22.570262355178283,2.614015722512447,3704,0,58.99902065766684,44.446102220845496,75.33362711007948,0.1338280854432495,0.10081755085637613,0.50390625,,
3.773785000000149,1500,,,,0.125,-0.244140625,-0.94140625,0.11459544987750711,-5.948136765630713,22.570163087641998,2.612356808078846,3707,0,58.961319201451445,44.479799054445344,75.43894820682776,0.13372670048149085,0.10088201631493159,0.501953125,,
3.782149999999441,1500,,,,-0.15625,0.33203125,-1.048828125,0.11459544987750711,-5.948136765630713,22.57005542922093,2.6112059589998484,3712,0,58.935063231738575,44.54247474414641,75.57890379959538,0.1335385337208367,0.10092695993626143,0.501953125,,
3.78968499999959,1500,,,,0.0625,-0.65625,-0.8984375,0.11459544987750711,-5.948136765630713,22.57008523577498,2.6104559357495303,3705,0,58.91821297410163,44.46167000323739,75.46337161105204,0.13378122695790803,0.10095582444507108,0.501953125,,
3.7977449999991806,1500,,,,-0.15625,0.291015625,-0.93359375,0.11459544987750711,-5.948136765630713,22.57017853688423,2.610373939441019,3698,0,58.91660586121362,44.37691571682349,75.321575416886,0.1340367321511654,0.10095857829356954,0.501953125,,
3.8099599999990312,1500,,,,0.09375,-0.29296875,-0.80859375,0.11459544987750711,-5.948136765630713,22.56983679280602,2.6100452990711394,3698,0,58.90829642186619,44.380440663223354,75.33818385342028,0.1340260861934105,0.10097281922793515,0.501953125,,
3.820014999999665,1500,,,,0.0625,0.10546875,-1.16796875,0.11550483196852572,-5.948136765630713,22.569696902200818,2.6067240843131434,3706,0,58.832972490614615,44.82503999721166,76.19033698214453,0.13269674195495904,0.10110209485981003,0.501953125,,
3.8284299999987708,1500,,,,-0.21875,0.13671875,-0.865234375,0.11550483196852572,-5.948136765630713,22.56990671299592,2.6025877597798397,3703,0,58.74016295061602,44.78601374761143,76.24427903828577,0.13281237305804974,0.1012618363117485,0.501953125,,
3.8360449999999253,1500,,,,0.1875,-0.208984375,-0.96875,0.11550483196852572,-5.948136765630713,22.569814778296458,2.6028863236130855,3702,0,58.746662212908355,44.77681049034935,76.22017797040148,0.13283967081381784,0.10125063350958743,0.501953125,,
3.8439049999993293,1500,,,,-0.4375,0.3359375,-0.8671875,0.11550483196852572,-5.948136765630713,22.5700264463467,2.6014401097648574,3703,0,58.71457207597989,44.78794884617561,76.28080604626997,0.13280663479498944,0.101305971504544,0.501953125,,
3.851839999999851,1500,,,,0.09375,-0.119140625,-1.119140625,0.11550483196852572,-5.948136765630713,22.569736344701763,2.6011662828327116,3701,0,58.70763719226223,44.76521761894096,76.25109740379926,0.1328740723716252,0.10131793834848267,0.501953125,,
3.8597599999997767,1500,,,,-0.3125,-0.08203125,-0.77734375,0.11550483196852572,-5.948136765630713,22.569651331921918,2.601751873239118,3702,0,58.72063263118161,44.781003003434655,76.26110448213261,0.13282723402096414,0.10129551571745424,0.501953125,,
3.8684049999993295,1500,,,,0.1875,0.212890625,-1.052734375,0.11550483196852572,-5.948136765630713,22.569633280146938,2.5999290211182053,3704,0,58.6794445610493,44.80118272193043,76.3490231665705,0.1327674048819043,0.10136661671093958,0.50390625,,
3.876634999998845,1500,,,,-0.28125,0.064453125,-0.9140625,0.11550483196852572,-5.948136765630713,22.56965062603472,2.602195481715519,3703,0,58.730642882965384,44.789176746709785,76.26202361850993,0.13280299388551864,0.10127825056306253,0.505859375,,
3.884780000000261,1500,,,,0.25,-0.0234375,-1.25,0.11550483196852572,-5.948136765630713,22.569832685768695,2.601447923341548,3705,0,58.714244370559165,44.81244026056031,76.32294469760804,0.13273405177324615,0.1013065369297891,0.50390625,,
3.8927050000000745,1500,,,,-0.125,0.033203125,-0.76953125,0.11550483196852572,-5.948136765630713,22.569642411615302,2.6005177525097887,3706,0,58.69275575920343,44.82158466959562,76.36646821199444,0.1327069716405093,0.10134362731295002,0.505859375,,
3.9006899999994786,1500,,,,0.09375,-0.0234375,-1.033203125,0.11550483196852572,-5.977011928487335,22.569465718360274,2.5983918872011253,3701,0,58.64431662105125,44.76921889488462,76.34025166355855,0.1335071747068224,0.10191971316009497,0.505859375,,
3.9089999999990686,1500,,,,-0.4375,0.28515625,-0.86328125,0.11550483196852572,-5.977011928487335,22.56952581669306,2.60086104677939,3701,0,58.70020054091877,44.76694472551525,76.26369980509536,0.13351395689687737,0.10182268328573896,0.505859375,,
3.91675,1500,,,,0.125,0.072265625,-1.07421875,0.11550483196852572,-5.977011928487335,22.569548660707916,2.602498876305899,3700,0,58.73722502822366,44.75371868079975,76.19311034747601,0.1335534142116238,0.10175850026308422,0.505859375,,
3.925269999999553,1500,,,,-0.3125,-0.359375,-0.7421875,0.11550483196852572,-5.977011928487335,22.569468641728864,2.604618267442871,3697,0,58.784850310726036,44.72261932332104,76.07847785088403,0.1336462850102021,0.10167605934001595,0.505859375,,
3.9338149999994783,1500,,,,0.15625,0.275390625,-1.119140625,0.11550483196852572,-5.977011928487335,22.569461578659634,2.604836182631837,3707,0,58.78975014261167,44.83703805454857,76.26676069516076,0.13330523575655742,0.10166758514857352,0.5078125,,
3.942694999999367,1500,,,,-0.3125,-0.005859375,-0.94921875,0.11550483196852572,-5.977011928487335,22.569454552786823,2.6048139811856035,3708,0,58.78923076683219,44.85414096321759,76.29652638442664,0.13325440639669708,0.1016684833348671,0.5078125,,
3.9510549999987705,1500,,,,0.25,-0.21484375,-0.970703125,0.11550483196852572,-5.977011928487335,22.569383299658714,2.6066035221642787,3708,0,58.82943400196606,44.85362930334596,76.24351664142641,0.13325592647285434,0.10159900447601765,0.5078125,,
3.9617399999992924,1500,,,,-0.4375,0.40625,-0.68359375,0.11550483196852572,-5.977011928487335,22.569307720019488,2.6060106490373562,3709,0,58.8158562597718,44.866661454172245,76.2832751358916,0.13321722042083253,0.10162245878201086,0.509765625,,
3.9717249999996276,1500,,,,-0.08203125,-0.048828125,-1.05859375,0.11585011089714291,-5.977011928487335,22.569485267901282,2.6067655053663765,3702,0,58.833355670239676,44.908624132772665,76.33191005538596,0.13309274207146174,0.10159223216823501,0.51171875,,
3.979035000000149,1500,,,,0.1875,0.138671875,-1.06640625,0.11585011089714291,-5.977011928487335,22.56932963944934,2.6030408430586505,3699,0,58.748886851940796,44.872737947684406,76.38057561970983,0.13319918065743455,0.10173830090688572,0.51171875,,
3.9872949999999254,1500,,,,-0.1875,-0.34765625,-0.640625,0.11585011089714291,-5.977011928487335,22.569199083268916,2.5999162364831325,3699,0,58.678027141011086,44.87944280146198,76.48423948134916,0.13317928110044694,0.10186116029640503,0.51171875,,
3.9946899999994785,1500,,,,-0.03125,0.35546875,-1.1640625,0.11585011089714291,-5.977011928487335,22.568970613506107,2.598016308330332,3700,0,58.634553716116876,44.8819325136155,76.54519335290652,0.1331718933152919,0.10193668322991659,0.513671875,,
4.011969999998808,1500,,,,-0.09375,0.345703125,-1.03515625,0.11585011089714291,-5.977011928487335,22.568830607334558,2.595430359690528,3701,0,58.575828140988925,44.89507304179889,76.64436759432375,0.13313291467245253,0.10203888051059189,0.51171875,,
4.01927999999933,1500,,,,-0.03125,-0.076171875,-0.81640625,0.11585011089714291,-5.977011928487335,22.568790431333518,2.596285993587121,3702,0,58.59503448907425,44.916297889266126,76.65546796058514,0.13307000374836528,0.10200543408847758,0.51171875,,
4.028070000000298,1500,,,,-0.125,0.51171875,-1.14453125,0.11585011089714291,-5.977011928487335,22.5689285360813,2.5965431394458234,3703,0,58.601196555004975,44.92420860753933,76.66090668536437,0.1330465714088117,0.10199470795578582,0.509765625,,
4.03490499999933,1500,,,,-0.09375,-0.265625,-0.921875,0.11585011089714291,-5.977011928487335,22.568878065530086,2.5967363722092918,3699,0,58.605426552718455,44.878633712172025,76.57760782920245,0.1331816821078099,0.10198734622485375,0.51171875,,
4.042424999998882,1500,,,,0,0.56640625,-1.22265625,0.11585011089714291,-5.977011928487335,22.56883913782465,2.5975588412409274,3698,0,58.62388763900069,44.86385510349005,76.52828379406809,0.13322555350403606,0.10195522967178673,0.51171875,,
4.049699999999255,1500,,,,0.125,-0.267578125,-0.884765625,0.11585011089714291,-6.00692498110077,22.568889207166233,2.5955147893625603,3708,0,58.577885716685024,44.98041583201394,76.7873665662227,0.13354534123327197,0.10254595070490549,0.51171875,,
4.057819999999366,1500,,,,-0.3125,0.546875,-1.01171875,0.11585011089714291,-6.00692498110077,22.568748208442667,2.594890175545742,3698,0,58.56342300045344,44.866477372090685,76.61177416447002,0.13388447974828963,0.10257127526603525,0.51171875,,
4.065945000000298,1500,,,,0.09375,-0.1796875,-1.048828125,0.11585011089714291,-6.00692498110077,22.568907613231673,2.594507225822493,3694,0,58.555193881449846,44.81168190904497,76.52896171733317,0.13404819290856182,0.1025856902337702,0.51171875,,
4.07405999999959,1500,,,,-0.21875,0.390625,-1.052734375,0.11585011089714291,-6.00692498110077,22.569058281509932,2.5939336036079066,3698,0,58.542638678193924,44.86455605381251,76.63569163739069,0.1338902133322305,0.10260769102193272,0.51171875,,
4.082014999999664,1500,,,,0.375,-0.35546875,-0.89453125,0.11585011089714291,-6.00692498110077,22.569006103582577,2.594880560173002,3699,0,58.56387520061226,44.87625071925502,76.62787096231271,0.1338553217977139,0.10257048326334064,0.51171875,,
4.089139999999665,1500,,,,-0.25,0.314453125,-0.9296875,0.11585011089714291,-6.00692498110077,22.569053882382565,2.593670233232773,3698,0,58.53668324696221,44.86222943711359,76.63951380340932,0.13389715706218036,0.10261813016904238,0.51171875,,
4.09596499999892,1500,,,,0.03125,-0.29296875,-0.978515625,0.11585011089714291,-6.00692498110077,22.569008639348027,2.5940391507287877,3696,0,58.54489200360503,44.839555497754276,76.59003879449156,0.1339648646026747,0.10260374177017664,0.51171875,,
4.105334999999963,1500,,,,-0.375,0.53125,-0.9765625,0.11585011089714291,-6.00692498110077,22.569095915783688,2.5959552672853596,3700,0,58.58836342044716,44.886809557893514,76.61386483143879,0.13382383466914125,0.10252761180566398,0.513671875,,
4.116824999999255,1500,,,,0.09375,-0.13671875,-0.978515625,0.11584279330584625,-6.00692498110077,22.569462085202858,2.596634702421602,3702,0,58.60464846542635,44.90815884205807,76.62900472571134,0.1337602149806924,0.10249912145867641,0.51171875,,
4.132884999999776,1500,,,,-0.125,-0.2421875,-0.875,0.11584279330584625,-6.00692498110077,22.569424880351637,2.6030466408566486,3702,0,58.7492656208658,44.90643278849842,76.43743681546403,0.1337653562774036,0.10224680968552072,0.51171875,,
4.140370000000112,1500,,,,0,0.61328125,-1.10546875,0.11584279330584625,-6.00692498110077,22.56935827436127,2.6049397021391156,3695,0,58.79181742068563,44.827509869966796,76.24787230032872,0.13400086238395423,0.10217280643185664,0.51171875,,
4.148164999999106,1500,,,,0.0625,-0.275390625,-0.80078125,0.11584279330584625,-6.00692498110077,22.569474329993554,2.6051079919045232,3695,0,58.79591795015019,44.819815069239624,76.22946733689892,0.13402386805525654,0.10216568072283028,0.51171875,,
4.155729999999516,1500,,,,-0.125,0.65625,-1.296875,0.11584279330584625,-6.00692498110077,22.56940122789235,2.603566350390025,3698,0,58.76093358539183,44.8665342869099,76.35435917931684,0.13388430991099146,0.10222650687418812,0.51171875,,
4.16274499999918,1500,,,,0,-0.236328125,-0.9296875,0.11584279330584625,-6.00692498110077,22.569341483047165,2.6026775232871464,3699,0,58.74071779331905,44.87462276658118,76.39440655879261,0.13386017777455766,0.10226168842941812,0.51171875,,
4.170659999999217,1500,,,,-0.0625,0.26171875,-1.15234375,0.11584279330584625,-6.00692498110077,22.569569736194904,2.6010637043870615,3702,0,58.70488866444923,44.91135752725195,76.50360736387798,0.1337506882853809,0.10232410141233213,0.51171875,,
4.178754999999888,1500,,,,0.1875,-0.35546875,-0.7734375,0.11584279330584625,-6.00692498110077,22.569493212383758,2.601651443805719,3706,0,58.71795460196159,44.95866977113894,76.56715918649695,0.13360993578499722,0.10230133222147518,0.51171875,,
4.1868549999995155,1500,,,,-0.25,0.416015625,-0.984375,0.11584279330584625,-6.00692498110077,22.56932084159497,2.5979830160955824,3707,0,58.634712231275785,44.96807913919672,76.69190728152107,0.13358197850761197,0.10244656710187916,0.51171875,,
4.195174999999813,1500,,,,0.25,-0.4609375,-0.9609375,0.11584279330584625,-6.00692498110077,22.569355066147555,2.598526700500011,3703,0,58.64707175244961,44.92110388957694,76.59564671734978,0.13372166890347856,0.1024249770978526,0.51171875,,
4.203064999999478,1500,,,,-0.28125,0.23046875,-1.005859375,0.11584279330584625,-6.019606106344474,22.569493714855817,2.5979260229709715,3693,0,58.63387504710371,44.799137940135914,76.40487329917455,0.13436879331000387,0.10266430628213818,0.51171875,,
4.211204999999143,1500,,,,0.09375,-0.248046875,-0.892578125,0.11584279330584625,-6.019606106344474,22.56934181011919,2.5961321443483776,3697,0,58.59299375003623,44.85429149164826,76.55231218087492,0.13420357130075963,0.10273593686004058,0.509765625,,
4.218474999999628,1500,,,,-0.3125,0.66015625,-1.01953125,0.11584279330584625,-6.019606106344474,22.5692089011223,2.598701812033632,3698,0,58.6506440675121,44.85483378116312,76.47799013005078,0.13420194879581562,0.10263495315439969,0.509765625,,
4.225634999999777,1500,,,,0.09375,-0.263671875,-0.9765625,0.11584279330584625,-6.019606106344474,22.569070639063263,2.5991357257054077,3697,0,58.6600777939583,44.843395813710934,76.4461921977362,0.13423617897607948,0.10261844737895087,0.509765625,,
4.233079999999143,1500,,,,-0.25,0.25,-0.9140625,0.11584279330584625,-6.019606106344474,22.569024515383894,2.5995512451974205,3699,0,58.66933578185731,44.8733165440709,76.48512795665118,0.13414667267645594,0.10260225424617735,0.509765625,,
4.2412050000000745,1500,,,,0.125,0.015625,-1.064453125,0.11584279330584625,-6.019606106344474,22.569039731838515,2.5989377461655536,3702,0,58.65552925378522,44.906191668003146,76.55917905660226,0.13404846598545125,0.10262640509643021,0.5078125,,
4.249054999999702,1500,,,,-0.125,0.24609375,-0.85546875,0.11584279330584625,-6.019606106344474,22.568988810335846,2.5991008275169647,3704,0,58.659077493165015,44.937925067285406,76.6086460744658,0.13395380621894176,0.10262019730954483,0.5078125,,
4.266064999999479,1500,,,,-0.375,-0.15625,-0.77734375,0.11572341135659991,-6.019606106344474,22.568951867739393,2.5951626746438166,3700,0,58.570101492990126,44.83291378077717,76.54573346802708,0.13426756368722742,0.1027760914340386,0.5078125,,
4.282419999998994,1500,,,,-0.21875,0.0546875,-0.83203125,0.11572341135659991,-6.019606106344474,22.569023085748803,2.5944702944431253,3696,0,58.55465997057639,44.79311724332225,76.49795467317325,0.1343868539812749,0.1028031946452992,0.5078125,,
