Time (s),ESC signal (µs),Servo 1 (µs),Servo 2 (µs),Servo 3 (µs),AccX (g),AccY (g),AccZ (g),Torque (N·m),Thrust (N),Voltage (V),Current (A),Motor Electrical Speed (RPM),Motor Optical Speed (RPM),Electrical Power (W),Mechanical Power (W),Motor Efficiency (%),Propeller Mech. Efficiency (N/W),Overall Efficiency (N/W),Vibration (g),App message,90% settling time (s),Max acceleration (RPM/s),
0,1000,,,,-0.0625,0.05078125,-0.955078125,-0.0010145268149433556,-0.02640811389624881,22.671148111681553,0.05335153324582288,0,0,1.2095405122013532,0,0,0,0,0.05859375,,
0,1200,,,,-0.0625,0.05078125,-0.955078125,-0.0010145268149433556,-0.02640811389624881,22.671367940051283,0.05439365897659132,0,0,1.233178656263975,0,0,0,0,0.05859375,,
0.008294999999925494,1200,,,,-0.0625,0.046875,-0.953125,-0.0010145268149433556,-0.02640811389624881,22.671544168440928,0.05476539839676395,0,0,1.2416161486544979,0,0,0,0,0.05859375,,
0.0176800000006333,1200,,,,-0.0625,0.046875,-0.955078125,-0.0011306004390357874,-0.02640811389624881,22.671668993693128,0.05387041382375238,0,0,1.2213321907653845,0,0,0,0,0.05859375,,
0.026725000000558795,1200,,,,-0.0625,0.046875,-0.95703125,-0.0011306004390357874,-0.025768639633998017,22.67160977554171,0.053908827975024096,0,0,1.2221999113065527,0,0,0,0,0.05859375,,
0.03444500000029802,1200,,,,-0.0625,0.046875,-0.958984375,-0.0011306004390357874,-0.025768639633998017,22.67162880371714,0.053728390735016535,0,0,1.2181101309653701,0,0,0,0,0.05859375,,
0.04243500000052154,1200,,,,-0.125,0.10546875,-0.935546875,-0.0011306004390357874,-0.025768639633998017,22.670850763330098,0.09601496506831654,0,0,2.176740944110157,0,0,0,0,0.05859375,,
0.04981500000040978,1200,,,,0.25,-0.12890625,-1.01171875,-0.0011306004390357874,-0.025768639633998017,22.669984845445953,0.12451334120688082,0,0,2.822715558215829,0,0,0,0,0.060546875,,
0.05763000000081957,1200,,,,-0.125,0.0625,-1.033203125,-0.0011306004390357874,-0.025768639633998017,22.669497034529975,0.1361510354034115,0,0,3.0864754933258225,0,0,0,0,0.0625,,
0.06574000000022352,1200,,,,0,0.03125,-0.94140625,-0.0011306004390357874,-0.025768639633998017,22.6691611109199,0.14654719189373785,1,0,3.3221019033920385,0.00016220047535841708,0.0048824653811131435,158.86907592013293,0.007756727633094849,0.0625,,
0.07362000000011176,1200,,,,0,-0.15625,-1.0078125,-0.0011306004390357874,-0.025768639633998017,22.6686521645282,0.16113603275437013,2,0,3.6527366776808394,0.00021100378992649588,0.005776594606881555,122.12406062931211,0.007054611900017604,0.064453125,,
0.08167500000074505,1200,,,,-0.03125,0.08203125,-1.009765625,-0.0011306004390357874,-0.025768639633998017,22.668034317276124,0.17590608199069283,2,0,3.9874451031826124,0.00023052189726061083,0.005781193001920399,111.78391267908887,0.006462443737076296,0.064453125,,
0.08889000000059605,1200,,,,-0.0625,0.11328125,-0.9296875,-0.0011306004390357874,-0.025768639633998017,22.66725227829985,0.19771739904232022,2,0,4.481710163901553,0.00023823701818930697,0.005315761382969703,108.16387742698257,0.005749733626586224,0.064453125,,
0.09694000000040978,1200,,,,-0.0625,0.052734375,-0.955078125,-0.0011306004390357874,-0.025768639633998017,22.666677327619073,0.2071334562104468,2,0,4.6950272156767126,0.00024110034577921974,0.0051352278635187635,106.87931429843265,0.0054884963281909074,0.064453125,,
0.10492499999981374,1200,,,,-0.0625,0.03125,-0.91015625,-0.0011306004390357874,-0.025768639633998017,22.666284552597446,0.21550690114297696,2,0,4.884740744355204,0.00024243312009133893,0.004963070360929475,106.29174604645372,0.005275334144145972,0.064453125,,
0.11190500000026077,1200,,,,-0.15625,0.109375,-0.916015625,-0.0011306004390357874,-0.025768639633998017,22.666173674331255,0.22202199942994114,2,0,5.0323891986013205,0.000242955723621728,0.004827840495509648,106.0631099768562,0.005120557774259597,0.06640625,,
0.11914000000059605,1200,,,,0,0.17578125,-1.046875,-0.0011306004390357874,-0.025768639633998017,22.666252517293366,0.224064440298257,2,0,5.078701183946297,0.00024315025318810384,0.004787646376138418,105.97825540433676,0.005073864104360446,0.068359375,,
0.1391350000007078,1200,,,,0,0.037109375,-0.955078125,-0.0011306004390357874,-0.025768639633998017,22.66593623002588,0.22364512287678595,2,0,5.0691260932815325,0.00024328125548418728,0.004799274095916157,105.92118814378989,0.005083448144671525,0.068359375,,
0.14687500000093132,1200,,,,-0.0625,0.03515625,-0.94921875,-0.0011306004390357874,-0.025768639633998017,22.66612411581027,0.2223892356643332,392,0,5.0407020175879556,0.04637649066355819,0.9200403138638606,0.5556401371750741,0.005112113262019139,0.0703125,,
0.15612000000011175,1200,,,,-0.03125,0.125,-1.056640625,-0.0011306004390357874,-0.025768639633998017,22.666118784378572,0.22170166027899615,497,0,5.025116166577671,0.058888563847854694,1.1718846270565013,0.4375830882983363,0.005127968942367279,0.0703125,,
0.16387500000093133,1200,,,,-0.0625,0.21875,-0.90625,-0.0011760309578247089,-0.025768639633998017,22.666000772925386,0.22206001285232263,550,0,5.033212422946566,0.06776709451206225,1.3463984592247695,0.3802529799977083,0.005119720263845416,0.072265625,,
0.1725100000007078,1200,,,,-0.09375,-0.00390625,-0.916015625,-0.0011760309578247089,-0.025768639633998017,22.6660007515125,0.2241505900289081,568,0,5.0805974420472015,0.07001120919403253,1.3780113459613494,0.36806448468246755,0.005071970359378576,0.072265625,,
0.1815200000004843,1200,,,,-0.09375,-0.1484375,-0.865234375,-0.0011760309578247089,-0.025495405197737245,22.665896800719874,0.22593723012171843,575,0,5.121069941379368,0.07084053956295429,1.383315212911802,0.35989851792532,0.004978530949505061,0.07421875,,
0.1897950000008568,1200,,,,0,0.12109375,-1.09375,-0.0011760309578247089,-0.025495405197737245,22.665794648374867,0.22512021645032168,578,0,5.102528597260693,0.07115789062189408,1.3945613290652676,0.35829343695993066,0.004996621716422036,0.076171875,,
0.19811500000022353,1200,,,,-0.03125,0.20703125,-1.056640625,-0.0011760309578247089,-0.025495405197737245,22.66590464072761,0.22288904321354075,579,0,5.051981798941131,0.07126911126334966,1.4107159150551036,0.3577342939429684,0.005046614618263461,0.078125,,
0.2054750000005588,1200,,,,0,-0.314453125,-0.88671875,-0.0011760309578247089,-0.025495405197737245,22.66587692755455,0.21934730222511364,644,0,4.971698956625538,0.07928204866963691,1.5946671220706483,0.32157853669971276,0.005128107196386213,0.083984375,,
0.21384500000067055,1200,,,,-0.125,1.3046875,-1.3125,-0.0011760309578247089,-0.025495405197737245,22.665784613542918,0.21379781870087106,670,0,4.845895309519242,0.08248851332309709,1.702234737945272,0.30907824823893926,0.005261237308955944,0.091796875,,
0.2216350000007078,1200,,,,-0.125,-0.072265625,-1.32421875,-0.0011760309578247089,-0.025495405197737245,22.665990815858503,0.20961775416172854,680,0,4.751194090670625,0.08374520555956115,1.7626138600399848,0.3044401769317342,0.005366104754129,0.095703125,,
0.22924000000022351,1200,,,,-0.125,-1.025390625,-0.47265625,-0.0011760309578247089,-0.025495405197737245,22.666023547196204,0.20651574545178877,684,0,4.6808907492770215,0.08424008039804264,1.7996591868984293,0.30265171967155013,0.005446699477375133,0.12109375,,
0.23711000000033527,1200,,,,-0.375,0.69140625,-0.65234375,-0.0011760309578247089,-0.025495405197737245,22.666454281846626,0.20370131717691956,686,0,4.617186592942586,0.08442466811285894,1.8284872489646153,0.3019899961425371,0.005521848572615025,0.138671875,,
0.24472499999962746,1200,,,,0.09375,0.81640625,-1.33203125,-0.0011760309578247089,-0.025495405197737245,22.666729614152246,0.19898911621697235,686,0,4.51043249344923,0.08451156315125095,1.8736908993537125,0.30167948913816606,0.00565254113319859,0.15234375,,
0.253535000000149,1200,,,,0.1875,-0.9296875,-0.64453125,-0.0011760309578247089,-0.025495405197737245,22.666791861246676,0.19425405547169752,687,0,4.403116243580033,0.0845452942792718,1.9201240576499228,0.30155912774423954,0.005790309359856406,0.158203125,,
0.2608449999997392,1200,,,,-0.0625,0.39453125,-1.09765625,-0.0011760309578247089,-0.025495405197737245,22.666720006457567,0.19014837502610396,750,0,4.310039976399587,0.09234579495916165,2.1425739776154735,0.27608626044111867,0.005915352371983093,0.162109375,,
0.26891500000003726,1200,,,,-0.09375,-0.19921875,-0.853515625,-0.0011760309578247089,-0.025495405197737245,22.666879984009363,0.1868144636496478,775,0,4.234501026823646,0.09539405280305317,2.252781430415887,0.26726409507282456,0.006020875903969653,0.1640625,,
0.27704000000003726,1200,,,,-0.375,-0.2734375,-0.75390625,-0.0011760309578247089,-0.025495405197737245,22.66686938256984,0.18348516394063794,784,0,4.159034244681854,0.09661209090044097,2.3229453093342185,0.26389455978144943,0.006130126298031365,0.16796875,,
0.28598000000044704,1200,,,,0.09375,0.611328125,-1.240234375,-0.0011760309578247089,-0.025495405197737245,22.66348886202535,0.263505435924293,789,0,5.971952512153349,0.09711394703838538,1.6261674358721303,0.2625308307946736,0.004269190879507545,0.171875,,
0.2941500000003725,1200,,,,0,-0.314453125,-1.498046875,-0.0011760309578247089,-0.025495405197737245,22.66145544857171,0.3197405846663793,790,0,7.2457870145174255,0.09728390744582409,1.342627201861015,0.262072174803785,0.003518652307424366,0.181640625,,
0.30312500000093134,1200,,,,-0.3125,1.10546875,0.5859375,-0.0011760309578247089,-0.025495405197737245,22.659660064019157,0.36929751079510137,849,0,8.368156057105441,0.1045161379740454,1.248974532272259,0.2439374979973767,0.0030467172246493868,0.197265625,,
0.31314000000059605,1200,,,,-0.125,-1.115234375,-0.62109375,0.03195073194659218,-0.025495405197737245,22.65830601114878,0.41425725975655026,896,0,9.386367758903864,2.9967795423426993,31.926935096911883,0.008507601189043921,0.0027162163099301567,0.234375,,
0.32142500000074503,1200,,,,-0.03125,0.7421875,-1.548828125,0.03195073194659218,-0.025495405197737245,22.656311323944912,0.4667761290898478,916,0,10.57542529924549,3.0655943896784903,28.987906423935566,0.008316627040934506,0.002410816064253816,0.26171875,,
0.328945000000298,1200,,,,0.03125,-0.458984375,-0.783203125,0.03195073194659218,-0.02203984170961549,22.655123474005567,0.49749721214531506,922,0,11.270860769125655,3.0861153059932778,27.381363049458425,0.0071416131687671615,0.0019554710293280685,0.28125,,
0.3375650000004098,1200,,,,0.1875,1.828125,-1.83984375,0.03195073194659218,-0.02203984170961549,22.65457045621671,0.5200254960358016,925,0,11.780954238972111,3.09426752270856,26.264999081929503,0.007122797737385992,0.0018708027603321264,0.296875,,
0.3530800000000745,1200,,,,-0.03125,-1.015625,-0.490234375,0.03195073194659218,-0.02203984170961549,22.654087913628526,0.5391612728521336,1098,0,12.21420687481609,3.6749497569407263,30.087502157163687,0.005997317832166208,0.0018044431321249702,0.318359375,,
0.36208499999996274,1200,,,,0.5,0.87890625,-1.60546875,0.03195073194659218,-0.02203984170961549,22.653983045919485,0.544682827919282,1117,0,12.339235549086895,3.7358757073401256,30.27639510145003,0.00589951150310283,0.001786159411734906,0.330078125,,
0.3707400000002235,1200,,,,-0.25,0.697265625,-1.287109375,0.03195073194659218,-0.02203984170961549,22.65388575341295,0.5442174801772086,1172,0,12.32864062094476,3.920740958572459,31.80189186398725,0.005621346052313589,0.0017876943928572839,0.345703125,,
0.37899500000011177,1200,,,,-0.25,-0.125,-0.857421875,0.03195073194659218,-0.02203984170961549,22.65378179040272,0.5436607094309532,1297,0,12.315971079464353,4.340585286724533,35.24354887420955,0.005077619780222558,0.0017895334088892689,0.353515625,,
0.390605000000447,1200,,,,0.0625,-0.080078125,-1.115234375,0.03195073194659218,-0.02203984170961549,22.654040539589026,0.5375901166870493,1348,0,12.178588297110808,4.509519684432215,37.02826283652295,0.004887403371516824,0.001809720566286334,0.36328125,,
0.39981500000040976,1200,,,,-0.03125,0.212890625,-0.908203125,0.03195073194659218,-0.02203984170961549,22.654148016870934,0.533114940158515,1377,0,12.07726476435629,4.607861342506317,38.153186440902815,0.0047830956861274684,0.0018249034147749927,0.3671875,,
0.40801500000059604,1200,,,,-0.09375,0.134765625,-1.015625,0.03195073194659218,-0.02203984170961549,22.654238241797373,0.5280925993782306,1435,0,11.963535560044491,4.801621736543202,40.135474270495216,0.00459008287593318,0.0018422515316645683,0.36328125,,
0.4151150000002235,1200,,,,0.25,-0.15625,-1.03125,0.03195073194659218,-0.02203984170961549,22.654515563969106,0.5225316662298627,1458,0,11.837701765271134,4.877996241090422,41.20729122777232,0.00451821621426439,0.0018618345137123569,0.36328125,,
0.42201500000059605,1200,,,,-0.125,0.025390625,-0.923828125,0.03195073194659218,-0.02203984170961549,22.65466436089666,0.5179308398261402,1466,0,11.733549338418534,4.906582082084908,41.81669110146874,0.00449189300023904,0.0018783610205184557,0.361328125,,
0.429054999999702,1200,,,,-0.125,-0.0078125,-0.94921875,0.03195073194659218,-0.02203984170961549,22.65480911145771,0.5126078052535973,1489,0,11.613031977063535,4.981605453751924,42.89668248215372,0.004424244736807902,0.0018978542169818837,0.357421875,,
0.43668999999947844,1200,,,,0,-0.0859375,-0.97265625,0.03195073194659218,-0.02203984170961549,22.654949595067613,0.5074416841892111,1508,0,11.496065777742796,5.04589098357771,43.89232874212424,0.004367879088419878,0.0019171638485477526,0.357421875,,
0.44532500000018627,1200,,,,-0.125,0.1640625,-0.890625,0.03195073194659218,-0.02203984170961549,22.655001367567518,0.49999123942300616,1517,0,11.327302212899983,5.075273283482434,44.80566676946706,0.004342592108555916,0.0019457273493167367,0.35546875,,
0.45426500000059605,1200,,,,-0.03125,0.142578125,-1.01171875,0.03195073194659218,-0.02203984170961549,22.655129270202888,0.4906697587368182,1521,0,11.116186813161878,5.08747194504527,45.766340837503385,0.004332179508347023,0.0019826800394825766,0.353515625,,
0.46411000000033525,1200,,,,-0.03125,0.0390625,-0.98828125,0.04614161477714196,-0.02203984170961549,22.655611667162056,0.48229478030967676,1537,0,10.926683251795273,7.426570036324277,67.96728581936406,0.0029677013213119767,0.002017066039321155,0.349609375,,
0.4729900000002235,1200,,,,-0.15625,0.0703125,-0.904296875,0.04614161477714196,-0.02203984170961549,22.65588449240894,0.47364742753076344,1543,0,10.73090140826361,7.457136414025734,69.49217153633684,0.002955536882517251,0.0020538667602185904,0.345703125,,
0.4805200000004843,1200,,,,-0.03125,-0.02734375,-0.955078125,0.04614161477714196,-0.15723074652170427,22.656081986868955,0.46655496128246776,1545,0,10.57030745419606,7.465795707700885,70.62988224374887,0.021060145854181693,0.014874756217170286,0.34765625,,
0.4885200000004843,1200,,,,0,0.1484375,-1.08203125,0.04614161477714196,-0.15723074652170427,22.656252307851023,0.4600624969462048,1554,0,10.423292008193158,7.509765089448552,72.04792001937153,0.020936839521467618,0.015084557393011162,0.345703125,,
0.4968349999999627,1200,,,,-0.03125,0.005859375,-0.984375,0.04614161477714196,-0.15723074652170427,22.656457062220916,0.45343729617320344,1559,0,10.273282631157732,7.53132114583719,73.30978243502739,0.020876914352352494,0.015304820490856621,0.34375,,
0.504839999999851,1200,,,,0.125,-0.0625,-0.9609375,0.04614161477714196,-0.15723074652170427,22.656697840126665,0.44575151235310057,1560,0,10.099257327163688,7.538693084863448,74.64601446075483,0.02085649923027106,0.015568545431435356,0.341796875,,
0.5121300000008195,1200,,,,-0.15625,0.2421875,-0.99609375,0.04614161477714196,-0.15723074652170427,22.65692717733844,0.44131262891994766,1564,0,9.998788095879036,7.557617925659311,75.58533947503253,0.020804272995579864,0.015724980369021556,0.34375,,
0.5211350000007078,1200,,,,-0.0625,-0.154296875,-0.87890625,0.04614161477714196,-0.15723074652170427,22.657313078759156,0.4363156491106104,1568,0,9.885740263061123,7.576121240999856,76.6368631928218,0.020753462295562974,0.015904802507224453,0.34765625,,
0.5289599999999628,1200,,,,0.1875,0.26171875,-1.3125,0.04614161477714196,-0.15723074652170427,22.657445581261076,0.4350930782661731,1569,0,9.858097743599183,7.582465757615804,76.91611459765718,0.02073609714145853,0.01594940024040576,0.349609375,,
0.5372900000009686,1200,,,,-0.0625,-0.0546875,-0.9375,0.04614161477714196,-0.15723074652170427,22.657769840286406,0.4292573854306463,1573,0,9.726015041330694,7.601307108247916,78.15438363961157,0.020684698602836164,0.01616599870075795,0.349609375,,
0.5461650000000372,1200,,,,0.0625,0.05078125,-1.119140625,0.04614161477714196,-0.15723074652170427,22.65822198923036,0.42166570938630654,1578,0,9.554195248521228,7.626326706609228,79.82175900989263,0.020616838560750732,0.016456723191421066,0.34765625,,
0.5540099999997765,1200,,,,-0.0625,-0.306640625,-0.732421875,0.04614161477714196,-0.15723074652170427,22.65840775714652,0.41460066358428366,1580,0,9.394190891876228,7.634809904906386,81.27160702587709,0.020593930756633835,0.016737018475712687,0.3515625,,
0.5619699999997392,1200,,,,-0.4375,0.4609375,-1.015625,0.04614161477714196,-0.15723074652170427,22.658614539855467,0.40881550109326015,1581,0,9.263192857190043,7.6381232698564085,82.45670135138919,0.020584997252166646,0.01697370970741072,0.357421875,,
0.5701849999995903,1200,,,,0.09375,0.21484375,-1.103515625,0.04614161477714196,-0.15723074652170427,22.658683152567605,0.4038531665461597,1583,0,9.150780940930549,7.6511441925789585,83.61192604181069,0.020549965150860234,0.017182221663555132,0.357421875,,
0.57925,1200,,,,-0.25,0.03125,-0.890625,0.04614161477714196,-0.15723074652170427,22.65875586457664,0.3971513907459317,1585,0,8.99895640418915,7.656534830234179,85.08247497087493,0.020535496802134356,0.01747210892682078,0.35546875,,
0.5873700000010431,1200,,,,0.125,0.30859375,-1.005859375,0.04614161477714196,-0.15723074652170427,22.658822828914403,0.39214929285541117,1585,0,8.885641349294831,7.658436210615151,86.18889632792718,0.020530398399580714,0.01769492379232504,0.35546875,,
0.5945449999999255,1200,,,,-0.15625,-0.52734375,-0.787109375,0.04614161477714196,-0.15723074652170427,22.65904562583696,0.3865399979703812,1585,0,8.758627450221793,7.6584146499516175,87.43852496840341,0.020530456198620373,0.017951528069357802,0.359375,,
0.6026500000003725,1200,,,,-0.1875,0.79296875,-1.08984375,0.04614161477714196,-0.15723074652170427,22.659352980346366,0.38289853803252016,1585,0,8.676233128937453,7.658405083748401,88.26877943384976,0.020530481843452943,0.01812200573510405,0.365234375,,
0.6111400000005961,1200,,,,0,0.013671875,-1.087890625,0.0312121429955146,-0.15723074652170427,22.65968212217785,0.3780816682242476,1585,0,8.56721041818416,5.180466527904603,60.46853380546027,0.030350692485856295,0.018352618746001303,0.36328125,,
0.6217050000000746,1200,,,,0,0.03125,-1.080078125,0.0312121429955146,-0.15723074652170427,22.659895889075198,0.3744217840021926,1585,0,8.484358644091486,5.179222730935062,61.04436349519332,0.030357981243513285,0.01853183642009286,0.36328125,,
0.6299300000006333,1200,,,,-0.15625,-0.21875,-0.76171875,0.0312121429955146,-0.47998884482678256,22.66007892619205,0.36948928419475635,1584,0,8.372656342235384,5.177954908630968,61.84363357314777,0.09269853702794985,0.05732814356723402,0.3671875,,
0.6367400000002236,1200,,,,-0.0625,0.234375,-0.93359375,0.0312121429955146,-0.47998884482678256,22.660132631196404,0.3661435799058811,1584,0,8.296862082728325,5.177644704680429,62.404854426335376,0.09270409079883131,0.05785185291026844,0.369140625,,
0.6449850000003353,1200,,,,0.0625,0.201171875,-1.11328125,0.0312121429955146,-0.47998884482678256,22.660523224181592,0.3643557546818599,1584,0,8.256492040832496,5.17586539170193,62.688431916420186,0.09273595978680435,0.05813471901298963,0.37109375,,
0.6516750000007451,1200,,,,-0.125,-0.07421875,-0.984375,0.0312121429955146,-0.47998884482678256,22.660793958993807,0.3616994545104431,1583,0,8.196396813741604,5.173686685074002,63.12147645658271,0.09277501210336957,0.058560957422420186,0.369140625,,
0.6592250000005588,1200,,,,0.0625,0.203125,-1.080078125,0.0312121429955146,-0.47998884482678256,22.6609306036388,0.3586882006163719,1583,0,8.128208422511676,5.172769518956706,63.639725386843395,0.09279146172427791,0.059052231423768343,0.3671875,,
0.6672099999999628,1200,,,,-0.15625,-0.443359375,-0.751953125,0.0312121429955146,-0.47998884482678256,22.66098263139793,0.35603970261175083,1582,0,8.068209516972969,5.172335674763183,64.1076023606256,0.09279924486895545,0.05949137089425322,0.37109375,,
0.6754050000002608,1200,,,,-0.1875,0.5703125,-1.00390625,0.0312121429955146,-0.47998884482678256,22.661131584827526,0.3534762330907384,1583,0,8.010171430178389,5.174018659671635,64.59310771026043,0.09276905948716556,0.05992241851634043,0.376953125,,
0.6835849999999627,1200,,,,0.09375,0.154296875,-1.10546875,0.0312121429955146,-0.47998884482678256,22.661178346604256,0.3501236029350804,1583,0,7.934213409467509,5.1747086277202365,65.22018454337905,0.09275669015556648,0.060496084495790754,0.376953125,,
0.6902549999998883,1200,,,,-0.25,0.05859375,-0.86328125,0.0312121429955146,-0.47998884482678256,22.66158725081988,0.348140190235323,1583,0,7.8894092965348035,5.174932631171257,65.59341056679867,0.09275267506586754,0.0608396429676432,0.375,,
0.6983250000011176,1200,,,,0.125,0.296875,-1.091796875,0.0312121429955146,-0.47998884482678256,22.661509777589465,0.34566941288019737,1583,0,7.8333907797982025,5.17565420258847,66.07169676682211,0.09273974381571483,0.061274722316246755,0.373046875,,
0.7062350000003352,1200,,,,-0.375,-0.2890625,-0.859375,0.0312121429955146,-0.47998884482678256,22.661531170846107,0.34358296324114923,1584,0,7.786116031260976,5.177075683157501,66.4911190941893,0.09271428006902097,0.061646762378012934,0.375,,
0.7142050000010058,1200,,,,-0.0625,0.0625,-0.916015625,0.0312121429955146,-0.47998884482678256,22.661554363925404,0.3387342469866889,1584,0,7.676244553012186,5.177739268609332,67.45146318426721,0.09270239769251663,0.06252912365050084,0.380859375,,
0.7218500000005588,1200,,,,0.1875,-0.107421875,-1.06640625,0.0312121429955146,-0.47998884482678256,22.661609655929524,0.33593705987776806,1584,0,7.612874519910603,5.177999863324616,68.016356368178,0.09269773223180391,0.06304961990000316,0.380859375,,
0.7303600000003353,1200,,,,-0.3125,0.1015625,-0.921875,0.0312121429955146,-0.47998884482678256,22.661792009199935,0.3335294283414783,1583,0,7.558374534021936,5.174862049646807,68.46527684429495,0.09275394014793932,0.0635042419062783,0.380859375,,
0.7379600000008941,1200,,,,0.03125,0.421875,-1.068359375,0.0312121429955146,-0.47998884482678256,22.661802354244585,0.3320819202284462,1583,0,7.5255748416350645,5.173619564114988,68.74716779762869,0.09277621573802183,0.06378102070970786,0.3828125,,
0.746265000000596,1200,,,,-0.1875,-0.9453125,-0.671875,0.0312121429955146,-0.47998884482678256,22.662040592483105,0.3298601881889857,1583,0,7.475304974582911,5.1731313328492545,69.20294690903755,0.09278497179819606,0.06420993477307109,0.388671875,,
0.7543950000004843,1200,,,,0,0.26171875,-1.072265625,0.0312121429955146,-0.47998884482678256,22.662038731973322,0.32923624894131825,1583,0,7.461164625477765,5.1732467754943885,69.33564711639274,0.09278290127207622,0.06433162501035784,0.388671875,,
0.7639200000008568,1200,,,,-0.09375,-0.099609375,-0.953125,0.020801212384966364,-0.47998884482678256,22.662152891501346,0.3275209738434804,1583,0,7.422330384414366,3.4481710888219874,46.45671790712202,0.13920099451641857,0.06466821334640097,0.38671875,,
0.7742600000007078,1200,,,,0.03125,0.103515625,-1.1484375,0.020801212384966364,-0.6109740983207446,22.662351906172606,0.3252984989221743,1583,0,7.372029057124024,3.4483259779859154,46.77580556541073,0.1771799134482059,0.08287733181549581,0.384765625,,
0.7819400000004098,1200,,,,-0.1875,-0.35546875,-0.712890625,0.020801212384966364,-0.6109740983207446,22.662452718939953,0.3242678472106354,1583,0,7.348704755683469,3.4473607617543847,46.91113436130639,0.1772295215223764,0.08314037896926241,0.390625,,
0.7901000000005588,1200,,,,0,0.494140625,-1.08984375,0.020801212384966364,-0.6109740983207446,22.662266904903625,0.3241292554852224,1582,0,7.345503699493808,3.445227794927339,46.902539783143204,0.1773392456720355,0.08317661025245252,0.39453125,,
0.7979750000005588,1200,,,,0,-0.03125,-0.85546875,0.020801212384966364,-0.6109740983207446,22.662286407174303,0.32315525191416183,1581,0,7.323436872861297,3.4443915571725756,47.032446882099464,0.17738230052517012,0.08342723627274669,0.392578125,,
0.8057450000001117,1200,,,,-0.09375,0.068359375,-0.98828125,0.020801212384966364,-0.6109740983207446,22.662361480843053,0.3228906720755319,1581,0,7.31746512936806,3.4440783044208603,47.066548914573275,0.17739843415769346,0.08349532078651786,0.390625,,
0.8144500000001863,1200,,,,0.0625,0.28125,-1.19921875,0.020801212384966364,-0.6109740983207446,22.66231184439908,0.32134886563245807,1581,0,7.282508203806663,3.4433240508941583,47.28211701971427,0.17743729294432437,0.08389610848654867,0.388671875,,
0.8234950000001118,1200,,,,-0.09375,-0.513671875,-0.771484375,0.020801212384966364,-0.6109740983207446,22.662414109470916,0.3205663357264531,1581,0,7.264807049788561,3.4429886344092147,47.392705832557816,0.17745457891282934,0.08410052657056137,0.390625,,
0.8307800000002608,1200,,,,-0.15625,0.525390625,-1.1328125,0.020801212384966364,-0.6109740983207446,22.662393165023925,0.3197281057929534,1581,0,7.245804039388274,3.4428872991703448,47.51560048346285,0.17745980197143688,0.08432109052349226,0.39453125,,
0.8384850000003353,1200,,,,0.25,-0.2265625,-0.953125,0.020801212384966364,-0.6109740983207446,22.66257275421413,0.3183399816524757,1581,0,7.214402994774421,3.4436983375361794,47.73365640969238,0.17741800774508915,0.08468810222596228,0.39453125,,
0.8462200000006705,1200,,,,-0.0625,0.166015625,-0.990234375,0.020801212384966364,-0.6109740983207446,22.662544858522338,0.3179611375820096,1581,0,7.205808543719086,3.4440914549487016,47.79604445570137,0.17739775679965059,0.08478911070337798,0.392578125,,
0.8541400000005961,1200,,,,-0.0625,0.56640625,-1.12890625,0.020801212384966364,-0.6109740983207446,22.662420289270415,0.316644488841219,1581,0,7.1759304884009,3.444246944766378,47.9972172296488,0.177389748214522,0.08514214279365118,0.39453125,,
0.8612249999996274,1200,,,,-0.09375,-0.537109375,-0.798828125,0.020801212384966364,-0.6109740983207446,22.662316092960925,0.31483999945953506,1581,0,7.13500358645963,3.4444472937706165,48.275340748353315,0.17737943019935565,0.08563052434622646,0.3984375,,
0.869335000000894,1200,,,,-0.0625,0.70703125,-1.23046875,0.020801212384966364,-0.6109740983207446,22.662333530853928,0.3143074547903838,1581,0,7.12294037169347,3.4446966231843006,48.360598902013955,0.17736659135919958,0.08577554583339664,0.400390625,,
0.8784200000008568,1200,,,,0.0625,-0.138671875,-1.001953125,0.020801212384966364,-0.6109740983207446,22.662568839339915,0.3139880310890966,1581,0,7.115775369285454,3.4447988938155785,48.410731298302565,0.17736132562560378,0.0858619147757185,0.3984375,,
0.8863899999996647,1200,,,,0.0625,0.134765625,-1.130859375,0.020801212384966364,-0.6109740983207446,22.662541050638602,0.3144605613675136,1581,0,7.126475380798136,3.4448340743124146,48.33853890233474,0.1773595143164317,0.08573299782484028,0.3984375,,
0.8947050000000745,1200,,,,-0.1875,-0.2578125,-0.6875,0.020801212384966364,-0.6109740983207446,22.66248224726342,0.3148017394441618,1581,0,7.134188831560961,3.4445407638471264,48.28216416993073,0.17737461688168904,0.08564030371860276,0.404296875,,
0.9021500000003725,1200,,,,-0.0625,0.3125,-0.82421875,0.020801212384966364,-0.6109740983207446,22.662357932230268,0.3131770870991974,1581,0,7.097331244015265,3.4444229208509274,48.53124086261851,0.177380685345633,0.08608504764885261,0.40625,,
0.9101250000009313,1200,,,,0.09375,0.1796875,-1.13671875,0.020801212384966364,-0.6109740983207446,22.662340790520503,0.3133666426639147,1581,0,7.101621648430896,3.4443782031183985,48.501291305478574,0.1773829882466431,0.08603303985586719,0.40625,,
0.9184900000002235,1200,,,,-0.09375,0.017578125,-0.962890625,0.018437008256902438,-0.6109740983207446,22.662324283690992,0.312913708514894,1582,0,7.091351935176887,3.054155319996134,43.06873143393005,0.200046832693996,0.0861576331150605,0.404296875,,
0.928375,1200,,,,0.0625,0.421875,-1.09375,0.018437008256902438,-0.5706964528217494,22.66263547346659,0.31207291645449625,1582,0,7.0723947467498425,3.055357597726091,43.2011745262126,0.1867854856814412,0.08069352365887326,0.40234375,,
0.9370149999996648,1200,,,,-0.09375,-0.513671875,-0.775390625,0.018437008256902438,-0.5706964528217494,22.6626577449649,0.3107970742325822,1583,0,7.043487721469459,3.055810205623735,43.38490143610574,0.18675782015894607,0.08102469620017837,0.404296875,,
0.9445650000004098,1200,,,,-0.09375,0.51953125,-1.083984375,0.018437008256902438,-0.5706964528217494,22.66252764617859,0.31025574317114746,1583,0,7.031179357001813,3.055579813192362,43.457571739363246,0.18677190180331305,0.08116653321514783,0.408203125,,
0.9532350000003352,1200,,,,-0.0625,-0.087890625,-0.912109375,0.018437008256902438,-0.5706964528217494,22.662396991791464,0.3092625167781054,1582,0,7.008629929905993,3.0552987596284624,43.59338116272096,0.18678908274461142,0.08142767681120869,0.408203125,,
0.9715300000002608,1200,,,,-0.1875,-0.04296875,-0.9765625,0.018437008256902438,-0.5706964528217494,22.662622202579573,0.3089272562530599,1582,0,7.001101696542585,3.0546417799514467,43.630872859052275,0.18682925656533797,0.08151523539553518,0.408203125,,
0.9862800000002607,1200,,,,0,0.1484375,-1.15234375,0.018437008256902438,-0.5706964528217494,22.662671250667707,0.30856609169516547,1581,0,6.992931895190922,3.0528152644605027,43.65572710010147,0.1869410374959599,0.08161046916733461,0.412109375,,
0.9939950000001118,1200,,,,-0.125,-0.091796875,-0.927734375,0.018437008256902438,-0.5706964528217494,22.6627342223423,0.3089704049100199,1581,0,7.002114169045266,3.0525827390201172,43.595158052619055,0.1869552774202424,0.0815034486790671,0.41015625,,
1.0009300000006334,1200,,,,0.25,0.16796875,-1.30078125,0.018437008256902438,-0.5706964528217494,22.662620362876854,0.3087668746577009,1582,0,6.997466460999458,3.053490744194015,43.63709009843372,0.18689968322546457,0.08155758316278318,0.41015625,,
1.0102250000005588,1200,,,,-0.1875,-0.255859375,-0.751953125,0.018437008256902438,-0.5706964528217494,22.66269987585214,0.3069981094545467,1582,0,6.9574060170223975,3.053973093863623,43.895283477658104,0.186870163973761,0.08202718821144692,0.4140625,,
1.018054999999702,1200,,,,0.03125,0.322265625,-1.115234375,0.018437008256902438,-0.5706964528217494,22.662509636348943,0.30645105083469165,1582,0,6.94494989261046,3.0541232177310014,43.97617354994366,0.18686097846626396,0.08217430818744709,0.416015625,,
1.0325800000000744,1200,,,,-0.125,0.033203125,-0.955078125,0.018437008256902438,-0.5706964528217494,22.66253120322964,0.306117317085749,1582,0,6.937393250304729,3.0535717877321695,44.01612648379187,0.18689472280119376,0.08226381757970565,0.41015625,,
1.045554999999702,1200,,,,0.1875,0.2890625,-1.12109375,0.018437008256902438,-0.5706964528217494,22.662449590484563,0.3053853194731979,1581,0,6.920779408235371,3.0533974694402204,44.119271679239404,0.1869053926105386,0.08246129794899258,0.408203125,,
1.0606449999995529,1200,,,,-0.14453125,-0.119140625,-0.833984375,0.018437008256902438,-0.5706964528217494,22.662405781669108,0.3046199569222558,1581,0,6.903421072966724,3.052771498845191,44.221140019976666,0.18694371754899894,0.0826686430958925,0.4140625,,
1.0694350000005215,1200,,,,-0.08203125,0.0703125,-1.015625,0.02189846635281679,-0.5706964528217494,22.662405547099556,0.30445940841024804,1581,0,6.899782586023055,3.624996472311133,52.53783618710418,0.15743365743412693,0.08271223704610835,0.4140625,,
1.0886250000009314,1200,,,,-0.125,-0.54296875,-0.771484375,0.02189846635281679,-0.5060413316628283,22.662444928529396,0.3032906766329547,1580,0,6.873308256530754,3.6225043581597633,52.70394143486578,0.13969378132643515,0.07362412869843386,0.4140625,,
1.0973700000010431,1200,,,,0,0.41015625,-1.181640625,0.02189846635281679,-0.5060413316628283,22.66231441082321,0.3024057062913352,1579,0,6.853213195601296,3.6220336525515813,52.851612071201394,0.13971193539473106,0.07384001011199076,0.41796875,,
1.1062549999998883,1200,,,,0.0625,-0.23046875,-0.9296875,0.02189846635281679,-0.5060413316628283,22.662529255672524,0.3018458076021424,1579,0,6.840589445485652,3.6220839131762954,52.94988015348059,0.13970999672922213,0.07397627583055477,0.416015625,,
1.115070000000298,1200,,,,-0.03125,0.09375,-0.990234375,0.02189846635281679,-0.5060413316628283,22.66261035073608,0.30268508534914684,1580,0,6.859634148247009,3.622561322982874,52.8098327796188,0.1396915846399381,0.07377089225555097,0.4140625,,
1.1243050000006334,1200,,,,-0.1875,-0.166015625,-0.81640625,0.02189846635281679,-0.5060413316628283,22.662694589588817,0.30329645765723695,1580,0,6.873514989990118,3.622740785812986,52.70579595867289,0.13968466461761123,0.0736219143189147,0.41796875,,
1.1320050000008195,1200,,,,0,0.28515625,-1.080078125,0.02189846635281679,-0.5060413316628283,22.662842468848517,0.30333177511692255,1580,0,6.874360235271,3.62320167451048,52.7060199132501,0.13966689605573723,0.07361286204735518,0.419921875,,
1.1405600000005216,1200,,,,0.125,0.140625,-1.03515625,0.02189846635281679,-0.5060413316628283,22.66276226293394,0.30314073346292,1580,0,6.870006374681578,3.6243162752723714,52.75564646678158,0.13962394372571657,0.0736595141349171,0.41796875,,
1.1485800000000745,1200,,,,-0.15625,0.052734375,-0.94140625,0.02189846635281679,-0.5060413316628283,22.662724642274927,0.3031875417108843,1581,0,6.871055772762015,3.6247120181775743,52.75334880189043,0.13960869970499193,0.07364826431315818,0.416015625,,
1.156605000000447,1200,,,,-0.03125,0.2265625,-1.015625,0.02189846635281679,-0.5060413316628283,22.66278783300095,0.30258759572516974,1581,0,6.857478482817387,3.6248667291386587,52.8600525429485,0.1396027411421754,0.07379408231915031,0.416015625,,
1.1655449999999254,1200,,,,0.0625,-1.09765625,-0.7734375,0.02189846635281679,-0.5060413316628283,22.66297455562499,0.30412157657491284,1580,0,6.8922995517338075,3.6242855358608432,52.58456207042145,0.1396251279474957,0.07342126207145624,0.421875,,
1.1737900000000372,1200,,,,-0.01953125,0.267578125,-1.05078125,0.02189846635281679,-0.5060413316628283,22.663116778159722,0.3033344086833349,1580,0,6.874503126824445,3.624025360091362,52.716906127372965,0.1396351519046961,0.07361133195041328,0.421875,,
1.1822800000002607,1200,,,,-0.25,0.046875,-0.89453125,0.02189846635281679,-0.5060413316628283,22.663028425293582,0.3038023352490651,1580,0,6.885080959420132,3.623947198815096,52.63477975312447,0.1396381635550005,0.07349823983848225,0.419921875,,
1.1904900000002234,1200,,,,0.03125,0.294921875,-1.103515625,0.02189846635281679,-0.5060413316628283,22.662878814175894,0.30317234433998047,1580,0,6.870758099586582,3.6241333642884976,52.747212341918484,0.1396309905836415,0.0736514550982776,0.41796875,,
1.1984850000003353,1200,,,,-0.3125,-0.234375,-0.8203125,0.02189846635281679,-0.5060413316628283,22.662868599636948,0.30300613406031496,1580,0,6.866988201092895,3.624313028863998,52.778786314023094,0.1396240687911666,0.07369188891023444,0.419921875,,
1.2065499999998137,1200,,,,-0.03125,-0.072265625,-0.900390625,0.02189846635281679,-0.5060413316628283,22.66292442915086,0.3030593176809381,1580,0,6.868210414153123,3.6243848509840184,52.77043993170846,0.13962130195016084,0.07367877527747892,0.423828125,,
1.2147599999997765,1200,,,,0.15625,-0.044921875,-1.103515625,0.026291521540991944,-0.5060413316628283,22.662846951334537,0.3033212441929727,1580,0,6.87412293423371,4.351248234797943,63.2989586661065,0.11629796884854746,0.07361540323096347,0.423828125,,
1.2226550000002607,1200,,,,-0.3125,0.17578125,-0.9296875,0.026291521540991944,-0.4800253195145489,22.662909381514027,0.30547607894927115,1580,0,6.922976695447557,4.351018685674559,62.8489575667028,0.11032481223190341,0.06933799442517352,0.421875,,
1.2314599999999627,1200,,,,0.03125,0.27734375,-1.068359375,0.026291521540991944,-0.4800253195145489,22.662870313602244,0.30766006569769,1580,0,6.972460169581095,4.350944877946231,62.40186063633887,0.11032668373889727,0.06884590343144101,0.421875,,
1.239714999999851,1200,,,,-0.09375,-0.47265625,-0.779296875,0.026291521540991944,-0.4800253195145489,22.662935436383094,0.30895357059558365,1580,0,7.001794823247739,4.35090737775427,62.13988680885294,0.1103276346375167,0.0685574672826377,0.42578125,,
1.2484349999995903,1200,,,,0,0.359375,-1.091796875,0.026291521540991944,-0.4800253195145489,22.662779412562475,0.30777136560302976,1585,0,6.9749545681645815,4.363102193443449,62.553843911152164,0.11001927028798358,0.06882128260813385,0.42578125,,
1.2567350000003352,1200,,,,-0.0625,-0.0859375,-0.90625,0.026291521540991944,-0.4800253195145489,22.662773853588412,0.3062859637746585,1586,0,6.941289531553458,4.367457686868875,62.919975705024925,0.10990955240569016,0.06915506367116189,0.421875,,
1.2654800000004471,1200,,,,0.0625,0.12890625,-1.130859375,0.026291521540991944,-0.4800253195145489,22.662840309423164,0.3049920792815525,1587,0,6.911986788396753,4.369220362948495,63.21222098229651,0.10986521155701377,0.0694482403120871,0.421875,,
1.273570000000298,1200,,,,-0.1875,-0.28125,-0.720703125,0.026291521540991944,-0.4800253195145489,22.662799198944345,0.30366887262089837,1589,0,6.881986683177228,4.374542811132345,63.5651158963408,0.109731540012131,0.06975098058355064,0.42578125,,
1.2826150000002234,1200,,,,-0.125,0.33203125,-0.91015625,0.026291521540991944,-0.4800253195145489,22.662924531177527,0.30186586523618875,1590,0,6.841163322386351,4.376649732231182,63.97522652192008,0.10967871520068748,0.0701672064959714,0.427734375,,
1.289855000000447,1200,,,,0.09375,0.16796875,-1.103515625,0.026291521540991944,-0.4800253195145489,22.662910542275572,0.3017502106697122,1590,0,6.838538030520495,4.3775167572851705,64.01246491206525,0.10965699188145403,0.070194143451742,0.4296875,,
1.2972250000005587,1200,,,,-0.125,0.041015625,-0.97265625,0.026291521540991944,-0.4800253195145489,22.662960062791058,0.30008306446354477,1588,0,6.80077050545727,4.371394961289614,64.2779367099918,0.10981055790322265,0.07058396090992237,0.42578125,,
1.306300000000745,1200,,,,0.125,0.328125,-1.16796875,0.026291521540991944,-0.4800253195145489,22.662946212570752,0.29986092721435686,1587,0,6.795732064710563,4.368773483805624,64.28701782538117,0.10987644960168556,0.07063629274133156,0.423828125,,
1.3145600000005215,1200,,,,-0.125,-0.5,-0.767578125,0.026291521540991944,-0.4800253195145489,22.662568129770364,0.29891018782991724,1586,0,6.774072496377956,4.367635004537931,64.47576412672393,0.10990509028703342,0.07086214677673064,0.42578125,,
1.3226349999997764,1200,,,,-0.0625,0.3671875,-1.177734375,0.026291521540991944,-0.4800253195145489,22.662441654468218,0.30044956752459534,1586,0,6.808920794136351,4.36645876124715,64.12849984989428,0.10993469668712588,0.07049947179998525,0.427734375,,
1.330640000000596,1200,,,,0.125,-0.15234375,-0.96875,0.026291521540991944,-0.4800253195145489,22.662256064674285,0.2995619901110862,1585,0,6.788750527140861,4.364431954472376,64.28917864964605,0.10998574946795796,0.07070893496460763,0.42578125,,
1.3396200000001117,1200,,,,-0.0625,0.14453125,-0.95703125,0.026291521540991944,-0.4800253195145489,22.662132891669152,0.30147024699386993,1585,0,6.831958800259403,4.363589063329886,63.870248502731094,0.11000699482646474,0.07026174096604956,0.423828125,,
1.3477249999996275,1200,,,,-0.1875,-0.044921875,-0.9296875,0.026291521540991944,-0.4800253195145489,22.662324756959464,0.3009540490138866,1585,0,6.820318395674595,4.363300188489284,63.97502191769322,0.11001427790388843,0.07038165840160454,0.42578125,,
1.3568300000000746,1200,,,,0,0.142578125,-0.9921875,0.026291521540991944,-0.4800253195145489,22.66241671869337,0.3011258239230036,1584,0,6.824238906502992,4.361114846505302,63.906245168959195,0.1100694057390413,0.07034122428760817,0.4296875,,
1.3648100000005214,1200,,,,0.0625,0.2265625,-1.06640625,0.030765441218264647,-0.4800253195145489,22.66236360004051,0.30127143809298085,1584,0,6.827522872370228,5.102358800696108,74.73221102406626,0.09407909915097694,0.0703073909070486,0.427734375,,
1.3728500000005588,1200,,,,-0.09375,-0.04296875,-0.912109375,0.030765441218264647,-0.5172439559944385,22.662345882991474,0.30077058626547465,1584,0,6.816167057378311,5.102017184971622,74.85170392719219,0.10138028494259481,0.07588487072577488,0.42578125,,
1.3837700000004842,1200,,,,-0.03125,0.400390625,-0.99609375,0.030765441218264647,-0.5172439559944385,22.662426879749287,0.29902278154672074,1584,0,6.776581922181803,5.102338828615807,75.29369359373209,0.10137389408432515,0.07632814919588628,0.42578125,,
1.400050000000745,1200,,,,0.0625,0.5390625,-1.27734375,0.030765441218264647,-0.5172439559944385,22.662348158066273,0.2985653467821253,1584,0,6.766191836710315,5.102523936763879,75.41204949407255,0.10137021646634053,0.07644535781384519,0.43359375,,
1.4080800000010059,1200,,,,-0.09375,-0.107421875,-0.904296875,0.030765441218264647,-0.5172439559944385,22.662292184013328,0.2981502029527156,1582,0,6.756767014037314,5.098175126231241,75.45287732490529,0.10145668659617119,0.07655198927532267,0.4296875,,
1.4160250000003725,1200,,,,0.03125,0.236328125,-1.0546875,0.030765441218264647,-0.5172439559944385,22.6621817703934,0.2974952180540582,1582,0,6.741890707363887,5.0967322478530885,75.59796604661864,0.10148540885433381,0.07672090492797137,0.427734375,,
1.4247050000010058,1200,,,,-0.3125,-0.04296875,-0.84375,0.030765441218264647,-0.5172439559944385,22.662138974510906,0.2973893616134604,1582,0,6.739479042425319,5.096139697749478,75.6162259081014,0.10149720899975725,0.07674835884767427,0.42578125,,
1.4326350000007078,1200,,,,-0.0625,-0.107421875,-0.888671875,0.030765441218264647,-0.5172439559944385,22.66222825769789,0.29614991323905127,1581,0,6.711416932320806,5.095018867583542,75.9156958800604,0.10151953691189296,0.07706926290087832,0.431640625,,
1.440765000000596,1200,,,,0,0.31640625,-1.16015625,0.030765441218264647,-0.5172439559944385,22.66238209019487,0.29718833195575367,1581,0,6.73499553152896,5.0941030932858995,75.63632476723336,0.10153778722620933,0.07679945050787809,0.431640625,,
1.4484150000000373,1200,,,,-0.0625,-0.064453125,-0.974609375,0.030765441218264647,-0.5172439559944385,22.662650951320785,0.2962723301056733,1581,0,6.714316403719362,5.093751071566636,75.86403090484353,0.10154480435482975,0.07703598175801095,0.4296875,,
1.4559150000000372,1200,,,,0,0.3359375,-1.095703125,0.030765441218264647,-0.5172439559944385,22.6626225108677,0.29575870819453615,1581,0,6.702667958114646,5.0936162733383155,75.99386252114253,0.10154749165182812,0.07716986119955896,0.427734375,,
1.4645,1200,,,,-0.1875,-0.58984375,-0.80859375,0.030765441218264647,-0.5172439559944385,22.66269904156704,0.2962211102566226,1581,0,6.713169871504686,5.092581930493811,75.85957197523385,0.10156811673411469,0.07704913861780527,0.4296875,,
1.4726900000004097,1200,,,,-0.03125,0.158203125,-0.921875,0.030765441218264647,-0.5172439559944385,22.662762488328195,0.2972379190923318,1581,0,6.7362323629144285,5.092237813344489,75.59474701881179,0.10157498038268602,0.07678534945469918,0.43359375,,
1.4810600000005216,1200,,,,0.03125,0.03515625,-1.06640625,0.030765441218264647,-0.5172439559944385,22.662692147763636,0.29800458509176,1581,0,6.753586170556589,5.092100389081592,75.39846624422255,0.10157772166147892,0.07658804417858052,0.431640625,,
1.488195000000298,1200,,,,-0.25,0.11328125,-0.87109375,0.030765441218264647,-0.5172439559944385,22.66281874627341,0.2970483339046568,1581,0,6.731952550163739,5.093395486692221,75.66000278133772,0.1015518934953841,0.07683416544310873,0.4296875,,
1.495980000000447,1200,,,,0,0.375,-1.091796875,0.030765441218264647,-0.5172439559944385,22.662973831985365,0.29707403157134293,1581,0,6.732581003663739,5.093920580122216,75.66073957892529,0.10154142528504606,0.0768269933496477,0.4296875,,
1.5038100000005215,1200,,,,-0.125,-1.02734375,-0.67578125,0.030765441218264647,-0.5172439559944385,22.663155348936712,0.2961384852961036,1581,0,6.711432497064406,5.094129702408426,75.9022713055165,0.1015372568448529,0.07706908416655939,0.435546875,,
1.511230000000447,1200,,,,0,0.314453125,-1.12109375,0.03410901944181668,-0.5172439559944385,22.6630183475942,0.2973314161679735,1582,0,6.73842733993095,5.649023452475977,83.83296528257681,0.09156342867858505,0.0767603373756552,0.43359375,,
1.519375,1200,,,,-0.03125,-0.025390625,-0.8984375,0.03410901944181668,-0.5172439559944385,22.66306105707917,0.2964935265314476,1582,0,6.71945089481092,5.650753600806471,84.09546686575612,0.09153539377838345,0.07697711674533984,0.431640625,,
1.5270400000000373,1200,,,,-0.0625,0.078125,-0.99609375,0.03410901944181668,-0.6180427073116007,22.6630396982735,0.29643436380812616,1582,0,6.7181037549160125,5.651599784436265,84.1249255833638,0.10935712557240979,0.09199660050789543,0.427734375,,
1.5363600000003352,1200,,,,-0.0625,0.265625,-0.96875,0.03410901944181668,-0.6180427073116007,22.66316894075949,0.29563157858867545,1582,0,6.6999484097785675,5.651872122073161,84.35694988075223,0.10935185615715888,0.09224589049216678,0.427734375,,
1.5534350000005215,1200,,,,0.125,0.34375,-1.19140625,0.03410901944181668,-0.6180427073116007,22.663052023752638,0.2958685797149393,1582,0,6.705285014273474,5.6498716068144885,84.25997694039347,0.109390575631163,0.09217247380178162,0.43359375,,
1.5602950000008569,1200,,,,-0.0625,-0.078125,-0.904296875,0.03410901944181668,-0.6180427073116007,22.663162882108704,0.2956354429952356,1582,0,6.700034198325387,5.649694075572563,84.32336176708849,0.10939401302874364,0.0922447093577634,0.431640625,,
1.567355000000447,1200,,,,0.0625,0.31640625,-1.068359375,0.03410901944181668,-0.6180427073116007,22.66302621821801,0.29628269291616993,1581,0,6.714662437563395,5.648685690062835,84.12464129935651,0.10941354170207436,0.09204374948979192,0.4296875,,
1.574890000000596,1200,,,,-0.3125,-0.49609375,-0.84375,0.03410901944181668,-0.6180427073116007,22.6629815632029,0.2954870763095,1581,0,6.696618162566927,5.648244888080429,84.34473567050986,0.10942208058575238,0.09229176463522513,0.431640625,,
1.5840600000005216,1200,,,,0.0625,-0.671875,-0.703125,0.03410901944181668,-0.6180427073116007,22.662964303477462,0.2952436287996405,1581,0,6.691095820315403,5.648028927504862,84.41112007926121,0.10942626449766331,0.09236793552337255,0.43359375,,
1.5928650000002236,1200,,,,0,0.408203125,-1.1796875,0.03410901944181668,-0.6180427073116007,22.66302072656775,0.29501631187640087,1581,0,6.685960790730449,5.64759754373443,84.46949840873093,0.10943462286849227,0.09243887702250178,0.435546875,,
1.6008700000010432,1200,,,,-0.09375,-0.048828125,-0.927734375,0.03410901944181668,-0.6180427073116007,22.66300330224562,0.29546490235213324,1581,0,6.696122057704075,5.646773208668707,84.32900655046957,0.1094505985051437,0.09229860238293078,0.431640625,,
1.6177099999999627,1200,,,,-0.03125,-0.482421875,-0.794921875,0.03410901944181668,-0.6180427073116007,22.66289176653572,0.29550971256506015,1581,0,6.697104631822039,5.646317322753508,84.30982690526295,0.10945943559017034,0.0922850606775504,0.435546875,,
1.6258250000001864,1200,,,,-0.0625,0.609375,-1.20703125,0.03410901944181668,-0.6180427073116007,22.66294542702114,0.29487503412106203,1582,0,6.682736806076625,5.650783902370244,84.55792987735168,0.10937291497775382,0.09248347275170456,0.435546875,,
1.6336500000003726,1200,,,,0,0,-0.919921875,0.03410901944181668,-0.6180427073116007,22.66279947936782,0.2956549706205193,1583,0,6.700369314251214,5.652590035942199,84.36236527917256,0.10933796779560408,0.09224009578055158,0.43359375,,
1.6411300000008195,1200,,,,0.03125,0.095703125,-1.169921875,0.03410901944181668,-0.6180427073116007,22.662665781539246,0.29564305215403713,1583,0,6.70005968160112,5.653282482931316,84.37659888994222,0.10932457544402341,0.09224435851053589,0.4296875,,
1.6483300000000745,1200,,,,-0.3125,0.25,-0.6953125,0.03410901944181668,-0.6180427073116007,22.662636889732,0.29544348598114906,1583,0,6.695528444227407,5.653073714742948,84.43058321433587,0.1093286128039998,0.0923067854105601,0.4296875,,
1.6570100000007078,1200,,,,0,-1.08984375,-0.75390625,0.03410901944181668,-0.6180427073116007,22.6624389767137,0.29587404397021844,1583,0,6.705227466268581,5.652976362829099,84.30700362168245,0.10933049559087381,0.09217326487740135,0.435546875,,
1.667015000000596,1200,,,,0,0.44140625,-1.173828125,0.03657070717773366,-0.6180427073116007,22.66265474150086,0.29637180066632535,1583,0,6.716571793617845,6.060913602117983,90.23820169505409,0.10197187221009485,0.0920175837171682,0.435546875,,
1.6750400000000372,1200,,,,-0.0625,-0.06640625,-0.869140625,0.03657070717773366,-0.7354974565382844,22.66272107010703,0.2956833212342411,1583,0,6.700988634214461,6.060628975962272,90.44380324744043,0.12135662147533233,0.1097595439548906,0.43359375,,
1.6827350000003354,1200,,,,0.03125,0.29296875,-1.060546875,0.03657070717773366,-0.7354974565382844,22.662979233325967,0.29545738298986807,1582,0,6.695944535032217,6.0602465984584395,90.50622457746033,0.12136427859641467,0.10984222654328568,0.431640625,,
1.691535000000149,1200,,,,-0.3125,-0.3046875,-0.86328125,0.03657070717773366,-0.7354974565382844,22.662965955982557,0.29489928343676647,1582,0,6.683292420971089,6.0601065252127535,90.67546567612575,0.12136708380921787,0.11005016842154212,0.431640625,,
1.6998850000007077,1200,,,,-0.03125,-0.005859375,-0.91015625,0.03657070717773366,-0.7354974565382844,22.663110582249228,0.2949301856447866,1582,0,6.684035411311093,6.060032549124267,90.66427952893764,0.12136856536266805,0.11003793536067075,0.435546875,,
1.708464999999851,1200,,,,0.03125,-0.01171875,-1.0390625,0.03657070717773366,-0.7354974565382844,22.662868823719514,0.2954282733415847,1582,0,6.695252205558287,6.057154155381832,90.46939486989429,0.12142624038795327,0.10985358489224449,0.43359375,,
1.7169150000000373,1200,,,,0,0.0625,-0.97265625,0.03657070717773366,-0.7354974565382844,22.66292514918459,0.2945642978206762,1581,0,6.675688633132103,6.056160604488661,90.7196386366994,0.12144616111949769,0.11017551850575201,0.431640625,,
1.7254900000002236,1200,,,,-0.1875,0.8046875,-1.109375,0.03657070717773366,-0.7354974565382844,22.662713850841204,0.2958987533507247,1581,0,6.7058687760081135,6.055773265427391,90.30557363563989,0.12145392905267172,0.10967966733403829,0.43359375,,
1.7337500000009314,1200,,,,-0.125,-0.48828125,-0.75,0.03657070717773366,-0.7354974565382844,22.662711382444915,0.2958720613210258,1581,0,6.705263131847451,6.056184404283854,90.3198619532063,0.12144568385632853,0.1096895740071633,0.435546875,,
1.7409750000005588,1200,,,,-0.0625,0.59375,-1.1328125,0.03657070717773366,-0.7354974565382844,22.66276746614129,0.29707905847189486,1581,0,6.732633621208745,6.0563171935137685,89.95465272958737,0.12144302106996509,0.1092436478678067,0.435546875,,
1.7492249999996274,1200,,,,0,-0.0234375,-0.9765625,0.03657070717773366,-0.7354974565382844,22.662729861775006,0.29646370691749724,1581,0,6.718676903691678,6.056378834241505,90.14243311676047,0.1214417850448745,0.10947057985987602,0.43359375,,
1.7592599999997764,1200,,,,0.0625,0.162109375,-1.134765625,0.03657070717773366,-0.7354974565382844,22.66272649418174,0.29640588284517155,1582,0,6.717365454186599,6.059840393305232,90.21156336712983,0.1213724139254302,0.10949195209855457,0.4296875,,
1.7672549999998883,1200,,,,-0.1875,-0.318359375,-0.70703125,0.03657070717773366,-0.7354974565382844,22.66287008712237,0.2956339496871088,1583,0,6.699913795101819,6.062816219738234,90.49095861756676,0.1213128404162711,0.10977715221888269,0.435546875,,
1.7751699999999255,1200,,,,-0.125,0.3515625,-0.8984375,0.03657070717773366,-0.7354974565382844,22.663078056495014,0.2953836360565117,1583,0,6.69430240056004,6.063879095687239,90.58268857379284,0.12129157671718523,0.10986917120397091,0.4375,,
1.782625,1200,,,,0.0625,0.23046875,-1.1015625,0.03657070717773366,-0.7354974565382844,22.663206940541965,0.2946183894612304,1582,0,6.676997528849053,6.059618747057663,90.7536466933842,0.12137685343577366,0.1101539207346488,0.435546875,,
1.7900600000005216,1200,,,,-0.125,0.056640625,-0.9609375,0.03657070717773366,-0.7354974565382844,22.66315588572206,0.2955710198236525,1582,0,6.6985720975652825,6.0578335769321,90.43469994349884,0.12141262172322109,0.1097991401489303,0.431640625,,
1.798015000000596,1200,,,,0.0625,0.359375,-1.19921875,0.03657070717773366,-0.7354974565382844,22.66313196959415,0.29620147602266744,1582,0,6.71285314069029,6.056976953145286,90.2295466056098,0.12142979282038592,0.10956555150596554,0.431640625,,
1.806144999999553,1200,,,,-0.09375,-0.462890625,-0.724609375,0.03657070717773366,-0.7354974565382844,22.662779862239464,0.29562611342321715,1582,0,6.699709530039805,6.05663771944014,90.40149714377476,0.12143659413168134,0.10978049917544926,0.431640625,,
1.8150050000008195,1200,,,,-0.25,0.80078125,-1.03515625,0.037458081333190466,-0.7354974565382844,22.662846718008645,0.29561403488715743,1582,0,6.699455560339708,6.204628528437209,92.6139217217614,0.11854012744958606,0.10978466084503584,0.4375,,
1.8240500000007451,1200,,,,0.125,-0.03515625,-1.08984375,0.037458081333190466,-0.8821186625269235,22.66291070270087,0.29788718036586403,1582,0,6.750990568110924,6.205001158242831,91.91245485592681,0.14216252987400363,0.13066507109248707,0.435546875,,
1.8317350000003352,1200,,,,-0.0625,0.07421875,-0.951171875,0.037458081333190466,-0.8821186625269235,22.662899042832496,0.29693299657360145,1582,0,6.729362523833257,6.205124537668572,92.20969320187461,0.1421597031891899,0.13108502616744758,0.431640625,,
1.8386500000003725,1200,,,,-0.15625,-0.041015625,-0.9609375,0.037458081333190466,-0.8821186625269235,22.662774133607027,0.2978021330805109,1582,0,6.74902247851,6.204138726161823,91.92647892219685,0.14218229176713532,0.1307031744724121,0.43359375,,
1.8497150000007823,1200,,,,0.0625,-0.33203125,-0.8671875,0.037458081333190466,-0.8821186625269235,22.66270218932449,0.2970303694055252,1581,0,6.731510803022458,6.203111080420868,92.150354681681,0.14220584656482949,0.1310431919875774,0.435546875,,
1.857875,1200,,,,-0.03125,0.412109375,-1.09375,0.037458081333190466,-0.8821186625269235,22.662722362131753,0.29662901569892464,1581,0,6.72242102733715,6.20265417758373,92.26815982456684,0.142216321798962,0.1312203830940865,0.435546875,,
1.864870000001043,1200,,,,-0.125,-0.02734375,-0.9140625,0.037458081333190466,-0.8821186625269235,22.66260875126694,0.29694041320859216,1582,0,6.729444406985862,6.203813067424877,92.18908266757765,0.1421897553875007,0.13108343113900944,0.431640625,,
1.872050000000745,1200,,,,0.3125,0.1484375,-1.23828125,0.037458081333190466,-0.8821186625269235,22.662672471896038,0.2978630820521097,1582,0,6.7503734700164575,6.205694604488702,91.93112991529892,0.14214664413051678,0.13067701608586302,0.431640625,,
1.8802550000008196,1200,,,,-0.21875,-0.26171875,-0.732421875,0.037458081333190466,-0.8821186625269235,22.662672252762814,0.29885733661759334,1582,0,6.772905870098128,6.206531736110057,91.63764941000332,0.14212747151435517,0.1302422740616271,0.435546875,,
1.8874050000011922,1200,,,,-0.125,0.27734375,-0.89453125,0.037458081333190466,-0.8821186625269235,22.66273099533336,0.2990882511856689,1582,0,6.778156580485508,6.206647551871113,91.56837081250403,0.14212481942220032,0.13014138166512212,0.4375,,
1.8956550000002608,1200,,,,0.0625,0.2265625,-1.076171875,0.037458081333190466,-0.8821186625269235,22.66259698257248,0.2999735467563441,1582,0,6.798179595571888,6.206329941435384,91.29399796201302,0.14213209269420654,0.12975806980761537,0.4375,,
1.903300000000745,1200,,,,-0.1875,-0.03515625,-0.94140625,0.037458081333190466,-0.8821186625269235,22.662657322244055,0.29903141674431605,1582,0,6.776846526261587,6.20621368997617,91.57967007111488,0.14213475503617579,0.1301665397185171,0.435546875,,
1.9117650000005961,1200,,,,0.0625,0.21484375,-0.9921875,0.037458081333190466,-0.8821186625269235,22.6625112794733,0.29907067604070176,1582,0,6.777692569132109,6.206155733795799,91.56738330181454,0.14213608236147232,0.13015029134611217,0.431640625,,
1.9199000000003725,1200,,,,-0.125,-0.466796875,-0.78515625,0.037458081333190466,-0.8821186625269235,22.662778388462815,0.29868116848586235,1582,0,6.768945130202222,6.204295967627183,91.65823992196891,0.14217868830398295,0.13031848324357304,0.43359375,,
1.9266699999999255,1200,,,,-0.25,0.63671875,-1.0625,0.037458081333190466,-0.8821186625269235,22.662715376324527,0.29929688423741996,1581,0,6.782880100493399,6.202732967165018,91.44689092637537,0.1422145153106759,0.13005075269762717,0.4375,,
1.9340650000004098,1200,,,,0.03125,0.0859375,-1.138671875,0.037458081333190466,-0.8821186625269235,22.662769740278563,0.29894867369054684,1581,0,6.775004956010535,6.2020707855081545,91.54341326357121,0.1422296992462734,0.1302019213645505,0.4375,,
1.941605000000447,1200,,,,-0.25,0.05859375,-0.87890625,0.037458081333190466,-0.8821186625269235,22.662830110813385,0.2985622769960035,1581,0,6.766266161058035,6.201752536773814,91.6569403146868,0.1422369978963731,0.13037008026728103,0.435546875,,
1.9495900000007824,1200,,,,0.03125,0.2578125,-1.04296875,0.037458081333190466,-0.8821186625269235,22.662887557379143,0.2984074552644902,1581,0,6.762774604942789,6.202180773359668,91.71059418166335,0.1422271769819904,0.13043738909798933,0.43359375,,
1.9578350000008942,1200,,,,-0.09375,-0.57421875,-0.810546875,0.037458081333190466,-0.8821186625269235,22.662744306696695,0.2980429832083369,1581,0,6.754471920855635,6.202350737874972,91.82584235377615,0.1422232794963079,0.13059772442065012,0.435546875,,
1.9659150000000372,1200,,,,-0.125,0.7578125,-1.10546875,0.03688275650970704,-0.8821186625269235,22.662708372535857,0.2977049368048673,1581,0,6.7468001638729245,6.107152396792466,90.51924243279682,0.14444025713034778,0.1307462265223746,0.439453125,,
1.974054999999702,1200,,,,0.03125,-0.00390625,-1.072265625,0.03688275650970704,-1.0317941479709756,22.662573289840957,0.2980232126986818,1581,0,6.753972899857737,6.105802614230664,90.40312575668278,0.16898583415818175,0.15276847616500044,0.4375,,
1.9821450000004843,1200,,,,-0.03125,0.083984375,-1.07421875,0.03688275650970704,-1.0317941479709756,22.66277229851223,0.29831819380023106,1580,0,6.760717298598079,6.103926881681123,90.28519626085904,0.169037763389263,0.15261607643096264,0.435546875,,
1.9896900000004099,1200,,,,-0.25,0.5234375,-0.94140625,0.03688275650970704,-1.0317941479709756,22.662896512096964,0.2985977889385645,1580,0,6.767090789455659,6.103183901122325,90.18918307749291,0.16905834146358217,0.15247233709036326,0.435546875,,
1.997835000000894,1200,,,,-0.09375,-0.42578125,-0.794921875,0.03688275650970704,-1.0317941479709756,22.662944348514984,0.2993985387878029,1580,0,6.785252422574683,6.103414614205028,89.95117991334905,0.16905195094719405,0.1520642245435371,0.439453125,,
2.0081750000007452,1200,,,,0.03125,0.30078125,-1.158203125,0.03688275650970704,-1.0317941479709756,22.663148470155285,0.2998939445810343,1581,0,6.7965409913405015,6.104683090842543,89.82044099521423,0.16901682407048124,0.1518116567362116,0.4375,,
2.0158400000007823,1200,,,,-0.125,-0.03125,-0.84765625,0.03688275650970704,-1.0317941479709756,22.66307796545928,0.29975129833600656,1581,0,6.793287044436561,6.10516290396351,89.87052753737827,0.1690035408066062,0.15188437367974536,0.43359375,,
2.025235000000335,1200,,,,0.0625,0.197265625,-1.109375,0.03688275650970704,-1.0317941479709756,22.66302141117214,0.30100567253287464,1581,0,6.821698001496808,6.105307522296837,89.4983554088325,0.16899953756675162,0.1512518067707748,0.431640625,,
2.033580000001006,1200,,,,-0.1875,-0.396484375,-0.755859375,0.03688275650970704,-1.0317941479709756,22.663138863684544,0.2998391711552978,1581,0,6.795296772664591,6.106471808177413,89.86320998873646,0.1689673153963079,0.15183945344691482,0.435546875,,
2.042620000000112,1200,,,,-0.09375,0.40625,-1.1171875,0.03688275650970704,-1.0317941479709756,22.663192292928585,0.30211848072967745,1581,0,6.846969224024119,6.106962043747698,89.19219356675447,0.16895375156741402,0.15069355713630136,0.439453125,,
2.0501699999999254,1200,,,,0.0625,-0.05078125,-0.9765625,0.03688275650970704,-1.0317941479709756,22.66305925006196,0.30292388559497146,1581,0,6.865181967497829,6.107090844450146,88.95745041228693,0.16895018827313246,0.15029377995453722,0.4375,,
2.0582599999997764,1200,,,,-0.0625,0.03515625,-0.939453125,0.03688275650970704,-1.0317941479709756,22.663106302505348,0.30216867075601134,1583,0,6.848080706630224,6.114331299135987,89.28532768628398,0.16875012123022806,0.1506690987114106,0.43359375,,
2.0661500000003725,1200,,,,0.0625,0.55078125,-1.07421875,0.03688275650970704,-1.0317941479709756,22.66321572265313,0.30087754245974074,1584,0,6.818852650866831,6.117120679255724,89.70894360766248,0.16867317191730066,0.15131492067654684,0.43359375,,
2.074045000000857,1200,,,,-0.15625,-0.490234375,-0.740234375,0.03688275650970704,-1.0317941479709756,22.663351707530726,0.3016700800179901,1584,0,6.8368551230866474,6.1182171279043045,89.48876373355272,0.16864294391663734,0.1509164856348674,0.435546875,,
2.0819350000005215,1200,,,,-0.0625,0.380859375,-1.1171875,0.03688275650970704,-1.0317941479709756,22.66331812652335,0.30157558813181623,1585,0,6.834703493024731,6.1216718098140115,89.5674818382624,0.16854777257363682,0.15096399558868798,0.4375,,
2.090195000000298,1200,,,,0.0625,-0.11328125,-0.89453125,0.03688275650970704,-1.0317941479709756,22.66341714556476,0.3016988540768021,1586,0,6.837526982281437,6.126053331810374,89.59457633856867,0.16842722256648385,0.15090165649725934,0.435546875,,
2.098155000000261,1200,,,,0,0.037109375,-1.00390625,0.03688275650970704,-1.0317941479709756,22.663543217041184,0.3018154258611346,1587,0,6.840206947573513,6.12777449796815,89.58463603417597,0.16837991481460332,0.15084253384131793,0.43359375,,
2.1118450000006708,1200,,,,-0.21875,-0.126953125,-0.869140625,0.03688275650970704,-1.0317941479709756,22.663922725775127,0.30090024569466106,1586,0,6.819579916590548,6.12564660941897,89.82439804710859,0.16843840556921116,0.15129878388269133,0.4375,,
2.1184850000003355,1200,,,,0,0.23828125,-1.01953125,0.03476793485870496,-1.1562854286809299,22.663892922526582,0.3016784097474422,1585,0,6.83720717555413,5.769989423385853,84.39102802114839,0.20039645549339968,0.16911662890882304,0.439453125,,
2.1255449999999256,1200,,,,-0.03125,-0.01953125,-0.94140625,0.03476793485870496,-1.1562854286809299,22.663897634661623,0.30234820098745646,1584,0,6.852388677203812,5.767944491113874,84.17421665385659,0.20046750284478457,0.16874195016514507,0.435546875,,
2.1339750000005586,1200,,,,-0.125,0.078125,-0.9765625,0.03476793485870496,-1.1562854286809299,22.663902757786833,0.3024339431608008,1584,0,6.854333478450419,5.766215263329864,84.1251054016918,0.20052762095690482,0.16869407248950122,0.43359375,,
2.1419349999995903,1200,,,,-0.09375,0.283203125,-1.052734375,0.03476793485870496,-1.1562854286809299,22.663907557396687,0.3025142723324548,1583,0,6.8561555029358825,5.76477134448631,84.08168895845158,0.20057784768633607,0.16864924201118187,0.43359375,,
2.150230000000447,1200,,,,-0.09375,-0.3515625,-0.8359375,0.03476793485870496,-1.1562854286809299,22.663845963379533,0.3025923845949464,1583,0,6.857907194151563,5.764191258418297,84.05175362148398,0.20059803307050858,0.16860616452596683,0.439453125,,
2.1607900000000373,1200,,,,0.1875,0.3359375,-1.3203125,0.03476793485870496,-1.1562854286809299,22.66378852037275,0.30435877948886164,1583,0,6.897923012654324,5.763966954259059,83.56090585071755,0.20060583932156964,0.16762805652653853,0.439453125,,
2.1692350000003353,1200,,,,-0.03125,-0.044921875,-0.908203125,0.03476793485870496,-1.1562854286809299,22.6635337393015,0.3069686261016781,1581,0,6.956993814562408,5.757898144452068,82.76416938016548,0.20081727735928265,0.1662047515782734,0.4375,,
2.1769900000002234,1200,,,,0.0625,0.1796875,-1.05078125,0.03476793485870496,-1.1562854286809299,22.66336347462371,0.30871273012963063,1581,0,6.996468812171238,5.75634888405884,82.27505958498588,0.2008713252046018,0.1652670025012369,0.43359375,,
2.1847400000002235,1200,,,,-0.125,-0.517578125,-0.794921875,0.03476793485870496,-1.1562854286809299,22.663196599501482,0.3081602138622603,1581,0,6.983895510904826,5.755719605701304,82.41417124174012,0.2008932866596865,0.1655645372808739,0.435546875,,
2.1927949999999257,1200,,,,-0.1875,0.6953125,-1.08984375,0.03476793485870496,-1.1562854286809299,22.66331671848032,0.3065899671949448,1586,0,6.948345529247526,5.776136763453916,83.12967078480114,0.20018318056401316,0.16641161896940818,0.4375,,
2.2013100000005217,1200,,,,0.125,-0.00390625,-1.048828125,0.03476793485870496,-1.1562854286809299,22.663501509786023,0.30693056218412884,1589,0,6.956121259459477,5.786369517211558,83.18385061707774,0.19982917185664667,0.1662255998065765,0.4375,,
2.209334999999963,1200,,,,0,0.03125,-1.0234375,0.03476793485870496,-1.1562854286809299,22.663526178262053,0.30550527283455386,1590,0,6.923826748483003,5.7898266711144135,83.62177277735833,0.19970985218774617,0.16700091881043527,0.43359375,,
2.2183500000005587,1200,,,,-0.1875,-0.06640625,-0.8125,0.03476793485870496,-1.1562854286809299,22.66355204865296,0.30424610025209026,1590,0,6.895297328662934,5.790155504069871,83.97252834915298,0.1996985103194867,0.1676918881908672,0.4375,,
2.226405000001192,1200,,,,0,-0.15234375,-0.90625,0.03476793485870496,-1.1562854286809299,22.66344413896959,0.30381543147237305,1590,0,6.885504059731071,5.789748932541642,84.08605793150565,0.1997125336786119,0.16793039676547536,0.4375,,
2.2334550000000744,1200,,,,0.03125,0.3984375,-1.1640625,0.03476793485870496,-1.1562854286809299,22.663275931282495,0.302025951685421,1590,0,6.8448974814548915,5.789587637610758,84.58253251121263,0.19971809756698058,0.16892662480536672,0.439453125,,
2.24156500000041,1200,,,,-0.125,-0.05078125,-0.875,0.03476793485870496,-1.1562854286809299,22.663307712037483,0.30026253183349605,1589,0,6.804942153337971,5.786602681181008,85.0352956834843,0.19982111998830712,0.16991848022010692,0.435546875,,
2.248870000001043,1200,,,,0.0625,0.11328125,-1.158203125,0.03476793485870496,-1.1562854286809299,22.663341859932963,0.30045061465617756,1587,0,6.809214991979937,5.7789941166611705,84.87019610142745,0.20008420243019334,0.16981185497048215,0.43359375,,
2.257,1200,,,,-0.375,0.3984375,-0.71875,0.03476793485870496,-1.1562854286809299,22.663374248237638,0.29913728760247627,1586,0,6.779460300537616,5.776002930055902,85.19856557900133,0.20018781892649407,0.17055715018926146,0.435546875,,
2.2662250000005586,1200,,,,-0.0625,-0.330078125,-0.833984375,0.031066681221395803,-1.1562854286809299,22.663408444202787,0.300116987514131,1586,0,6.801673869076459,5.160001800338348,75.86370501823222,0.22408624520346307,0.1700001280475878,0.44140625,,
2.2742900000009687,1200,,,,0.09375,0.123046875,-1.14453125,0.031066681221395803,-1.2638795005979722,22.663339118059262,0.30095528732297117,1585,0,6.820651735973457,5.15499031612823,75.57914574262455,0.24517592140643182,0.18530186696558973,0.44140625,,
2.2822900000000375,1200,,,,-0.09375,0.015625,-0.947265625,0.031066681221395803,-1.2638795005979722,22.663175543821225,0.30025823604347307,1584,0,6.80480511193134,5.153028448402698,75.72631932349589,0.24526926510365785,0.1857333868947876,0.4375,,
2.2903250000001862,1200,,,,0.125,0.31640625,-1.20703125,0.031066681221395803,-1.2638795005979722,22.663411918469382,0.2991694629606026,1584,0,6.780200772503405,5.152254126945951,75.98969853283005,0.24530612610662297,0.1864073857109867,0.435546875,,
2.298350000000559,1200,,,,-0.09375,-0.51171875,-0.73828125,0.031066681221395803,-1.2638795005979722,22.66344100750525,0.29812711701206757,1583,0,6.756586329140608,5.150099528224262,76.22339562231745,0.24540875252439126,0.18705888432846074,0.4375,,
2.3087050000010056,1200,,,,-0.25,0.65625,-1.06640625,0.031066681221395803,-1.2638795005979722,22.663402969765535,0.2973522374119304,1582,0,6.73901358042797,5.148331041157138,76.39591432356465,0.24549305211614808,0.18754666176495638,0.439453125,,
2.3204000000003724,1200,,,,0.09375,0.06640625,-1.0546875,0.031066681221395803,-1.2638795005979722,22.66318040687835,0.29885723580166035,1582,0,6.773055450874012,5.147535836599581,76.00020218253684,0.24553097651339134,0.18660403857093447,0.4375,,
2.3361500000003725,1200,,,,-0.25,-0.76171875,-0.63671875,0.031066681221395803,-1.2638795005979722,22.66346248722495,0.29831058114218395,1583,0,6.760750665258161,5.148464906807995,76.15226713306693,0.24548666903152047,0.1869436639769514,0.439453125,,
2.343910000000149,1200,,,,0,0.193359375,-0.98828125,0.031066681221395803,-1.2638795005979722,22.66339067044927,0.29827440034189984,1583,0,6.759909261942464,5.1486106625712305,76.16390195586405,0.2454797193708928,0.186966932783177,0.439453125,,
2.351850000000559,1200,,,,0.03125,-0.0078125,-0.98828125,0.031066681221395803,-1.2638795005979722,22.663324003555655,0.2979281588219003,1581,0,6.752042393163515,5.145027392503554,76.19957181715752,0.24565068447244404,0.187184769733919,0.435546875,,
2.3604900000002234,1200,,,,-0.1875,0.03125,-0.953125,0.031066681221395803,-1.2638795005979722,22.66322173252679,0.2977985684836667,1581,0,6.749074989174403,5.143539629083557,76.21103095363226,0.24572173867418262,0.18726707032078468,0.43359375,,
2.3680450000008566,1200,,,,-0.0625,0.31640625,-1.001953125,0.031066681221395803,-1.2638795005979722,22.663163616610145,0.2999603283763597,1581,0,6.7980500004855475,5.142996149531333,75.6539912057722,0.24574770500521295,0.18591794713303078,0.435546875,,
2.375269999999553,1200,,,,0,-1.1484375,-0.75390625,0.031066681221395803,-1.2638795005979722,22.663200015184735,0.29957389457936096,1581,0,6.789303092179924,5.1427878021243645,75.74839025890516,0.24575766086943998,0.18615747204654007,0.44140625,,
2.3832249999996273,1200,,,,-0.03125,0.4140625,-1.109375,0.031066681221395803,-1.2638795005979722,22.663042399500377,0.29979625700007634,1581,0,6.794295283604241,5.14269096306461,75.69130790465898,0.2457622885907977,0.1860206905707973,0.44140625,,
2.391260000000708,1200,,,,0.0625,-0.08984375,-0.93359375,0.031066681221395803,-1.2638795005979722,22.66302420549724,0.29916066305640315,1581,0,6.779885348179869,5.142653182487195,75.85162459816218,0.2457640940870737,0.18641605804400124,0.439453125,,
2.3996650000000375,1200,,,,-0.15625,0.083984375,-0.98046875,0.031066681221395803,-1.2638795005979722,22.663074376976503,0.29874504633317334,1581,0,6.770481204801999,5.142637746339259,75.95675389648548,0.24576483177288802,0.1866749884338441,0.4375,,
2.407339999999851,1200,,,,-0.125,0.134765625,-1.001953125,0.031066681221395803,-1.2638795005979722,22.663179621047508,0.29858954798971316,1580,0,6.766988559058254,5.141292240069637,75.97607407193753,0.24582914986774868,0.18677133699393506,0.43359375,,
2.4154300000006335,1200,,,,-0.0625,-0.123046875,-0.8984375,0.02924748568303024,-1.2638795005979722,22.663021303526264,0.29821468997360123,1580,0,6.758445871896205,4.8396897798274905,71.60950714945398,0.2611488665794242,0.1870074162839108,0.439453125,,
2.423464999999851,1200,,,,0.125,0.16015625,-1.20703125,0.02924748568303024,-1.3366540235202438,22.662970611890554,0.29785893351442194,1580,0,6.750368256726407,4.8394797367068225,71.6920848264022,0.2761978758546911,0.1980120154464661,0.439453125,,
2.4324100000010804,1200,,,,-0.09375,-0.0234375,-0.939453125,0.02924748568303024,-1.3366540235202438,22.662954395244082,0.2970290532305843,1580,0,6.731555887427259,4.83962091922009,71.8945367186092,0.2761898185479467,0.1985653905090137,0.435546875,,
2.440254999999888,1200,,,,0.125,0.10546875,-1.0390625,0.02924748568303024,-1.3366540235202438,22.66313797558678,0.29716342080520547,1580,0,6.734655607005727,4.8398876018843255,71.86540610702694,0.27617460021175716,0.1984739980066374,0.43359375,,
2.448174999999814,1200,,,,-0.15625,-0.02734375,-0.943359375,0.02924748568303024,-1.3366540235202438,22.663276389126064,0.2968685318855352,1580,0,6.728013589355968,4.839990865622614,71.93788777834375,0.2761687078821165,0.19866993515513895,0.435546875,,
2.456089999999851,1200,,,,-0.03125,0.1875,-0.953125,0.02924748568303024,-1.3366540235202438,22.663116182751317,0.2967969947130737,1580,0,6.726344773873818,4.840032267171807,71.95635118156974,0.2761663455399432,0.19871922544202886,0.4375,,
2.4636700000008567,1200,,,,0.125,0.140625,-1.1484375,0.02924748568303024,-1.3366540235202438,22.663223461273912,0.2981988505537863,1580,0,6.758147185995483,4.837903624311888,71.58624237035256,0.27628785674918455,0.19778409477232375,0.4375,,
2.472790000000037,1200,,,,-0.125,-0.05078125,-0.900390625,0.02924748568303024,-1.3366540235202438,22.663343013605743,0.2981719962948317,1579,0,6.757574229081352,4.837108954008931,71.58055228150272,0.2763332470343557,0.19780086436460104,0.435546875,,
2.4809750000005586,1200,,,,-0.03125,0.37890625,-1.03125,0.02924748568303024,-1.3366540235202438,22.663219050810127,0.2980010422011661,1579,0,6.75366289677474,4.836691670877655,71.61582899240427,0.2763570875456896,0.19791541922511005,0.435546875,,
2.4889150000000373,1200,,,,-0.0625,-0.44921875,-0.818359375,0.02924748568303024,-1.3366540235202438,22.66316656849357,0.2968599772495978,1579,0,6.727787111926846,4.836579465650539,71.88960330026461,0.2763634988349062,0.19867662297914546,0.439453125,,
2.4974750000005588,1200,,,,0.0625,0.515625,-1.29296875,0.02924748568303024,-1.3366540235202438,22.66310251958007,0.29833307727644925,1579,0,6.761153115297973,4.83652369044313,71.534006225948,0.2763666858825574,0.1976961622856748,0.439453125,,
2.5060000000009315,1200,,,,-0.03125,-0.05078125,-0.9140625,0.02924748568303024,-1.3366540235202438,22.662950171449168,0.29797598486867616,1579,0,6.753014897367299,4.836504852401282,71.61993459079767,0.276367762322539,0.19793441060545355,0.4375,,
2.514530000001192,1200,,,,-0.0625,0.0859375,-0.98828125,0.02924748568303024,-1.3366540235202438,22.663007768937817,0.29759735753851285,1579,0,6.744451225910682,4.836801666829917,71.71527385724134,0.2763508027808589,0.19818573502097786,0.43359375,,
2.5236200000001117,1200,,,,-0.09375,0.263671875,-0.984375,0.02924748568303024,-1.3366540235202438,22.663210256821426,0.29699555561142554,1579,0,6.730872722163237,4.837520733755437,71.87063154272073,0.27630972497818734,0.19858554435577802,0.43359375,,
2.532530000001192,1200,,,,0,-0.240234375,-0.837890625,0.02924748568303024,-1.3366540235202438,22.662961457700717,0.29619592832017494,1580,0,6.712676907448009,4.837775505188103,72.06924408681698,0.2762951736984894,0.19912384313285922,0.439453125,,
2.5414199999999254,1200,,,,0.09375,0.041015625,-1.044921875,0.02924748568303024,-1.3366540235202438,22.663018776226767,0.2987850453357261,1579,0,6.771371092499326,4.837562013077113,71.44139564933458,0.27630736720417043,0.19739783941259115,0.4375,,
2.5498349999999625,1200,,,,-0.09375,0.05078125,-0.9296875,0.02924748568303024,-1.3366540235202438,22.66287207419337,0.29872623279026905,1579,0,6.769994398931576,4.83691720607522,71.44639893407549,0.27634420160043094,0.19743798070662974,0.435546875,,
2.5584650000007825,1200,,,,-0.09375,0.00390625,-0.978515625,0.02924748568303024,-1.3366540235202438,22.662933883394146,0.2994942116768894,1579,0,6.787417517692595,4.836645429789273,71.25899382470149,0.2763597296770378,0.19693116270452207,0.435546875,,
2.5665449999999255,1200,,,,0.0625,-0.6640625,-0.69140625,0.02473077340540898,-1.3665990426422867,22.66288787518572,0.2997211862382551,1580,0,6.792547637535233,4.0909234239530665,60.22664311320918,0.3340563733460793,0.20119093977207284,0.4375,,
2.574964999999851,1200,,,,0,0.494140625,-1.142578125,0.02473077340540898,-1.3665990426422867,22.662942588558995,0.3005753827033257,1580,0,6.811922641739618,4.092674615460834,60.08104951725719,0.33391343584454686,0.20061869673453703,0.439453125,,
2.584280000000261,1200,,,,-0.125,-0.005859375,-0.875,0.02473077340540898,-1.3665990426422867,22.662927565243553,0.300529951435395,1581,0,6.81088852056652,4.093403462108625,60.100873032174384,0.3338539812389551,0.2006491573772837,0.4375,,
2.596800000000745,1200,,,,0.25,0.03125,-1.15625,0.02473077340540898,-1.3665990426422867,22.663018986986,0.3008326770128652,1581,0,6.8177766710483905,4.093714778319433,60.04471803400874,0.333828592524296,0.2004464370981135,0.435546875,,
2.612105000000447,1200,,,,0.03125,0.330078125,-1.10546875,0.02473077340540898,-1.3665990426422867,22.663118543977827,0.2998735216085918,1582,0,6.796069168415613,4.096316746910924,60.27479481739751,0.3336165455644644,0.20108668831587037,0.44140625,,
2.6201450000004844,1200,,,,-0.125,-0.09765625,-0.82421875,0.02473077340540898,-1.3665990426422867,22.662966246072216,0.2992310276577079,1582,0,6.781462679584137,4.0966298068604345,60.409236184304326,0.3335910509545449,0.20151980586083404,0.4375,,
2.6297200000006704,1200,,,,0.03125,0.15234375,-1.169921875,0.02473077340540898,-1.3665990426422867,22.662919963093778,0.2988388420045767,1581,0,6.772560758213349,4.094943020503916,60.4637325038069,0.33372846357068864,0.2017846855024458,0.435546875,,
2.637050000000745,1200,,,,-0.125,-0.36328125,-0.71875,0.02473077340540898,-1.3665990426422867,22.66275800516885,0.2981665269323196,1581,0,6.757275845108819,4.094214457050035,60.589719154555276,0.3337878503870433,0.20224112112153667,0.439453125,,
2.6526600000001492,1200,,,,0.0625,0.201171875,-1.099609375,0.02473077340540898,-1.3665990426422867,22.662717790986555,0.29598238221090933,1580,0,6.707765199149757,4.092455982603989,61.01072206765269,0.33393127463101835,0.20373388186210067,0.44140625,,
2.6687249999996276,1200,,,,0.0625,0.279296875,-1.103515625,0.02473077340540898,-1.3665990426422867,22.66281057993416,0.2965622956059034,1580,0,6.72093513046703,4.091561642080825,60.87786242026275,0.3340042658986514,0.20333465747158955,0.4375,,
2.6832200000006705,1200,,,,-0.125,-0.49609375,-0.787109375,0.02473077340540898,-1.3665990426422867,22.66222592083699,0.2972079676855368,1579,0,6.7353941091624545,4.090211557963276,60.727130315940684,0.33411451297223016,0.20289815569711675,0.439453125,,
2.7017000000001863,1200,,,,-0.01953125,0.1875,-1.068359375,0.02473077340540898,-1.3665990426422867,22.66216178663435,0.2981797231128144,1579,0,6.757397126676433,4.089235843380075,60.51495519238973,0.3341942345669858,0.2022374913037613,0.439453125,,0.26863000000081955,4410,
2.7146850000005216,1200,,,,-0.09375,0.001953125,-0.919921875,0.02473077340540898,-1.3665990426422867,22.662123390691484,0.29868895897892017,1579,0,6.768926043817476,4.089834851923352,60.420734773116315,0.3341452875535078,0.2018930379495718,0.4375,,
2.7224150000009684,1500,,,,0,0.1796875,-1,0.021173158806352916,-1.3988398198882257,22.662319235099783,0.2992958771545005,1579,0,6.782738713824498,3.5019597443360304,51.63046804675487,0.39944486002463886,0.20623525081942592,0.439453125,,
2.737695000000298,1500,,,,-0.125,-0.03125,-0.982421875,0.021173158806352916,-1.3988398198882257,22.66247248236104,0.2991245495449645,1579,0,6.778901872861399,3.501095782107399,51.646945888443355,0.3995434306702196,0.20635197943907846,0.435546875,,
2.7467150000007825,1500,,,,-0.03125,0.28515625,-1,0.021173158806352916,-1.3988398198882257,22.66255584276825,0.29844851616237206,1579,0,6.763606163721079,3.500888011035436,51.760672136908994,0.39956714281600214,0.2068186387598058,0.435546875,,
2.754660000000149,1500,,,,0,-1.02734375,-0.80859375,0.021173158806352916,-1.3988398198882257,22.662561357825467,0.2980861928144145,1577,0,6.755396634577262,3.4960562487227267,51.752050069544175,0.40011936890297106,0.20706997613260975,0.44140625,,
2.763549999999814,1500,,,,-0.1875,0.681640625,-1.06640625,0.021173158806352916,-1.3988398198882257,22.644097089510755,1.014831498295964,1571,0,22.97994297690748,3.483914229720237,15.160673954766635,0.4015138512754243,0.0608722058750937,0.443359375,,
2.771820000000298,1500,,,,-0.0625,0.099609375,-0.740234375,0.021173158806352916,-1.3988398198882257,22.6262190157801,1.5005035651316252,1569,0,33.950722298627014,3.479845859540944,10.249696100520579,0.4019832706247393,0.04120206361396899,0.4453125,,
2.7840100000007078,1500,,,,-0.03125,-0.072265625,-1.0078125,0.021173158806352916,-1.3988398198882257,22.606938018818436,2.0697669132044134,1783,0,46.79109232021333,3.952958954599177,8.448101462447658,0.3538715772043896,0.029895429888990632,0.443359375,,
2.7930200000004843,1500,,,,-0.125,0.51171875,-0.958984375,0.021173158806352916,-1.3988398198882257,22.589717805782364,2.5397306840570333,1990,0,57.37179945553499,4.412314402458444,7.690737338434244,0.3170308577985339,0.024382010555070215,0.4453125,,
2.80175500000082,1500,,,,-0.28125,-0.240234375,-0.994140625,0.021173158806352916,-1.3988398198882257,22.580575724025266,2.788236061311286,2266,0,62.95997551889745,5.024487310825608,7.980446735271532,0.27840448852847693,0.022217921915620248,0.44921875,,
2.8104199999999255,1500,,,,0.03125,0.50390625,-1.01171875,0.021173158806352916,-1.3988398198882257,22.573573765414647,2.9681590649290697,2433,0,67.00195759966051,5.39561554446991,8.052922239539534,0.25925490953889935,0.020877596267356125,0.451171875,,
2.8205600000005218,1500,,,,-0.125,-0.3671875,-0.748046875,0.021173158806352916,-1.3988398198882257,22.567978690187182,3.111175873888753,2653,0,70.21295082334586,5.88285809129619,8.378594009098581,0.23778234969798748,0.019922817706489418,0.455078125,,
2.8279350000005214,1500,,,,0.3125,-0.0390625,-1.16796875,0.021173158806352916,-1.3988398198882257,22.56361129549695,3.2224040118805273,2843,0,72.70907156112216,6.3026793502563505,8.668353501059446,0.22194367540391063,0.019238862357254898,0.455078125,,
2.835710000000894,1500,,,,0,0.177734375,-0.958984375,0.021173158806352916,-1.3988398198882257,22.561266257400465,3.280143486560985,2942,0,74.00419056278027,6.52274936092094,8.814027031871216,0.21445555278713407,0.018902170394006844,0.455078125,,
2.844570000000298,1500,,,,0.03125,0.05078125,-0.921875,0.021173158806352916,-1.3988398198882257,22.558838697089957,3.331746257830048,3092,0,75.16032641002114,6.8564572409471465,9.12244207608041,0.20401787260252657,0.018611412253017014,0.453125,,
2.851980000000447,1500,,,,0.0625,0.45703125,-1.0234375,0.021173158806352916,-1.3988398198882257,22.557190593822853,3.364096699705238,3178,0,75.8845704313015,7.045680512809441,9.28473400160829,0.19853863900655966,0.018433784522172387,0.451171875,,
2.859894999999553,1500,,,,0,-0.27734375,-0.845703125,0.021173158806352916,-1.3988398198882257,22.556142550437887,3.3798600022313527,3244,0,76.23660401085371,7.1925259190792525,9.434478374791277,0.19448519694278663,0.01834866384773743,0.451171875,,
2.8677750000003726,1500,,,,-0.0625,0.29296875,-1.15625,0.019841177719389938,-1.4175305016370294,22.55554780062252,3.38578277242195,3317,0,76.36818516588752,6.891082882603184,9.023499599518207,0.20570504313852359,0.018561793743793433,0.44921875,,
2.8756850000005216,1500,,,,-0.0625,-0.185546875,-0.8828125,0.019841177719389938,-1.4175305016370294,22.555038876540994,3.390844157823591,3370,0,76.48062180400301,7.00129643123861,9.1543403624265,0.2024668596107781,0.01853450544988686,0.44921875,,
2.883780000000261,1500,,,,0.03125,0.42578125,-1.099609375,0.019841177719389938,-1.4175305016370294,22.55488830548324,3.3874680123716,3422,0,76.40396265743875,7.1094545507976425,9.305086154592873,0.19938667467506213,0.01855310185929234,0.447265625,,
2.892020000000484,1500,,,,0,-0.34375,-0.91015625,0.019841177719389938,-1.4175305016370294,22.55487748804936,3.376577943245487,3487,0,76.15830183875165,7.244216144233806,9.512050517580906,0.19567755481251678,0.018612947865333664,0.447265625,,
2.900719999999739,1500,,,,-0.0625,0.125,-0.919921875,0.019841177719389938,-1.4175305016370294,22.555011831245114,3.3597636554992225,3516,0,75.7795089999723,7.306438459336868,9.641707310797619,0.19401114640547928,0.018705986886739367,0.44921875,,
2.9082000000001864,1500,,,,-0.03125,-0.14453125,-1.0390625,0.019841177719389938,-1.4175305016370294,22.555255638814607,3.3427911298350663,3532,0,75.39750848059184,7.338357892122675,9.732891762612619,0.19316726200539644,0.01880076053178757,0.44921875,,
2.9158150000004097,1500,,,,0,0,-0.78515625,0.019841177719389938,-1.4175305016370294,22.55552027482187,3.3247121404489786,3557,0,74.99061209184335,7.390601120207626,9.855368444194221,0.1918017869698272,0.01890277278842498,0.44921875,,
2.9237450000001117,1500,,,,0.03125,0.220703125,-1.05078125,0.019841177719389938,-1.4175305016370294,22.55573883648425,3.3063049378448572,3572,0,74.57615069180689,7.421191073193447,9.95115865373936,0.19101118508555598,0.019007826074251413,0.44921875,,
2.9337050000010056,1500,,,,-0.0625,-0.44140625,-0.77734375,0.019841177719389938,-1.4175305016370294,22.556077413676107,3.285064917524361,3584,0,74.098178588631,7.4463806384769775,10.049343695500077,0.19036503376047667,0.019130436518645055,0.44921875,,
2.9439350000005216,1500,,,,-0.125,0.458984375,-1.212890625,0.019841177719389938,-1.4175305016370294,22.557075820643462,3.255854782810997,3607,0,73.44256319687231,7.493711263571994,10.203499084698514,0.18916267944934692,0.019301212266205296,0.451171875,,
2.9527400000002233,1500,,,,-0.0625,-0.140625,-0.69921875,0.019841177719389938,-1.4175305016370294,22.557965054725464,3.2259786739396845,3621,0,72.771514194021,7.523675682463127,10.338764784258512,0.18840930436982278,0.01947919481045367,0.451171875,,
2.961140000000596,1500,,,,0,0.181640625,-1.146484375,0.019841177719389938,-1.4175305016370294,22.558552393189142,3.2044222435390832,3630,0,72.2871270707771,7.541536126962601,10.432751213889855,0.18796309899902958,0.01960972249248625,0.451171875,,
2.968839999999851,1500,,,,-0.21875,0.14453125,-0.947265625,0.019841177719389938,-1.4175305016370294,22.559081799409608,3.1796498449366917,3642,0,71.72998094540691,7.566251502976746,10.548241339608548,0.18734911218313835,0.019762036500691395,0.451171875,,
2.9769150000009685,1500,,,,0.1875,0.00390625,-1.1484375,0.019841177719389938,-1.4175305016370294,22.559650582126707,3.159397201948926,3658,0,71.27489692611657,7.599591334177083,10.662367343799607,0.18652720117489396,0.01988821538537529,0.451171875,,
2.984644999999553,1500,,,,-0.21875,-0.146484375,-0.828125,0.019841177719389938,-1.4175305016370294,22.56025035665211,3.1374123597785,3661,0,70.78080830865764,7.607423819944555,10.747862311448122,0.18633515565685427,0.020027045967821233,0.453125,,
2.9930250000003724,1500,,,,0.15625,0.02734375,-1.033203125,0.019841177719389938,-1.4175305016370294,22.560898642109223,3.117873317824726,3662,0,70.34202390238043,7.607928875665757,10.815624080171366,0.1863227857151837,0.020151972078657508,0.45703125,,
3.001105000000447,1500,,,,-0.21875,0.310546875,-0.919921875,0.019841177719389938,-1.4175305016370294,22.56143879938787,3.098646581738963,3668,0,69.90992521483602,7.62070572871839,10.900749364699868,0.1860103974747523,0.02027652722100476,0.45703125,,
3.008195000000298,1500,,,,0.3125,-0.23828125,-1.21875,0.019841177719389938,-1.4175305016370294,22.562015767093357,3.0795167260976544,3682,0,69.480104929243,7.651086345388921,11.011909600857136,0.1852717950949975,0.02040196259174639,0.458984375,,
3.015875,1500,,,,-0.1875,-0.2890625,-0.74609375,0.08285060060693432,-1.4175305016370294,22.562456728148465,3.0621773368648255,3688,0,69.09024365692953,31.996484533697544,46.311147334459285,0.044302695195909333,0.020517086445313987,0.45703125,,
3.0238849999997766,1500,,,,0,0.3359375,-1.060546875,0.08285060060693432,-3.415299046455035,22.563116895336385,3.041345888821483,3685,0,68.62224280862985,31.97166692858385,46.59082189683712,0.10682267690589606,0.04976956314265979,0.458984375,,
3.0318600000003353,1500,,,,-0.1875,0.0078125,-0.86328125,0.08285060060693432,-3.415299046455035,22.563946493370082,3.0258596774045032,3683,0,68.27533585740127,31.95734749249775,46.80657676916204,0.10687054197025596,0.050022442270927406,0.45703125,,
3.0400099999997763,1500,,,,-0.0625,0.31640625,-1.16015625,0.08285060060693432,-3.415299046455035,22.564732934503525,3.005629764012412,3682,0,67.82123292493493,31.949499798101318,47.10840310653637,0.10689679237663677,0.0503573718607433,0.45703125,,
3.049625,1500,,,,-0.03125,-0.337890625,-0.919921875,0.08285060060693432,-3.415299046455035,22.56542776788427,2.9871065054323167,3691,0,67.40533608331015,32.02408193144602,47.50971331389196,0.1066478362679114,0.0506680812663536,0.458984375,,
3.0573100000005216,1500,,,,0.15625,0.060546875,-0.974609375,0.08285060060693432,-3.415299046455035,22.565855047625593,2.965252011185865,3692,0,66.9134470641005,32.031755005919244,47.87043025183572,0.1066222892196794,0.05104054859381719,0.4609375,,
3.065090000000782,1500,,,,-0.1875,0.19921875,-0.89453125,0.08285060060693432,-3.415299046455035,22.566154786868104,2.9469012470872396,3692,0,66.5002296833853,32.034396683611085,48.171858708052994,0.10661349674184172,0.05135770301419467,0.4609375,,
3.0725700000002982,1500,,,,0.25,0.18359375,-1.09765625,0.08285060060693432,-3.415299046455035,22.566588708997333,2.9314354551723327,3693,0,66.15249824384642,32.039583745099634,48.43291575625413,0.10659623650626845,0.05162766542641842,0.4609375,,
3.0805300000002607,1500,,,,-0.21875,-0.080078125,-0.91015625,0.08285060060693432,-3.415299046455035,22.567047653882696,2.9146291534710906,3702,0,65.77457499977788,32.122297486775246,48.836951796167014,0.10632175509429592,0.051924304284240046,0.4609375,,
3.091160000000149,1500,,,,0,0,-1.2265625,0.08285060060693432,-3.415299046455035,22.567591376969173,2.8978407614176245,3701,0,65.39728617919816,32.11267418565789,49.10398590189882,0.10635361685263728,0.052223865025478496,0.4609375,,
3.108100000000559,1500,,,,0.3125,-0.3359375,-0.9140625,0.08285060060693432,-3.415299046455035,22.568163197996316,2.8625625753707404,3694,0,64.6027793654435,32.05243607133723,49.61463947243471,0.10655349374549265,0.05286613176710945,0.462890625,,
3.1168600000003353,1500,,,,-0.21875,0.35546875,-0.9609375,0.08285060060693432,-3.415299046455035,22.568712228429384,2.8499796019905412,3705,0,64.32036949421824,32.14407475732162,49.97495351796922,0.10624972323016127,0.053098249797244035,0.4609375,,
3.1249700000006704,1500,,,,-0.0625,-0.298828125,-1.029296875,0.08285060060693432,-3.415299046455035,22.569104480006096,2.8370008833112106,3703,0,64.02856934532029,32.12713135917273,50.176244272933815,0.10630575784289316,0.053340236731443565,0.4609375,,
3.131910000000149,1500,,,,-0.25,0.484375,-0.9453125,0.08285060060693432,-3.415299046455035,22.569314417277788,2.828611888514511,3697,0,63.8398310763339,32.07811782826926,50.24781126051718,0.10646818696592163,0.053497933639130864,0.462890625,,
3.1399000000003725,1500,,,,0.1875,-0.25,-0.8984375,0.08285060060693432,-3.415299046455035,22.569522532237407,2.8185611972460087,3690,0,63.61358044973384,32.01406935036497,50.32584099815265,0.10668119098130521,0.05368820654818722,0.4609375,,
3.1469749999996273,1500,,,,-0.3125,0.3203125,-0.91015625,0.08285060060693432,-3.415299046455035,22.569744631059493,2.809129364437151,3692,0,63.40133239095696,32.032797794068635,50.52385586558671,0.10661881826280657,0.053867938064692235,0.4609375,,
3.154790000000037,1500,,,,0.09375,-0.013671875,-1.01953125,0.08285060060693432,-3.415299046455035,22.57005422364777,2.795347178144744,3696,0,63.09113738464765,32.066220280049514,50.82523728261773,0.10650768991878708,0.05413278612545826,0.462890625,,
3.163230000000447,1500,,,,-0.4375,0.03125,-0.83984375,0.10934672713042305,-3.415299046455035,22.57034370135735,2.786263939633684,3697,0,62.88693476023023,42.3383157329076,67.32450213121598,0.08066686138391853,0.05430856281160128,0.462890625,,
3.172035000000149,1500,,,,0.15625,0.21875,-1.0625,0.10934672713042305,-4.9158811247067105,22.570652431207606,2.7772872607636883,3700,0,62.685185464317854,42.36892623058876,67.59001495609569,0.11602562448603265,0.07842173694301291,0.46484375,,
3.180195000000298,1500,,,,-0.1875,0.236328125,-0.90234375,0.10934672713042305,-4.9158811247067105,22.57091319788059,2.7688667872780326,3702,0,62.495851912146975,42.38965389205154,67.82794792787278,0.11596889036238356,0.0786593185675294,0.462890625,,
3.1875849999999626,1500,,,,0.1875,-0.015625,-1.171875,0.10934672713042305,-4.9158811247067105,22.571030751636023,2.7619349960266857,3701,0,62.33971972933804,42.374322627686766,67.97323249392915,0.1160108485485204,0.07885632380206581,0.462890625,,
3.1953950000004845,1500,,,,-0.25,-0.029296875,-0.86328125,0.10934672713042305,-4.9158811247067105,22.571250966230465,2.756301867327181,3699,0,62.213181186131465,42.351787100516404,68.07526362268298,0.1160725783079593,0.07901671367678842,0.462890625,,
3.203080000001006,1500,,,,0.0625,0.2734375,-1.26171875,0.10934672713042305,-4.9158811247067105,22.571616962291237,2.7485896517860993,3697,0,62.04011280663328,42.337131344084554,68.241544750315,0.11611275891023658,0.07923714033255445,0.462890625,,
3.2109199999999256,1500,,,,-0.03125,-0.1015625,-0.783203125,0.10934672713042305,-4.9158811247067105,22.571931770123033,2.743942377825993,3696,0,61.936080133437464,42.32695214247951,68.33973356287434,0.11614068284810687,0.07937023321649914,0.462890625,,
3.21894000000041,1500,,,,0.09375,-0.072265625,-1.00390625,0.10934672713042305,-4.9158811247067105,22.57212701435914,2.7368341158284752,3698,0,61.776167279711636,42.34924299944257,68.55272002824752,0.11607955128669989,0.07957568980361737,0.46484375,,
3.2271500000003726,1500,,,,-0.4375,-0.015625,-0.9140625,0.10934672713042305,-4.9158811247067105,22.572318585762503,2.730822154946887,3699,0,61.64098768251963,42.35834043840327,68.71781590614486,0.11605462050278613,0.07975020046767961,0.46484375,,
3.2363400000007823,1500,,,,0.0625,0.189453125,-1.119140625,0.10934672713042305,-4.9158811247067105,22.572374474346457,2.7250586633232747,3700,0,61.51104461309496,42.371506167848004,68.88438724194195,0.11601855986032752,0.07991867404671224,0.466796875,,
3.248464999999851,1500,,,,-0.0625,0.0390625,-0.85546875,0.10934672713042305,-4.9158811247067105,22.572731917972792,2.717674712571281,3696,0,61.345342727125285,42.31649203559213,68.98077368941146,0.11616939137043768,0.08013454495760829,0.466796875,,
3.2566850000005214,1500,,,,-0.14453125,0.015625,-0.9375,0.10934672713042305,-4.9158811247067105,22.573004920458157,2.7136218257698315,3708,0,61.25459882536505,42.460260215245924,69.31766925173864,0.11577604799844343,0.0802532580242952,0.466796875,,
3.2650000000009314,1500,,,,0.125,0.453125,-1.2578125,0.10934672713042305,-4.9158811247067105,22.57335120182192,2.7075736049139767,3697,0,61.11900988850623,42.330769824727746,69.25958045123419,0.11613020847627185,0.08043129516780947,0.46875,,
3.2729400000004096,1500,,,,-0.0625,-0.16796875,-0.86328125,0.10934672713042305,-4.9158811247067105,22.573285242018912,2.704020534986274,3695,0,61.038626836521736,42.30691960395204,69.31171587011882,0.11619567604367728,0.0805372168327573,0.46875,,
3.282210000000894,1500,,,,0.15625,0.162109375,-1.0625,0.10934672713042305,-4.9158811247067105,22.57336090249571,2.6980920397943042,3699,0,60.90500536242765,42.352989687573015,69.53942362461495,0.11606928249858833,0.08071391005474439,0.470703125,,
3.291709999999963,1500,,,,-0.25,-0.37890625,-0.75,0.10934672713042305,-4.9158811247067105,22.573492530837637,2.6962348018048585,3698,0,60.86343615992647,42.34198315405035,69.5688344686806,0.1160994539821517,0.08076903695988513,0.470703125,,
3.300855000000447,1500,,,,-0.0625,0.333984375,-1.1484375,0.10934672713042305,-4.9158811247067105,22.57391809348289,2.693069200375286,3697,0,60.793123549353176,42.33711760297053,69.64129350682292,0.1161127965962849,0.08086245347659907,0.47265625,,
3.3087900000000374,1500,,,,-0.15625,0.001953125,-0.763671875,0.10934672713042305,-4.9158811247067105,22.574215912505554,2.687034094140441,3699,0,60.65768780539009,42.359408354515836,69.83353617173609,0.11605169466873917,0.08104300217440669,0.47265625,,
3.3170449999999256,1500,,,,0.0625,-0.103515625,-0.998046875,0.10934672713042305,-4.9158811247067105,22.574305283249803,2.6808279177814316,3701,0,60.51782782785694,42.3802715325306,70.02939968876832,0.11599456414368034,0.08123029694142266,0.474609375,,
3.3250200000004844,1500,,,,-0.375,0.03125,-0.91796875,0.11410243477340022,-5.593439562888332,22.57448609151583,2.6769865991635684,3704,0,60.43159674999224,44.25955973199423,73.23910356877987,0.1263781112319778,0.09255819577345607,0.474609375,,
3.3327900000009687,1500,,,,0.15625,0.177734375,-1.0703125,0.11410243477340022,-5.593439562888332,22.574883124084874,2.671990611257114,3702,0,60.319875757781446,44.23697418976045,73.33730985686546,0.12644263459102156,0.09272962672120164,0.474609375,,
3.3412450000001117,1500,,,,-0.3125,-0.07421875,-0.79296875,0.11410243477340022,-5.593439562888332,22.57513599373009,2.6675784647340905,3698,0,60.22094661531782,44.19075837246243,73.38104240497285,0.12657487150919539,0.09288196013620256,0.47265625,,
3.349160000000149,1500,,,,0.15625,0.29296875,-1.10546875,0.11410243477340022,-5.593439562888332,22.57527770024034,2.6608098913799725,3702,0,60.06852220544921,44.237635616428065,73.64528706919808,0.12644074406207992,0.0931176489369488,0.474609375,,
3.3571800000006333,1500,,,,-0.3125,-0.046875,-0.96484375,0.11410243477340022,-5.593439562888332,22.57537796765409,2.6591176030678074,3697,0,60.03058494969814,44.17296363479282,73.584096626423,0.1266258612198404,0.09317649607404765,0.474609375,,
3.3658100000005216,1500,,,,0.25,0.12890625,-1.23828125,0.11410243477340022,-5.593439562888332,22.575411880680356,2.656128093170046,3696,0,59.96318571115992,44.16205167978513,73.64860815186141,0.12665714907101316,0.09328122741562947,0.47265625,,
3.374890000000596,1500,,,,-0.09375,-0.17578125,-0.751953125,0.11410243477340022,-5.593439562888332,22.575444148744474,2.6528185030218294,3698,0,59.88855595172523,44.190663299911826,73.78815968702416,0.12657514382454388,0.09339746924933495,0.474609375,,
3.3820050000008197,1500,,,,0.1875,0.015625,-1.138671875,0.11410243477340022,-5.593439562888332,22.575643242803835,2.6518417906758707,3700,0,59.86703420265654,44.20845664938252,73.84440742417938,0.12652419891628267,0.09343104493791894,0.4765625,,
3.390550000000745,1500,,,,-0.3125,0.197265625,-0.96875,0.11410243477340022,-5.593439562888332,22.57577031933499,2.648818777669976,3703,0,59.799124342219024,44.246201348645315,73.99138672237525,0.12641626608381348,0.09353714831806133,0.4765625,,
3.400100000000559,1500,,,,0.3125,-0.3515625,-1.1171875,0.11410243477340022,-5.593439562888332,22.575585324190563,2.646853647823209,3702,0,59.75427036707789,44.236176335144705,74.0301505873913,0.1264449151416476,0.09360736108946088,0.478515625,,
3.4072450000010432,1500,,,,-0.25,0.20703125,-0.896484375,0.11410243477340022,-5.593439562888332,22.575387113952665,2.6454688330874467,3700,0,59.72248300484574,44.20739863444329,74.02136751557433,0.12652722701783947,0.09365718371814001,0.4765625,,
3.4151750000007453,1500,,,,0.25,0.1796875,-1.11328125,0.11410243477340022,-5.593439562888332,22.57548134714633,2.6424313760439406,3700,0,59.65416024099419,44.20698393937353,74.1054500822469,0.126528413939284,0.09376445063163483,0.4765625,,
3.422335000000894,1500,,,,-0.1875,0.05859375,-0.884765625,0.11410243477340022,-5.593439562888332,22.57550399730324,2.6395391189413893,3699,0,59.58892593069961,44.1981685457124,74.17178251729815,0.12655365022881573,0.09386709821541941,0.4765625,,
3.4306399999996646,1500,,,,0.03125,-0.044921875,-1.037109375,0.11410243477340022,-5.593439562888332,22.575528667424212,2.63518765113505,3697,0,59.490754362241596,44.175431648454406,74.25596148851706,0.12661878682704472,0.09402199758351784,0.4765625,,
3.4378450000006704,1500,,,,-0.25,-0.03125,-0.75390625,0.11410243477340022,-5.593439562888332,22.575548798538698,2.634893819494221,3697,0,59.4841740009598,44.175862426818156,74.26490014992116,0.12661755211127884,0.09403239864771563,0.474609375,,
3.4452400000002235,1500,,,,0.1875,0.259765625,-1.04296875,0.11410243477340022,-5.593439562888332,22.57565466730592,2.6323625492404408,3699,0,59.427307870801265,44.19326815381391,74.3652535125651,0.12656768319148662,0.09412237847032924,0.4765625,,
3.453335000000894,1500,,,,-0.375,-0.171875,-0.75,0.11410243477340022,-5.593439562888332,22.575803108766948,2.6309869848087897,3701,0,59.39664415077165,44.21996639352346,74.44859389913694,0.12649126670769156,0.09417096946908349,0.4765625,,
3.462520000000484,1500,,,,0.03125,0.17578125,-1.17578125,0.11410243477340022,-5.593439562888332,22.575813942689305,2.628333205761633,3698,0,59.336761432666755,44.191907702747784,74.47644029729392,0.12657157958674278,0.09426600690426236,0.478515625,,
3.471635000000708,1500,,,,-0.125,-0.5625,-0.7890625,0.11558396337853162,-5.863127372332019,22.57575103551205,2.6248799344527716,3697,0,59.25863589831695,44.75057135915464,75.51738355223534,0.13101793327455688,0.09894131519315891,0.478515625,,
3.480620000001043,1500,,,,0.185546875,-0.22265625,-1.12109375,0.11558396337853162,-5.863127372332019,22.575616734476714,2.6237445614078876,3698,0,59.232651627512176,44.760029093006935,75.56647872947318,0.13099024936174677,0.09898471892162825,0.478515625,,
3.488140000000596,1500,,,,-0.5,0.37890625,-0.80078125,0.11558396337853162,-5.863127372332019,22.57569995301276,2.6238604952131492,3705,0,59.235487258495525,44.847170626792206,75.7099716781012,0.13073572513913106,0.09897998047599638,0.48046875,,
3.496260000000708,1500,,,,0.125,-0.072265625,-1.08203125,0.11558396337853162,-5.863127372332019,22.575714696584203,2.62216066283736,3703,0,59.19715101282237,44.821092305973174,75.71494833638991,0.13081179129475737,0.09904408019673176,0.48046875,,
3.505265000000596,1500,,,,-0.25,0.3828125,-0.9296875,0.11558396337853162,-5.863127372332019,22.575584250500306,2.6230917733336,3698,0,59.217829325686935,44.755674911155104,75.57804029763957,0.13100299311698385,0.09900949492906806,0.482421875,,
3.513175000000745,1500,,,,0.375,-0.0546875,-1.0234375,0.11558396337853162,-5.863127372332019,22.57566977513868,2.623028384519271,3697,0,59.21662261972254,44.75211901969432,75.57357552639162,0.1310134022872034,0.09901151252721495,0.482421875,,
3.521120000001043,1500,,,,-0.15625,0.212890625,-0.927734375,0.11558396337853162,-5.863127372332019,22.575587401068415,2.6210389031079413,3699,0,59.17149283871382,44.76948287101459,75.66056004881374,0.13096258871750388,0.09908702807808799,0.482421875,,
3.5285600000005215,1500,,,,-0.0625,-0.3046875,-1.015625,0.11558396337853162,-5.863127372332019,22.57560744932992,2.619020430232077,3702,0,59.12597713469452,44.80893015496406,75.78552157013002,0.1308472965557399,0.09916330615518225,0.482421875,,
3.5363700000001117,1500,,,,-0.25,0.2890625,-0.9296875,0.11558396337853162,-5.863127372332019,22.575626372933677,2.6172624179204393,3706,0,59.08633846689283,44.85720243494542,75.91806092381192,0.13070648756651898,0.09922983086212454,0.482421875,,
3.544110000000335,1500,,,,0.0625,0.44140625,-1.2421875,0.11558396337853162,-5.863127372332019,22.575554360695936,2.6174632407947445,3696,0,59.09068367968511,44.73399867848661,75.70397885558022,0.13106647171140778,0.09922253403115919,0.482421875,,
3.554855000000447,1500,,,,-0.0625,0.013671875,-0.9140625,0.11558396337853162,-5.863127372332019,22.575578787757916,2.615203719746741,3695,0,59.03973762118012,44.7210871365878,75.7474354366785,0.13110431225486022,0.0993081542799516,0.484375,,
3.564980000000447,1500,,,,0.3125,-0.52734375,-1.109375,0.11558396337853162,-5.863127372332019,22.575606759584524,2.615209049607579,3697,0,59.03993109804748,44.74470552272801,75.78719129671845,0.131035109156185,0.09930782884206177,0.484375,,
3.5729750000005587,1500,,,,-0.01953125,0.05078125,-0.98828125,0.11558396337853162,-5.863127372332019,22.575628502459743,2.61604813903398,3699,0,59.058930931382285,44.7752725236896,75.81456659910052,0.13094565464073876,0.09927588054623107,0.486328125,,
3.5807000000001863,1500,,,,-0.0625,-0.5,-0.78125,0.11558396337853162,-5.863127372332019,22.575580801208407,2.6180557902236994,3704,0,59.10413003426665,44.835214922477576,75.85800670187274,0.13077058696985552,0.09919996062767132,0.486328125,,
3.588085000000894,1500,,,,-0.15625,0.2890625,-1.10546875,0.11558396337853162,-5.863127372332019,22.575770871307853,2.6173768235423043,3702,0,59.08929945216263,44.804591586850776,75.82522047519547,0.13085996690689009,0.09922485842091723,0.486328125,,
3.5963849999997763,1500,,,,0.1875,-0.6796875,-0.890625,0.11558396337853162,-5.863127372332019,22.575782032162063,2.618233096295341,3697,0,59.10865969135641,44.743363600238226,75.69679947721966,0.13103903910122666,0.099192358665331,0.48828125,,
3.6044000000003726,1500,,,,-0.25,0.435546875,-0.974609375,0.11558396337853162,-5.863127372332019,22.575792725893322,2.617769736563359,3693,0,59.09822697677076,44.70061562451523,75.63782859693121,0.1311643540120842,0.09920986926793232,0.48828125,,
3.6129900000002233,1500,,,,0.125,-0.03515625,-0.83203125,0.11558396337853162,-5.863127372332019,22.57558586068001,2.617634141056178,3698,0,59.09462430326112,44.76180547960752,75.74598537068175,0.13098505097170687,0.09921591754680914,0.48828125,,
3.6210099999997767,1500,,,,-0.1875,0.68359375,-1.18359375,0.11608688483747068,-5.980513272182738,22.575606181738355,2.61560191076869,3701,0,59.04879866571629,44.986909545631654,76.18598610330584,0.13293896674801617,0.10128086273252196,0.490234375,,
3.6291250000009314,1500,,,,-0.09375,-0.40625,-1.021484375,0.11608688483747068,-5.980513272182738,22.57575600549556,2.6120827306393433,3699,0,58.96974239308239,44.970643474811304,76.26053913385708,0.1329870513312203,0.10141664232340786,0.490234375,,
3.637254999999888,1500,,,,0,0.25,-1.04296875,0.11608688483747068,-5.980513272182738,22.57576803319583,2.6099958459979753,3703,0,58.92266078685499,45.01137058037277,76.39059400795819,0.13286672223197182,0.10149767835190711,0.490234375,,
3.644725000000559,1500,,,,0.1875,-0.5390625,-0.6953125,0.11608688483747068,-5.980513272182738,22.575454220319177,2.611841467603408,3702,0,58.963507482611995,45.00226200313253,76.32222695775593,0.13289361480910547,0.10142736630697144,0.490234375,,
3.6527400000002235,1500,,,,-0.1875,0.478515625,-1.083984375,0.11608688483747068,-5.980513272182738,22.57535092241605,2.611269156892951,3701,0,58.950317569739866,44.98614194251269,76.31195860699619,0.13294123509913724,0.10145006030048309,0.490234375,,
3.6620999999996275,1500,,,,-0.0625,-0.265625,-0.896484375,0.11608688483747068,-5.980513272182738,22.574988476238662,2.613072337162755,3699,0,58.99007789902722,44.97028410894922,76.2336408267242,0.13298811405535677,0.10138168121119501,0.494140625,,
3.6705250000003726,1500,,,,0,0.671875,-1.17578125,0.11608688483747068,-5.980513272182738,22.57471471050728,2.616942920042551,3700,0,59.07673983364245,44.98361676156663,76.14437913845373,0.13294869783108246,0.10123296053613665,0.494140625,,
3.677515000000596,1500,,,,0.0625,-0.294921875,-0.84765625,0.11608688483747068,-5.980513272182738,22.57458143593525,2.6117434598991647,3703,0,58.95901542526499,45.011729663989605,76.34409994692903,0.13286566228018745,0.10143509400633548,0.494140625,,
3.6854599999999627,1500,,,,0,0.162109375,-1.16015625,0.11608688483747068,-5.980513272182738,22.57474771260396,2.6090665101284336,3705,0,58.89901823155345,45.04620296991669,76.48039699545363,0.13276398182054805,0.10153842036332705,0.494140625,,
3.6953650000002236,1500,,,,-0.0625,-0.484375,-0.796875,0.11608688483747068,-5.980513272182738,22.57481841296513,2.608314984796102,3702,0,58.88223714558791,45.00030046376266,76.42423699442365,0.13289940757170407,0.10156735820678414,0.49609375,,
3.7062200000006706,1500,,,,-0.09375,0.37109375,-1.0703125,0.11608688483747068,-5.980513272182738,22.575073241666146,2.6057770073339284,3702,0,58.825606792013055,45.00415151932198,76.50435579600743,0.13288803522081907,0.1016651352756591,0.494140625,,
3.7141550000002606,1500,,,,-0.125,-0.13671875,-0.810546875,0.11608688483747068,-5.980513272182738,22.575068492550912,2.6042670012344256,3704,0,58.79150592575733,45.02746938030476,76.58839261094286,0.13281921801269703,0.10172410415434853,0.49609375,,
3.722120000001043,1500,,,,0.125,-0.009765625,-1.029296875,0.11608688483747068,-5.980513272182738,22.57511515990142,2.603840546760974,3704,0,58.782000201149664,45.0337636955099,76.61148572931535,0.13280065402970143,0.10174055411040216,0.49609375,,
3.729355000000447,1500,,,,-0.1875,-0.3046875,-0.7578125,0.11608688483747068,-5.980513272182738,22.575208128042526,2.6033200576512843,3707,0,58.77049212538541,45.06190180533498,76.67436527364194,0.13271772900349915,0.10176047631902518,0.49609375,,
3.737070000000298,1500,,,,0.0625,0.34375,-1.01953125,0.11608688483747068,-5.980513272182738,22.575247447017166,2.6045610514149287,3700,0,58.79861022655521,44.98088882734065,76.4999183722644,0.13295676070650728,0.10171181341088499,0.498046875,,
3.7456300000008196,1500,,,,-0.25,-0.55078125,-0.87109375,0.11608688483747068,-5.980513272182738,22.575219013759437,2.6028539870224807,3698,0,58.759998817869466,44.949502034847974,76.49677150976798,0.13304960013897882,0.10177864861297457,0.498046875,,
3.7542150000007823,1500,,,,-0.03125,0.197265625,-1.06640625,0.11608688483747068,-5.980513272182738,22.575188523537708,2.6038995528321043,3701,0,58.78352330154029,44.99624264020771,76.54567149606135,0.13291139262456272,0.10173791797923809,0.49609375,,
3.7671900000004097,1500,,,,-0.15625,-0.0234375,-0.798828125,0.11608688483747068,-5.980513272182738,22.575094700191833,2.60479924845086,3699,0,58.80358970876669,44.963628813436436,76.4640883934558,0.13300779830287157,0.1017032004644971,0.49609375,,
3.7760300000002607,1500,,,,-0.01953125,-0.0546875,-0.99609375,0.11623319642653722,-6.025414873518698,22.574926095855748,2.6046609732215473,3700,0,58.80002897523614,45.03802715113284,76.59524652632531,0.13378505353485806,0.10247299157040084,0.498046875,,
3.784045000000857,1500,,,,-0.0625,0.515625,-1.1484375,0.11623319642653722,-6.025414873518698,22.574847764472633,2.606998360491947,3703,0,58.852591110335446,45.072314413931174,76.58509772225774,0.13368328100889207,0.10238147139898042,0.5,,
3.79153500000108,1500,,,,0.0625,-0.228515625,-0.9140625,0.11623319642653722,-6.025414873518698,22.574897380136967,2.6079150220387146,3703,0,58.87341399864162,45.067267278072244,76.5494375425758,0.1336982523555494,0.10234526018242668,0.498046875,,
3.799535000000149,1500,,,,0.0625,0.189453125,-1.095703125,0.11623319642653722,-6.025414873518698,22.574853407641733,2.6066792232383955,3702,0,58.8454013453522,45.06489617711574,76.58184861827799,0.1337052869230495,0.10239398042604402,0.498046875,,
3.8080449999999253,1500,,,,-0.125,-0.390625,-0.79296875,0.11623319642653722,-6.025414873518698,22.57491020602687,2.6069986410312995,3701,0,58.85276022851567,45.04499539667754,76.53845838627649,0.13376435762635516,0.10238117719751791,0.49609375,,
3.8159000000003727,1500,,,,-0.125,0.3359375,-1.125,0.11623319642653722,-6.025414873518698,22.575042681330803,2.6075699160833383,3699,0,58.86600215013554,45.02688504932041,76.49047566451179,0.13381815923794707,0.10235814652659954,0.49609375,,
3.8230949999997392,1500,,,,0,-0.052734375,-0.79296875,0.11623319642653722,-6.025414873518698,22.57499772276699,2.6070597396869504,3700,0,58.85436768655041,45.03867552668706,76.52562978257846,0.13378312756884733,0.1023783809148908,0.49609375,,
3.831245000001043,1500,,,,-0.0625,0.62109375,-1.0703125,0.11623319642653722,-6.025414873518698,22.575113528442564,2.608436678838116,3701,0,58.88575415652415,45.0537040690972,76.51036267505381,0.13373850159529038,0.10232381260673931,0.49609375,,
3.8393650000002237,1500,,,,0.125,-0.62890625,-0.94921875,0.11623319642653722,-6.025414873518698,22.57525539805338,2.6065339930436395,3702,0,58.84317059666805,45.05955392855782,76.57567305033913,0.13372113898579704,0.10239786218895353,0.498046875,,
3.847390000000596,1500,,,,-0.3125,0.23046875,-1.01953125,0.11623319642653722,-6.025414873518698,22.575194793048407,2.606642232223314,3702,0,58.84545614822783,45.06183609965274,76.57657710417766,0.13371436663596428,0.102393885066352,0.498046875,,
3.8575650000004096,1500,,,,0.15625,-0.2578125,-0.873046875,0.11623319642653722,-6.025414873518698,22.575039853069125,2.606114035556578,3700,0,58.833128214332554,45.03156818132978,76.54117594644487,0.13380424259834797,0.10241534075100947,0.498046875,,
3.874030000000261,1500,,,,-0.28125,-0.197265625,-0.83984375,0.11623319642653722,-6.025414873518698,22.574772684708172,2.6063539618891345,3702,0,58.83784822553576,45.055605451562904,76.57588917741671,0.1337328577239147,0.10240712492445728,0.5,,
3.8816450000004843,1500,,,,0.125,0.46484375,-1.22265625,0.11623319642653722,-6.025414873518698,22.57476696857268,2.604607206567458,3705,0,58.7984007329254,45.10024846886395,76.70318904372704,0.13360048066428035,0.10247582924725093,0.5,,
3.8895250000003725,1500,,,,0,-0.234375,-0.78515625,0.11623319642653722,-6.025414873518698,22.574762118447726,2.603126002396308,3703,0,58.76495026844244,45.068668252153515,76.69311051277447,0.13369409630227505,0.10253416102615891,0.5,,
3.8976900000004098,1500,,,,0.125,0.091796875,-1.15625,0.11623319642653722,-6.025414873518698,22.574637670479603,2.604554030952087,3701,0,58.79686354193048,45.04463572057027,76.61060983031362,0.13376542571898536,0.10247850838542986,0.501953125,,
3.9055950000006705,1500,,,,-0.25,-0.4140625,-0.7578125,0.11623319642653722,-6.025414873518698,22.574508729951106,2.603698759065756,3698,0,58.777220366692774,45.008953425889075,76.5755051788639,0.13387147256023263,0.10251275640338231,0.501953125,,
3.9135750000001863,1500,,,,-0.1875,0.640625,-1.10546875,0.11623319642653722,-6.025414873518698,22.574581431220167,2.6045802829062876,3697,0,58.79730969061845,44.994876672023466,76.52540041164968,0.1339133545678797,0.10247773078774211,0.50390625,,
3.9214850000003354,1500,,,,0.125,-0.255859375,-0.96484375,0.11643981427982435,-6.04606436023251,22.57465041921571,2.6041510469441413,3696,0,58.78779952359859,45.06927684168171,76.66433717014702,0.13415046310751738,0.10284556335206083,0.501953125,,
3.930894999999553,1500,,,,-0.1875,0.376953125,-1.05859375,0.11643981427982435,-6.04606436023251,22.57461254972247,2.6036608355662265,3700,0,58.77663457379423,45.118203512650766,76.7621416908529,0.13400498888519008,0.1028650994408613,0.501953125,,
3.937804999999702,1500,,,,-0.1875,-0.15625,-0.892578125,0.11643981427982435,-6.04606436023251,22.574554577073684,2.6071368428778054,3704,0,58.854952949444595,45.160055788722964,76.73110507371348,0.13388079918497994,0.1027282166961543,0.501953125,,
3.945530000000261,1500,,,,0,0.50390625,-1.1484375,0.11643981427982435,-6.04606436023251,22.57411028423044,2.616944937037126,3700,0,59.075203616434564,45.122049042557975,76.38069152588606,0.13399356830027853,0.10234521406796321,0.501953125,,
3.9526450000004845,1500,,,,0.09375,-0.271484375,-0.810546875,0.11643981427982435,-6.04606436023251,22.573841751345427,2.626028899171888,3699,0,59.279560804366035,45.10761146799894,76.0930257510894,0.13403645556630323,0.1019923946499146,0.5,,
3.9602150000007823,1500,,,,-0.25,0.8046875,-1.23046875,0.11643981427982435,-6.04606436023251,22.573936493501012,2.6241297534903856,3704,0,59.23693840599843,45.16361196433026,76.24231295477774,0.1338702574321918,0.1020657806248183,0.50390625,,
3.968600000000559,1500,,,,0.03125,-0.33203125,-0.935546875,0.11643981427982435,-6.04606436023251,22.573907112738592,2.622957390625997,3712,0,59.21039649666245,45.26033512677065,76.439844697412,0.13358417129033529,0.10211153307465712,0.501953125,,
3.977445000000298,1500,,,,0.03125,0.44140625,-1.0703125,0.11643981427982435,-6.04606436023251,22.57391230161799,2.6232518000020257,3715,0,59.217056078307266,45.30300251389963,76.50330076184805,0.13345835871204095,0.10210004955729873,0.501953125,,
3.9865550000006333,1500,,,,0,-0.69140625,-0.86328125,0.11643981427982435,-6.04606436023251,22.574099229406283,2.622697878193073,3705,0,59.205042151083745,45.171030265047726,76.2959177527093,0.13384827232755883,0.10212076776845665,0.50390625,,
3.994600000000559,1500,,,,-0.1875,0.36328125,-1.068359375,0.11643981427982435,-6.04606436023251,22.574394346397586,2.6206984817370285,3713,0,59.16068098973711,45.27876781579776,76.53523769216328,0.13352979005146512,0.10219734220573543,0.50390625,,
4.0018349999999625,1500,,,,0,-0.224609375,-0.744140625,0.11643981427982435,-6.04606436023251,22.5744707942372,2.6201314636415947,3708,0,59.14808120303915,45.21252928644118,76.43955368769946,0.13372541761439719,0.10221911239145744,0.50390625,,
4.010709999999963,1500,,,,-0.125,0.50390625,-1.19140625,0.11643981427982435,-6.04606436023251,22.57462129347134,2.6190921611841333,3698,0,59.125013671431205,45.08680172290136,76.2567294672559,0.1340983198895094,0.1022589930182786,0.50390625,,
4.018264999999665,1500,,,,0,-0.40234375,-0.953125,0.11643981427982435,-6.04606436023251,22.574316425297337,2.6235002021394753,3707,0,59.22372370492804,45.1957985773662,76.31367254539153,0.13377492046927444,0.10208855475478001,0.505859375,,
4.026004999999889,1500,,,,0.09375,0.3046875,-1.080078125,0.11643981427982435,-6.04606436023251,22.574053068546757,2.6292658741850783,3709,0,59.353187375172936,45.231701552776094,76.20770434259143,0.13366873570250273,0.10186587490264323,0.505859375,,
4.033490000000223,1500,,,,-0.125,-0.30078125,-0.73046875,0.11643981427982435,-6.04606436023251,22.574148584743128,2.633590256056952,3711,0,59.451057751561336,45.25406041830753,76.11985745891803,0.13360269342342979,0.10169817979519002,0.50390625,,
4.041655000000261,1500,,,,-0.15625,0.24609375,-1.14453125,0.11643981427982435,-6.04606436023251,22.57414142364945,2.63111728484562,3709,0,59.39521369031358,45.2250642298145,76.14260715622274,0.1336883531996547,0.10179379759043661,0.50390625,,
4.049595000000671,1500,,,,0.3125,-0.3046875,-0.8515625,0.11643981427982435,-6.04606436023251,22.574101691972572,2.6289519270323756,3710,0,59.346228144136106,45.23245903439524,76.21791721040417,0.13366649723012003,0.10187782019690009,0.501953125,,
4.058740000001155,1500,,,,-0.21875,0.404296875,-0.955078125,0.11643981427982435,-6.04606436023251,22.574132779784037,2.6249757449445115,3711,0,59.256551010089915,45.245589854393934,76.35542245226141,0.1336277055883129,0.10203199911522046,0.501953125,,
4.068295000000857,1500,,,,-0.09375,-0.404296875,-0.873046875,0.11652840834741593,-6.05491849356392,22.57424608238589,2.6224126814969835,3711,0,59.19898920168236,45.284939632182244,76.4961365774389,0.13370711196136661,0.10228077497971615,0.50390625,,
4.075754999999888,1500,,,,0.09375,0.341796875,-1.05078125,0.11652840834741593,-6.05491849356392,22.57432239234245,2.6172913208921758,3710,0,59.08357807249979,45.26853915404835,76.61780249412215,0.13375555312176296,0.10248056551575295,0.50390625,,
4.086465000000782,1500,,,,-0.21875,-0.076171875,-0.892578125,0.11652840834741593,-6.05491849356392,22.574101716962602,2.625051184716869,3710,0,59.25817245603179,45.27618966827329,76.40497131744517,0.13373295186557685,0.10217862351486677,0.505859375,,
4.094465000000782,1500,,,,0.125,-0.0703125,-1.1171875,0.11652840834741593,-6.05491849356392,22.573737124395578,2.63361871291759,3711,0,59.450616511290704,45.28769929993178,76.17700531554767,0.1336989643360629,0.10184786716911481,0.50390625,,
4.102764999999665,1500,,,,-0.125,-0.00390625,-0.787109375,0.11652840834741593,-6.05491849356392,22.573750167676067,2.6317492246088103,3712,0,59.408449500294495,45.297020720716844,76.24676473081881,0.13367145117327042,0.10192015688835483,0.50390625,,
4.111020000000484,1500,,,,0.15625,-0.107421875,-1.099609375,0.11652840834741593,-6.05491849356392,22.573794473440014,2.6277049262266754,3705,0,59.317270941486825,45.206682714287965,76.21166988427676,0.13393857124690572,0.10207682176640863,0.50390625,,
4.117825000001117,1500,,,,-0.5,0.0234375,-0.83984375,0.11652840834741593,-6.05491849356392,22.57383710720339,2.624869396808409,3709,0,59.25337419123624,45.25571221480724,76.37659936250635,0.13379346379135776,0.10218689781314531,0.505859375,,
4.124719999999739,1500,,,,0.21875,0.234375,-1.017578125,0.11652840834741593,-6.05491849356392,22.57409991917802,2.6230730133012368,3717,0,59.2135122975615,45.3527308428316,76.591860680251,0.1335072526183052,0.10225568892344307,0.505859375,,
4.132419999999925,1500,,,,-0.3125,-0.4140625,-0.7265625,0.11652840834741593,-6.05491849356392,22.57412480924638,2.6203497565485874,3707,0,59.15210244820618,45.235338634183215,76.47291771884433,0.1338537231373431,0.10236184755843009,0.5078125,,
4.1405,1500,,,,0,0.20703125,-1.173828125,0.11652840834741593,-6.05491849356392,22.574217344299672,2.6172087091748755,3705,0,59.08143823630763,45.209912605933866,76.52134740712994,0.13392900239247982,0.10248427719965283,0.5078125,,
