Time (s),ESC signal (µs),Servo 1 (µs),Servo 2 (µs),Servo 3 (µs),AccX (g),AccY (g),AccZ (g),Torque (N·m),Thrust (N),Voltage (V),Current (A),Motor Electrical Speed (RPM),Motor Optical Speed (RPM),Electrical Power (W),Mechanical Power (W),Motor Efficiency (%),Propeller Mech. Efficiency (N/W),Overall Efficiency (N/W),Vibration (g),App message,90% settling time (s),Max acceleration (RPM/s),
0,1000,,,,-0.0625,0.046875,-0.95703125,-0.0023674544497887004,-0.039079528047824434,22.68101426527526,0.05546447824000254,0,0,1.2579906221775468,0,0,0,0,0.05859375,,
0,1200,,,,-0.0625,0.05078125,-0.953125,-0.0023674544497887004,-0.039079528047824434,22.68070279397869,0.05476508788121194,0,0,1.2421106817198921,0,0,0,0,0.05859375,,
0.007969999998807906,1200,,,,-0.0625,0.048828125,-0.955078125,-0.002427719380951573,-0.039079528047824434,22.68066679170197,0.05486380202404216,0,0,1.2443476126332043,0,0,0,0,0.05859375,,
0.01637999999988824,1200,,,,-0.0625,0.048828125,-0.953125,-0.002427719380951573,-0.039079528047824434,22.68069794540644,0.05525222192233663,0,0,1.253158956233081,0,0,0,0,0.05859375,,
0.023535000000149013,1200,,,,-0.0625,0.046875,-0.953125,-0.002427719380951573,-0.039079528047824434,22.68066398112179,0.0545826597926677,0,0,1.2379709659533829,0,0,0,0,0.05859375,,
0.030929999999701977,1200,,,,-0.0625,0.05078125,-0.955078125,-0.002427719380951573,-0.039079528047824434,22.680808790524633,0.05439177908998637,0,0,1.2336495413164368,0,0,0,0,0.05859375,,
0.03888499999977648,1200,,,,-0.0625,0.05078125,-0.95703125,-0.002427719380951573,-0.039079528047824434,22.680769043533818,0.05418470360018883,0,0,1.2289507480482182,0,0,0,0,0.05859375,,
0.047145000000484286,1200,,,,0.0625,0.0546875,-1.03125,-0.002427719380951573,-0.039079528047824434,22.680730998204613,0.06720472302882367,0,0,1.5242522448255964,0,0,0,0,0.05859375,,
0.05564999999944121,1200,,,,-0.1875,-0.068359375,-0.78125,-0.002427719380951573,-0.039079528047824434,22.679089237128853,0.12304109877170422,0,0,2.790460058877865,0,0,0,0,0.0625,,
0.06278999999910594,1200,,,,0.0625,0.09375,-1.0703125,-0.002427719380951573,-0.039079528047824434,22.677914047450194,0.16478819170555534,0,0,3.737052447533329,0,0,0,0,0.064453125,,
0.0724550000000745,1200,,,,-0.125,-0.015625,-0.9140625,-0.002427719380951573,-0.04108095591388847,22.67611852746144,0.2187140961578375,0,0,4.959586768101722,0,0,0,0,0.064453125,,
0.08068999999947846,1200,,,,-0.03125,0.078125,-1.005859375,-0.002427719380951573,-0.04108095591388847,22.675583863970296,0.23402920991033763,0,0,5.306748975940569,0,0,0,0,0.06640625,,
0.08816000000014901,1200,,,,-0.09375,-0.015625,-0.919921875,-0.002427719380951573,-0.04108095591388847,22.675344892811815,0.23981977392114082,0,0,5.437996085778025,0,0,0,0,0.06640625,,
0.09620999999903143,1200,,,,0,0.123046875,-0.94140625,-0.002427719380951573,-0.04108095591388847,22.67516248249886,0.24853423985712794,0,0,5.63555427122472,0,0,0,0,0.068359375,,
0.10411499999929219,1200,,,,0,0.01953125,-1.00390625,-0.002427719380951573,-0.04108095591388847,22.674554578817936,0.26021918632354213,0,0,5.90035414274875,0,0,0,0,0.068359375,,
0.11116500000003725,1200,,,,-0.03125,-0.037109375,-0.904296875,-0.002427719380951573,-0.04108095591388847,22.674270667221457,0.26719650343858364,0,0,6.058485840301614,0,0,0,0,0.068359375,,
0.1215,1200,,,,-0.0625,0.171875,-0.921875,-0.002427719380951573,-0.04108095591388847,22.673925690899388,0.2749580602452095,0,0,6.234378626113718,0,0,0,0,0.068359375,,
0.1289550000000745,1200,,,,-0.03125,-0.033203125,-0.88671875,-0.002427719380951573,-0.04108095591388847,22.673962838988196,0.2805441274486736,0,0,6.3610471204675925,0.00005235558472826645,0.0008230655069321018,784.652795439206,0.006458206508438607,0.0703125,,
0.13793999999947845,1200,,,,0,0.16796875,-1.046875,-0.002427719380951573,-0.04108095591388847,22.67396487857888,0.2840019041770356,1,0,6.439449200759629,0.00015333638140908531,0.002381203370483876,267.9139519034873,0.006379576052722391,0.072265625,,
0.1487599999997765,1200,,,,-0.0625,-0.0546875,-0.916015625,-0.002427719380951573,-0.04108095591388847,22.673999267283328,0.28317908125476476,1,0,6.420802280880502,0.00018727501962455097,0.00291669189350695,219.36164255247488,0.006398103245791728,0.072265625,,
0.1660449999999255,1200,,,,-0.09375,0.05078125,-0.990234375,-0.002452798139538745,-0.04108095591388847,22.673987600415245,0.27417146465354797,1,0,6.2165603899422335,0.0002091216782977194,0.003363945094719214,196.4452286740111,0.006608309633789338,0.07421875,,
0.17375999999884517,1200,,,,0.0625,0.01171875,-0.95703125,-0.002452798139538745,-0.04108095591388847,22.673890852413713,0.27065572606021004,1,0,6.136818391269989,0.0002106093188566202,0.003431897531076123,195.05763627608422,0.006694178203534378,0.07421875,,
0.18097999999951572,1200,,,,-0.0625,-0.048828125,-0.931640625,-0.002452798139538745,-0.04108095591388847,22.6738956109957,0.26785012893250676,1,0,6.073205862807398,0.00021116363439188378,0.0034769714572835406,194.5455998244906,0.006764294977298596,0.07421875,,
0.18895499999914317,1200,,,,-0.09375,0.03515625,-0.9609375,-0.002452798139538745,-0.04108095591388847,22.673998405482262,0.2658057705224869,1,0,6.026879616994852,0.00021141862436307738,0.003507928443881808,194.3109602460498,0.006816289444051054,0.07421875,,
0.19700999999977648,1200,,,,0,0.0546875,-1.0390625,-0.002452798139538745,-0.04108095591388847,22.673965787433115,0.26395472263523595,269,0,5.984900350462738,0.06913768406023629,1.1552019250394159,0.5941905123419615,0.006864100236975908,0.07421875,,
0.20608499999903143,1200,,,,0.0625,0.064453125,-1.00390625,-0.002452798139538745,-0.04108095591388847,22.674077208601265,0.262350471022626,523,0,5.94855483567993,0.13427384619787133,2.2572515494433296,0.3059490517114548,0.0069060397102639875,0.076171875,,
0.213964999999851,1200,,,,-0.125,0.09375,-0.9609375,-0.002452798139538745,-0.041844075648590495,22.674073393103075,0.2615221837845003,609,0,5.929773189054351,0.1564346580798693,2.6381221185428965,0.26748596610366593,0.007056606435778967,0.08203125,,
0.22282999999914319,1200,,,,-0.3125,0.12890625,-0.97265625,-0.002452798139538745,-0.041844075648590495,22.674167448251094,0.25978028296361444,643,0,5.890301635671045,0.16515693726943734,2.8038791132403875,0.25335947941639286,0.007103893524770819,0.0859375,,
0.23071499999891967,1200,,,,0.03125,0.943359375,-1.416015625,-0.002452798139538745,-0.041844075648590495,22.674487360646925,0.25435466460621187,657,0,5.767361627735139,0.16880587561166968,2.926916786349676,0.24788281507955864,0.007255323725039728,0.09375,,
0.23890499999932946,1200,,,,-0.5,-1.54296875,-0.365234375,-0.002452798139538745,-0.041844075648590495,22.67469259509651,0.24944399836074363,662,0,5.6560659825216195,0.17004290484647408,3.006381208634072,0.2460795155573829,0.007398088314014918,0.1171875,,
0.246214999999851,1200,,,,0.6875,1.3515625,-1.1796875,-0.002452798139538745,-0.041844075648590495,22.674854572197788,0.24351383006401736,664,0,5.521640683020479,0.17053074298466958,3.0884071016983468,0.2453755546725801,0.007578196056339674,0.134765625,,
0.2550949999997392,1200,,,,0.03125,0.3671875,-1.24609375,-0.002452798139538745,-0.041844075648590495,22.67491135796514,0.2380202461070993,685,0,5.397087981879523,0.17584571463627102,3.258159126304129,0.23795902979576777,0.00775308384615557,0.146484375,,
0.2639799999995157,1200,,,,-0.0625,-0.150390625,-0.951171875,-0.002452798139538745,-0.041844075648590495,22.675192733670006,0.23219701053582276,714,0,5.265111966081786,0.18345344614641337,3.4843218402235907,0.22809097636244416,0.00794742370497587,0.158203125,,
0.27226499999966475,1200,,,,-0.0625,1.046875,-1.36328125,-0.002452798139538745,-0.041844075648590495,22.675429371918977,0.227510498037941,724,0,5.1588982296294414,0.1860132165105659,3.605677185919735,0.22495216433297724,0.008111048868586832,0.16796875,,
0.2801049999995157,1200,,,,-0.09375,-0.38671875,-0.7734375,-0.002452798139538745,-0.041844075648590495,22.675652178681656,0.22203674235834361,728,0,5.034827940605352,0.18701482064388236,3.71442327026963,0.22374737737107417,0.008310924651689183,0.171875,,
0.28804999999981373,1200,,,,0.0625,0.2421875,-1.25,-0.002452798139538745,-0.041844075648590495,22.67557143665204,0.21745664634769132,730,0,4.930953718631853,0.18741242869993313,3.8007338822059102,0.22327268228078528,0.008486000485155758,0.177734375,,
0.2990399999991059,1200,,,,0.3125,0.92578125,-0.51171875,-0.002452798139538745,-0.041844075648590495,22.67448481642411,0.24745765245143822,730,0,5.61097478321809,0.1875698000962293,3.342909340053236,0.22308535610275826,0.007457541205450126,0.185546875,,
0.3071349999997765,1200,,,,-0.01953125,-0.51953125,-0.767578125,0.018134884155123553,-0.041844075648590495,22.673330833496184,0.29171283542059195,770,0,6.614101625868305,1.4618733027341366,22.102371348765306,0.02862359930257271,0.006326494211237216,0.197265625,,
0.3144799999995157,1200,,,,-0.1875,0.5625,-1.25,0.018134884155123553,-0.041844075648590495,22.67179127187694,0.3356426075402854,813,0,7.60961914010186,1.544770031066318,20.300227943413738,0.02708757601913505,0.005498839676229892,0.201171875,,
0.3233099999995902,1200,,,,0.03125,0.05859375,-1,0.018134884155123553,-0.041844075648590495,22.670191415789166,0.3884117791278744,831,0,8.805369380976135,1.578698467110611,17.928815916812813,0.026505426159800474,0.004752109064157375,0.205078125,,
0.33182000000029804,1200,,,,-0.3125,-0.19140625,-0.765625,0.018134884155123553,-0.041844075648590495,22.66893600370843,0.4347493376833159,838,0,9.855304913597715,1.591541490561852,16.149084219260892,0.02629153930119569,0.004245842824290168,0.20703125,,
0.3414099999992177,1200,,,,0.125,0.234375,-1.0078125,0.018134884155123553,-0.041844075648590495,22.66690743925636,0.48081910474989276,841,0,10.898682142391927,1.5972472908059565,14.655416773678013,0.026197618796696378,0.003839370219435265,0.212890625,,
0.34879999999981376,1200,,,,-0.1875,-0.25390625,-1.501953125,0.018134884155123553,-0.041844075648590495,22.666153676708,0.507671024076935,997,0,11.506949448939535,1.8933717340521803,16.454158788597713,0.0221002959408484,0.00363641778685721,0.236328125,,
0.35645999999996275,1200,,,,-0.4375,-0.77734375,-0.37109375,0.018134884155123553,-0.041844075648590495,22.66570160454725,0.5203467269955359,1053,0,11.794023644983628,1.9995951430392391,16.954308412716557,0.02092627389812047,0.0035479050159771476,0.259765625,,
0.3639499999992549,1200,,,,0.5,0.33203125,-1.04296875,0.018134884155123553,-0.1310694147960015,22.665231611598337,0.530364719866382,1078,0,12.020839214392018,2.046970876003688,17.028518887041937,0.06403091335226468,0.010903516173735849,0.271484375,,
0.3719899999992922,1200,,,,0.28125,0.875,-1.623046875,0.018134884155123553,-0.1310694147960015,22.665073924733043,0.5380724536046211,1088,0,12.195451937811228,2.0659433091624195,16.94027674986847,0.06344289033232961,0.010747401200412185,0.2890625,,
0.37895000000018625,1200,,,,-0.625,-1.14453125,-0.1015625,0.018134884155123553,-0.1310694147960015,22.664911411689374,0.5451601230060585,1217,0,12.356005893117999,2.3104500205689886,18.69900387354019,0.05672895480497058,0.010607749456400313,0.298828125,,
0.38717499999981375,1200,,,,-0.15625,0.3203125,-1.193359375,0.018134884155123553,-0.1310694147960015,22.664671067787154,0.5477005344267706,1276,0,12.413452456433989,2.4237979961139238,19.525575214634593,0.0540760471813844,0.0105586592655025,0.302734375,,
0.3945449999999255,1200,,,,0.375,-0.64453125,-0.7578125,0.018134884155123553,-0.1310694147960015,22.664831700171035,0.5449518963489823,1300,0,12.351243015438735,2.468227614128791,19.983637363814882,0.05310264500961148,0.0106118400093147,0.30859375,,
0.4021149999992922,1200,,,,-0.125,-0.181640625,-0.841796875,0.018134884155123553,-0.1310694147960015,22.664969486610143,0.5424037414278532,1309,0,12.29356424888547,2.4849912422342135,20.213757311753604,0.052744417190846604,0.01066162848645658,0.3125,,
0.4100649999994785,1200,,,,-0.0625,0.130859375,-1.064453125,0.018134884155123553,-0.1310694147960015,22.665118350336382,0.5364559319712641,1397,0,12.158837187868702,2.6524010965359937,21.814595059981453,0.049415382525356634,0.010779765595247385,0.3125,,
0.41807500000018627,1200,,,,0.0625,0.12109375,-1.0859375,0.018134884155123553,-0.1310694147960015,22.665128857442863,0.530018947027896,1431,0,12.012947731273446,2.7179380496227967,22.625071801046442,0.04822384189889527,0.010910678854848171,0.310546875,,
0.42636500000022354,1200,,,,-0.125,-0.048828125,-0.908203125,0.018134884155123553,-0.1310694147960015,22.665272124250563,0.5245948884847516,1445,0,11.890085902497772,2.7443605410867904,23.081082538775245,0.04775954647128722,0.011023420341182524,0.310546875,,
0.43443499999959023,1200,,,,0,0.3046875,-1.068359375,0.018134884155123553,-0.1310694147960015,22.665471714327232,0.5184559451348408,1474,0,11.751048559578527,2.7986354440819854,23.816048669127138,0.046833329104425454,0.011153848452882451,0.30859375,,
0.4430599999995902,1200,,,,-0.0625,-0.61328125,-0.8515625,0.018134884155123553,-0.1310694147960015,22.665720453026633,0.5116865522345645,1498,0,11.59774435252165,2.8445780924126667,24.526994266727232,0.04607692618655909,0.011301285044061487,0.3125,,
0.454625,1200,,,,-0.03125,0.19140625,-1.0234375,0.018134884155123553,-0.1310694147960015,22.665963520785517,0.5044764913946254,1506,0,11.434445751044448,2.8601404715920684,25.0133721726811,0.04582621591415859,0.011462681939264903,0.310546875,,
0.4708099999995902,1200,,,,0,-0.0859375,-0.91796875,0.03124838057538767,-0.1310694147960015,22.666537916300598,0.4869059699175976,1531,0,11.036472628810344,5.00894227806826,45.38535496380051,0.02616708429040821,0.011876024088878648,0.306640625,,
0.4787949999999255,1200,,,,-0.09375,0.26171875,-0.94921875,0.03124838057538767,-0.1310694147960015,22.66681310352203,0.4794528305228259,1537,0,10.867667701415517,5.030884275140878,46.29221663159249,0.026052957616945222,0.012060491578973258,0.306640625,,
0.48621999999973925,1200,,,,0.0625,-1.1875,-0.7109375,0.03124838057538767,-0.1310694147960015,22.66712682487746,0.472934315824025,1540,0,10.720062116619825,5.038722425698625,47.00273534690487,0.02601243008098994,0.012226553668266372,0.3125,,
0.4940599999995902,1200,,,,-0.4375,0.73046875,-1.0078125,0.03124838057538767,-0.1310694147960015,22.66735950993854,0.46590244840109524,1551,0,10.560778294468216,5.073821562771397,48.04401173187291,0.025832484090041477,0.012410961686853728,0.31640625,,
0.502339999999851,1200,,,,0.21875,0.1328125,-1.076171875,0.03124838057538767,-0.1310694147960015,22.66758824475411,0.4585739874362007,1555,0,10.394766326958843,5.088191054268553,48.94954724544718,0.025759530921317424,0.012609173758535848,0.318359375,,
0.5098100000005216,1200,,,,-0.03125,0.0625,-0.99609375,0.03124838057538767,-0.1310694147960015,22.667868838071566,0.45124169350889237,1557,0,10.228687522728862,5.093814559539098,49.79929779084838,0.02573109273295984,0.012813903494926017,0.318359375,,
0.517894999999553,1200,,,,-0.25,0.36328125,-1.01953125,0.03124838057538767,-0.39315258838319794,22.668071362150908,0.4459404910975824,1562,0,10.10861087547262,5.1114174788328395,50.5649840695234,0.07691654810261594,0.03889284029491504,0.3203125,,
0.5252699999995529,1200,,,,0.375,-1.3828125,-0.71875,0.03124838057538767,-0.39315258838319794,22.66806798076665,0.4387927664482531,1566,0,9.946584259317666,5.125909146502994,51.5343660986051,0.07669909417950085,0.03952639198877789,0.330078125,,
0.5332099999990314,1200,,,,-0.5,0.62109375,-0.96484375,0.03124838057538767,-0.39315258838319794,22.668327813351663,0.43289216569274475,1568,0,9.812941519754883,5.1314100136062155,52.29227141806499,0.07661687281677595,0.04006470308538214,0.333984375,,
0.5411599999992177,1200,,,,0.28125,0.076171875,-1.14453125,0.03124838057538767,-0.39315258838319794,22.668576325527603,0.4269291517516938,1569,0,9.677876062076027,5.1339500184660025,53.04831334412341,0.07657896687133504,0.04062385030159828,0.3359375,,
0.5491899999994785,1200,,,,-0.0625,-0.068359375,-0.966796875,0.03124838057538767,-0.39315258838319794,22.6688406881176,0.42506674316863785,1573,0,9.635770282706853,5.14861400985854,53.43230337380154,0.07636085898659162,0.040801365832556426,0.3359375,,
0.5572549999989569,1200,,,,-0.15625,-0.0078125,-0.849609375,0.03124838057538767,-0.39315258838319794,22.668865122794276,0.42466420931095233,1575,0,9.626655683348055,5.154476488863152,53.54379192951956,0.0762740094425981,0.04083999691224683,0.33984375,,
0.565160000000149,1200,,,,0,-0.26171875,-0.79296875,0.03124838057538767,-0.39315258838319794,22.6688880960304,0.42322427499029264,1576,0,9.594023729278542,5.156756261257384,53.749671741172214,0.07624028914008331,0.04097890514731534,0.341796875,,
0.5732399999992922,1200,,,,0.03125,0.388671875,-1.15625,0.03124838057538767,-0.39315258838319794,22.66913573469841,0.4161909496627307,1582,0,9.434689129457476,5.177936836388118,54.8819019401635,0.07592842493178084,0.041670963715770615,0.34375,,
0.580410000000149,1200,,,,-0.25,0.0546875,-0.875,0.03124838057538767,-0.39315258838319794,22.66946789646374,0.4100278288292511,1588,0,9.295112702301438,5.196512202480032,55.90585471000683,0.07565701244684196,0.042296699456463256,0.341796875,,
0.5889950000001117,1200,,,,-0.0625,-0.015625,-1.01953125,0.03124838057538767,-0.39315258838319794,22.669842716936724,0.4038017261103224,1590,0,9.15412161974857,5.203527221249405,56.84354477029907,0.07555501713870139,0.04294814999344486,0.33984375,,
0.5972749999994412,1200,,,,-0.125,0.26953125,-0.951171875,0.03124838057538767,-0.39315258838319794,22.670110194084238,0.39707398352829126,1591,0,9.001710961790353,5.206607196487421,57.84019525385735,0.07551032247034767,0.043675317953666415,0.341796875,,
0.6078749999990687,1200,,,,-0.0625,-0.2890625,-0.927734375,0.027924814390329792,-0.39315258838319794,22.670592575611042,0.39253857413227145,1591,0,8.899082084364018,4.653196170589297,52.28849589740403,0.08449086906503832,0.044179004604753574,0.349609375,,
0.6163749999990686,1200,,,,0.15625,0.033203125,-1.10546875,0.027924814390329792,-0.39315258838319794,22.67050818163743,0.3866028415829676,1591,0,8.764482883150945,4.653362545427934,53.09340673565204,0.08448784820548357,0.044857476889937686,0.3515625,,
0.6255699999993667,1200,,,,-0.09375,0.01171875,-0.95703125,0.027924814390329792,-0.39315258838319794,22.67051619741712,0.3826755332591375,1591,0,8.67545187510651,4.653406118237171,53.63877507740818,0.08448705709187795,0.04531782252303384,0.3515625,,
0.6330849999999627,1200,,,,-0.125,0.091796875,-1.025390625,0.027924814390329792,-0.39315258838319794,22.67059609919901,0.37938279558936955,1591,0,8.600834125791577,4.651230945555154,54.07883558185792,0.0845265679097069,0.045710983682877876,0.3515625,,
0.6415449999999255,1200,,,,0.125,-0.77734375,-0.64453125,0.027924814390329792,-0.39315258838319794,22.670667688792182,0.3745596193669597,1590,0,8.491516660308832,4.650459117810659,54.765942338050166,0.08454059662141192,0.04629945439792603,0.35546875,,
0.6493899999996647,1200,,,,-0.15625,0.43359375,-1.17578125,0.027924814390329792,-0.39315258838319794,22.670730801635127,0.3709129282765962,1589,0,8.40886714780491,4.648129184838385,55.27652064347044,0.08458297365434946,0.04675452489290764,0.357421875,,
0.6574149999991059,1200,,,,-0.0625,-0.03515625,-0.9296875,0.027924814390329792,-0.39315258838319794,22.67092397921373,0.36742268315306614,1588,0,8.329811718001896,4.64299442607307,55.73948827725488,0.08467651526252568,0.04719825629834344,0.357421875,,
0.665375,1200,,,,0.1875,0.01171875,-1.03125,0.027924814390329792,-0.49713823330971035,22.67087909229544,0.364020121271194,1587,0,8.252656156501962,4.640977695685874,56.23616939413403,0.10711928949191817,0.0602397850924679,0.35546875,,
0.673429999999702,1200,,,,-0.15625,-0.1171875,-0.95703125,0.027924814390329792,-0.49713823330971035,22.671033630470763,0.3592818177172323,1587,0,8.145290172284039,4.640171023760511,56.96753492649791,0.10713791167697456,0.06103382725410097,0.359375,,
0.6811899999994785,1200,,,,0,-0.37109375,-0.828125,0.027924814390329792,-0.49713823330971035,22.671080639961417,0.35502295569398995,1586,0,8.048754057575895,4.639031145708926,57.63663683253478,0.10716423703461443,0.06176586211399746,0.361328125,,
0.6881399999996647,1200,,,,-0.0625,0.42578125,-1.08984375,0.027924814390329792,-0.49713823330971035,22.671120009782783,0.3520081912163712,1586,0,7.980419947492917,4.63860856508386,58.124868059620084,0.10717399977480589,0.06229474596332345,0.365234375,,
0.695609999999404,1200,,,,-0.125,-0.0078125,-0.953125,0.027924814390329792,-0.49713823330971035,22.67135849332119,0.3490302862856074,1586,0,7.912990745407532,4.638408822858698,58.617644985250294,0.10717861497239027,0.06282558002462404,0.361328125,,
0.703804999999702,1200,,,,0.1875,0.140625,-1.30859375,0.027924814390329792,-0.49713823330971035,22.67145567871225,0.34553833249814164,1586,0,7.833856990527755,4.638329509995285,59.2087590519419,0.10718044766729298,0.06346021301012018,0.361328125,,
0.7113349999999627,1200,,,,-0.09375,-0.240234375,-0.703125,0.027924814390329792,-0.49713823330971035,22.67165544323484,0.34314404969827567,1585,0,7.779643662155558,4.63478268840364,59.57577094372276,0.10726246875685554,0.06390244269516644,0.365234375,,
0.7195799999991432,1200,,,,-0.25,0.12890625,-0.93359375,0.027924814390329792,-0.49713823330971035,22.67173696833516,0.34124719045310675,1584,0,7.736666543136209,4.633170710714439,59.88587830277991,0.10729978762924779,0.0642574202387926,0.3671875,,
0.7275,1200,,,,0.15625,0.232421875,-1.14453125,0.027924814390329792,-0.49713823330971035,22.671749927325497,0.3394224782646878,1584,0,7.695301546930075,4.6325259568133665,60.199407762798366,0.10731472158910105,0.06460282683893474,0.369140625,,
0.7356299999998882,1200,,,,-0.3125,0.05859375,-0.90234375,0.027924814390329792,-0.49713823330971035,22.671762373846267,0.3376831431612756,1583,0,7.655871979405951,4.629366229129736,60.46817712708078,0.10738796818050973,0.06493554681256376,0.3671875,,
0.7432099999990315,1200,,,,0.03125,0.28515625,-1.0390625,0.027924814390329792,-0.49713823330971035,22.671774042632634,0.3363579651079188,1583,0,7.625831782366447,4.628127452115277,60.69013301364847,0.1074167119322728,0.06519134535058396,0.365234375,,
0.7506099999994039,1200,,,,-0.09375,-0.6328125,-0.73828125,0.027924814390329792,-0.49713823330971035,22.671783842813035,0.3349637307700483,1582,0,7.594225299200757,4.627670508058761,60.936702899054005,0.10742731844109889,0.06546266587087309,0.37109375,,
0.7730799999991432,1200,,,,-0.01953125,0.087890625,-1.00390625,0.035650965654327314,-0.49713823330971035,22.672004994351486,0.3311460433046808,1582,0,7.507744747663456,5.90695276952873,78.67812463079648,0.08416153856421864,0.06621672020275178,0.375,,
0.7806650000000372,1200,,,,0.09375,0.365234375,-1.138671875,0.035650965654327314,-0.49713823330971035,22.671934227242854,0.3301740172640537,1582,0,7.485683602955172,5.906804428409,78.90801617740205,0.08416365216337707,0.06641186826456996,0.375,,
0.7894799999995157,1200,,,,-0.3125,-0.88671875,-0.6484375,0.035650965654327314,-0.49713823330971035,22.672003299977355,0.32952887152551374,1582,0,7.471079662664262,5.90675138063622,79.06154996786387,0.08416440802628859,0.06654168550686097,0.380859375,,
0.7966150000002236,1200,,,,0,0.267578125,-1.005859375,0.035650965654327314,-0.49713823330971035,22.672100796103177,0.32955809288255167,1582,0,7.4717743000047445,5.906730687903618,79.05392281321811,0.08416470287494209,0.06653549924673108,0.3828125,,
0.803660000000149,1200,,,,-0.125,-0.109375,-0.953125,0.035650965654327314,-0.49713823330971035,22.672096476682523,0.3278927835301096,1582,0,7.434016822202623,5.906723033112586,79.45533584846643,0.08416481194780857,0.0668734339993615,0.3828125,,
0.811589999999851,1200,,,,-0.1875,0.1171875,-0.91015625,0.035650965654327314,-0.49713823330971035,22.672091712517954,0.32651741255399414,1582,0,7.402832723158216,5.906719464999071,79.78998966869983,0.08416486278983769,0.06715513532468688,0.380859375,,
0.8191599999992177,1200,,,,0.1875,0.15625,-1.26953125,0.035650965654327314,-0.4874042354134041,22.67200074029744,0.3242655221289577,1584,0,7.351748157760666,5.913155163522674,80.43196035327486,0.08242710058077359,0.06629773285948182,0.380859375,,
0.8264249999998138,1200,,,,-0.15625,-0.2890625,-0.806640625,0.035650965654327314,-0.4874042354134041,22.672174265383724,0.32451983795087785,1585,0,7.357570318596389,5.915941099952124,80.40617817813414,0.08238828399041169,0.06624527042323758,0.38671875,,
0.8345349999992177,1200,,,,0.03125,0.38671875,-1.078125,0.035650965654327314,-0.4874042354134041,22.67216568985758,0.32222112112506424,1585,0,7.305450646919124,5.917240865845275,80.99761605179978,0.08237018679207994,0.0667178876389992,0.388671875,,
0.8424749999996275,1200,,,,-0.0625,0.03125,-0.92578125,0.035650965654327314,-0.4874042354134041,22.67235204676743,0.3221835061060384,1584,0,7.304657874097947,5.915109401396175,80.97722717953621,0.08239986825913304,0.06672512851583673,0.388671875,,
0.850554999999702,1200,,,,-0.125,-0.001953125,-0.9453125,0.035650965654327314,-0.4874042354134041,22.67223517974253,0.3209597682382832,1584,0,7.276875348734014,5.914252119601759,81.2746108208475,0.08241181227259278,0.06697987969495722,0.38671875,,
0.8584599999999627,1200,,,,0.0625,0.48046875,-1.1953125,0.035650965654327314,-0.4874042354134041,22.672223984100413,0.3201473479747546,1584,0,7.258452381199372,5.91392307735512,81.47636392398452,0.08241639754830656,0.0671498839994961,0.38671875,,
0.8675999999996274,1200,,,,-0.15625,-0.4921875,-0.69140625,0.035650965654327314,-0.4874042354134041,22.67221170815865,0.3185333106551043,1584,0,7.221854655273193,5.913406067501305,81.88209746347505,0.08242360322455508,0.06749017512523815,0.388671875,,
0.8756449999995529,1200,,,,-0.21875,0.57421875,-1.19140625,0.035650965654327314,-0.4874042354134041,22.672005462946476,0.3171870118515576,1584,0,7.191265665474183,5.912527987080388,82.2181833090507,0.08243584410567582,0.06777725341916781,0.396484375,,
0.8834949999991805,1200,,,,-0.0625,-0.087890625,-0.943359375,0.035650965654327314,-0.4874042354134041,22.672267800989733,0.31675578848340813,1584,0,7.181572064009488,5.912180638640597,82.32432378238661,0.08244068732065574,0.06786873835828157,0.39453125,,
0.8914699999997392,1200,,,,0.125,0.1640625,-1.08203125,0.035650965654327314,-0.4874042354134041,22.6724498647605,0.31550198137939744,1584,0,7.15320285505699,5.912044637086445,82.64891625304458,0.08244258379848857,0.06813790204045891,0.392578125,,
0.900769999999553,1200,,,,-0.15625,-0.068359375,-0.953125,0.035650965654327314,-0.4874042354134041,22.67249836325121,0.31535195041254555,1584,0,7.149816579576516,5.914228792901288,82.71860861151752,0.08241213731846563,0.06817017331684795,0.396484375,,
0.909519999999553,1200,,,,0,0.171875,-0.9921875,0.04042974750124223,-0.4874042354134041,22.672471078258944,0.3147343835793132,1584,0,7.135806209035636,6.707882201588431,94.00314421508041,0.07266141842770979,0.06830401795332305,0.400390625,,
0.9212299999995157,1200,,,,0.09375,-0.125,-1.041015625,0.04042974750124223,-0.4874042354134041,22.67244758693598,0.3157168958175743,1584,0,7.15807477273408,6.708186413472218,93.71495306286073,0.07265812327971954,0.06809152612794465,0.40234375,,
0.9306699999989941,1200,,,,0,0.048828125,-1.0390625,0.04042974750124223,-0.4874042354134041,22.672262950112838,0.3126269505981455,1583,0,7.087960429253091,6.70397509885658,94.58256949613114,0.07270376578465143,0.06876508979957235,0.400390625,,
0.9390099999997765,1200,,,,-0.1875,-0.189453125,-0.8203125,0.04042974750124223,-0.4874042354134041,22.672417973486,0.31214306401831377,1583,0,7.077038014947807,6.7029714855376765,94.71436314712392,0.07271465147435387,0.06887121905858502,0.40625,,
0.9475549999997019,1200,,,,-0.0625,0.451171875,-1.1015625,0.04042974750124223,-0.4874042354134041,22.672397119987227,0.31434296392517125,1583,0,7.126908509985301,6.703653012976798,94.06116275499409,0.07270725893328558,0.06838929315993272,0.408203125,,
0.9550299999993295,1200,,,,-0.125,-0.15234375,-0.98046875,0.04042974750124223,-0.4874042354134041,22.672184287329078,0.31847193507381377,1584,0,7.220454402335807,6.705900480298384,92.87366288372425,0.07268289126052117,0.06750326340344032,0.408203125,,
0.9624399999994785,1200,,,,-0.125,0.03125,-0.96484375,0.04042974750124223,-0.45397643522498116,22.67199665983395,0.32074530663033135,1584,0,7.271936520580288,6.706758425832372,92.22795615516709,0.06768939723196284,0.06242854760079157,0.40625,,
0.9694349999995903,1200,,,,0.125,0.30859375,-1.30859375,0.04042974750124223,-0.45397643522498116,22.671996835257428,0.3195130262154238,1584,0,7.243998319179612,6.7071060837675605,92.58845444523992,0.06768588860159648,0.062669318133745,0.40625,,
0.9772999999998138,1200,,,,-0.15625,-0.384765625,-0.73046875,0.04042974750124223,-0.45397643522498116,22.672095245126325,0.3158739936187423,1589,0,7.16152526878255,6.725437355601098,93.9106838722977,0.06750139971891927,0.06339102609941032,0.408203125,,
0.9856399999996647,1200,,,,-0.1875,0.48046875,-1,0.04042974750124223,-0.45397643522498116,22.672188819878585,0.3143361361076511,1592,0,7.126688230743721,6.741724075310398,94.5982742198174,0.0673383292098141,0.06370089732094335,0.412109375,,
0.9936100000003353,1200,,,,0.0625,0.119140625,-1.0859375,0.04042974750124223,-0.45397643522498116,22.67217971877254,0.31096599903023536,1594,0,7.050277016441144,6.748132292774599,95.71442763224839,0.06727438282605477,0.06439129046508593,0.412109375,,
1.001589999999851,1200,,,,-0.0625,0.052734375,-0.943359375,0.04042974750124223,-0.45397643522498116,22.672170846835197,0.3099787170905491,1594,0,7.0278904327597225,6.750681130809559,96.05558304298565,0.06724898220315424,0.06459640194571346,0.408203125,,
1.0095,1200,,,,0,0.6875,-1.03515625,0.04042974750124223,-0.45397643522498116,22.672226993789167,0.30906639327542157,1594,0,7.0072234244920715,6.747444154206377,96.29269320316378,0.06728124380873472,0.06478692168401755,0.41015625,,
1.0176699999999255,1200,,,,-0.125,-0.662109375,-0.767578125,0.04042974750124223,-0.45397643522498116,22.67241476497049,0.3094667172900792,1593,0,7.0163577703545394,6.746129060626585,96.14858992981056,0.06729435964612504,0.06470257790204469,0.4140625,,
1.0273599999994039,1200,,,,0.03125,0.412109375,-1.154296875,0.04042974750124223,-0.45397643522498116,22.672502779218227,0.3073603539757689,1593,0,6.968628479737118,6.74558790758959,96.79936198642143,0.06729975821888017,0.06514573657428022,0.416015625,,
1.0354349999995902,1200,,,,0,-0.265625,-1,0.04042974750124223,-0.45397643522498116,22.672366479956956,0.30611901697914845,1589,0,6.94044253943542,6.7294404380418245,96.95981776097581,0.0674612457610342,0.06541030094918278,0.4140625,,
1.0427549999998882,1200,,,,0.03125,0.140625,-1.0703125,0.04042974750124223,-0.45397643522498116,22.672348943309906,0.305396471856936,1588,0,6.924055375996177,6.723973202301217,97.11033256047328,0.06751609823037545,0.06556510752337343,0.412109375,,
1.055304999999702,1200,,,,-0.1875,-0.31640625,-0.775390625,0.04042974750124223,-0.45397643522498116,22.672595061114787,0.30443055263525637,1588,0,6.902230644130559,6.7213996998186065,97.38010863972323,0.06754194892430408,0.06577242323987369,0.41796875,,
1.064,1200,,,,0.03125,0.3515625,-1.08203125,0.04446963831186176,-0.45397643522498116,22.672726241220154,0.30529866501137237,1586,0,6.921953053612824,7.384577852755175,106.68344317794659,0.06147628805289164,0.06558502083281742,0.419921875,,
1.073164999999106,1200,,,,-0.03125,-0.072265625,-0.83984375,0.04446963831186176,-0.45397643522498116,22.672829534561213,0.30477191786244767,1585,0,6.910041740616568,7.381559099976517,106.82365428544975,0.061501429315444396,0.06569807423254058,0.419921875,,
1.0801499999994413,1200,,,,0,0.265625,-1.119140625,0.04446963831186176,-0.45397643522498116,22.67278704123258,0.3047366593214917,1585,0,6.909229380452825,7.38046638382693,106.82039888134705,0.061510534919554036,0.06570579875511788,0.416015625,,
1.0877599999997765,1200,,,,-0.3125,0.07421875,-0.75390625,0.04446963831186176,-0.45397643522498116,22.672751708595566,0.30412221210114326,1584,0,6.895287404038059,7.37756333622755,106.99428325361838,0.06153473911850114,0.06583865307182421,0.416015625,,
1.0959349999995902,1200,,,,-0.09375,-0.21875,-0.87109375,0.04446963831186176,-0.45397643522498116,22.672816749645715,0.3047988780320437,1584,0,6.910649107118142,7.376233540447869,106.73720262905786,0.06154583267131977,0.06569230012812748,0.421875,,
1.1043749999990686,1200,,,,0.1875,-0.0546875,-1.0546875,0.04446963831186176,-0.45397643522498116,22.67295898348192,0.3053483470036685,1584,0,6.92315054728818,7.375774476573837,106.53783167351389,0.06154966324781941,0.06557367662657648,0.421875,,
1.1121399999996646,1200,,,,-0.1875,0.00390625,-0.8359375,0.04446963831186176,-0.43926926462940197,22.673051312920975,0.30363812328864953,1583,0,6.884402749882576,7.373824905266567,107.10914473143424,0.05957142599299653,0.06380644488541788,0.419921875,,
1.1207299999995157,1200,,,,0.0625,0.40625,-1.130859375,0.04446963831186176,-0.43926926462940197,22.6731970106413,0.30301662817525665,1583,0,6.8703557081178355,7.371492495079838,107.29418982440563,0.05959027495756059,0.06393690272985031,0.419921875,,
1.128609999999404,1200,,,,-0.375,-0.65234375,-0.765625,0.04446963831186176,-0.43926926462940197,22.673138050611833,0.3067100320515758,1583,0,6.954078898212958,7.370578123940321,105.98927955554825,0.059597667542877625,0.0631671384606068,0.423828125,,
1.1373300000000746,1200,,,,0.0625,0.015625,-0.939453125,0.04446963831186176,-0.43926926462940197,22.67288919182613,0.3094215142777189,1583,0,7.015479706785768,7.37022296578004,105.05657879177022,0.05960053945028936,0.06261428768791333,0.427734375,,
1.1453499999996275,1200,,,,-0.0625,0.04296875,-1.05078125,0.04446963831186176,-0.43926926462940197,22.672840418047663,0.3139067854144654,1585,0,7.117158451844505,7.379877651346412,103.69134959238993,0.05952256736251718,0.06171975341023348,0.427734375,,
1.1534349999995903,1200,,,,0,0.072265625,-1.060546875,0.04446963831186176,-0.43926926462940197,22.672804728379898,0.31321301291675596,1585,0,7.101417480249139,7.382886350819262,103.96355898456837,0.05949831051925339,0.06185656115150564,0.42578125,,
1.160824999999255,1200,,,,-0.25,0.6328125,-0.921875,0.04446963831186176,-0.43926926462940197,22.672907274107732,0.311754725449338,1586,0,7.068385982377755,7.384409707817053,104.47094607209027,0.05948603639426946,0.06214562500188124,0.42578125,,
1.1681849999995901,1200,,,,-0.09375,-0.515625,-0.75,0.04446963831186176,-0.43926926462940197,22.672782281776993,0.3093224007374697,1589,0,7.013199446797225,7.399716653483464,105.51128211336915,0.05936298444922389,0.06263464599313608,0.431640625,,
1.176035000000149,1200,,,,0.125,0.6328125,-1.4296875,0.04446963831186176,-0.43926926462940197,22.673075630404266,0.30819594250951654,1591,0,6.987749913501994,7.4069651834834715,105.9992883999963,0.059304891240600524,0.06286276270142829,0.43359375,,
1.1836650000000373,1200,,,,0.03125,-0.095703125,-0.9296875,0.04446963831186176,-0.43926926462940197,22.673028520754606,0.3068742951890477,1591,0,6.957769647107746,7.409596720475722,106.49384926900814,0.0592838289586696,0.0631336314521422,0.431640625,,
1.1926949999993668,1200,,,,-0.125,0.15234375,-1.04296875,0.04446963831186176,-0.43926926462940197,22.673081503162127,0.3074324773374283,1591,0,6.9704416153905555,7.408058418760905,106.27817902389573,0.05929613939287421,0.06301885717821762,0.427734375,,
1.2007400000002235,1200,,,,-0.09375,0.287109375,-0.9609375,0.04446963831186176,-0.43926926462940197,22.67322414084354,0.3061033162997534,1590,0,6.940349100719835,7.404875816488656,106.69313184434255,0.059321624766652814,0.06329209932449105,0.427734375,,
1.2094699999997391,1200,,,,-0.09375,-0.228515625,-0.876953125,0.04594102136569568,-0.43926926462940197,22.673376337554522,0.3052785223448012,1590,0,6.921694824896225,7.648504342892569,110.50045597766211,0.057432047487506,0.06346267435100157,0.43359375,,
1.218125,1200,,,,-0.03125,0.12109375,-1.11328125,0.04594102136569568,-0.43926926462940197,22.673440115376682,0.3045763649812337,1589,0,6.905793971961113,7.64413536871817,110.69162213287666,0.057464872538365595,0.06360879956930686,0.43359375,,
1.227044999998994,1200,,,,-0.25,0.05078125,-0.84765625,0.04594102136569568,-0.43926926462940197,22.673367995224492,0.30368063353117686,1587,0,6.885462757075283,7.634544407083829,110.87917655554543,0.05753706327542207,0.06379662197403113,0.431640625,,
1.234625,1200,,,,0.03125,0.419921875,-1.15234375,0.04594102136569568,-0.43926926462940197,22.673366148433907,0.30370273060536973,1586,0,6.885963211294732,7.630675373113974,110.8149308813867,0.05756623668949794,0.0637919853984826,0.431640625,,
1.2416549999993294,1200,,,,-0.0625,-0.666015625,-0.72265625,0.04594102136569568,-0.43926926462940197,22.673135657279943,0.3028800893737019,1586,0,6.867241354259017,7.629446135932493,111.09914072265367,0.057575511616835495,0.06396589867297589,0.435546875,,
1.2497450000001118,1200,,,,-0.0625,0.7265625,-1.1484375,0.04594102136569568,-0.43926926462940197,22.673177365579445,0.3019961392220468,1585,0,6.847212028301691,7.625486782858302,111.36630136966339,0.05760540633508885,0.06415301042435421,0.439453125,,
1.2584949999991804,1200,,,,0.125,0.021484375,-0.9921875,0.04594102136569568,-0.43926926462940197,22.673316330561594,0.3023128328122518,1585,0,6.854434489140366,7.6238865553536375,111.22560974843849,0.05761749751128429,0.06408541292871732,0.4375,,
1.2669150000000373,1200,,,,-0.25,0.140625,-0.859375,0.04594102136569568,-0.46762651882414447,22.673317324809663,0.30119974349105,1585,0,6.829197362323851,7.623215623701807,111.62681672898331,0.06134242318559352,0.06847459430649984,0.435546875,,
1.2766950000002981,1200,,,,0,0.333984375,-1.1015625,0.04594102136569568,-0.46762651882414447,22.67313922971768,0.3006550275074733,1584,0,6.816793298791541,7.622506460677122,111.81953341651733,0.061348130203172604,0.06859919295294516,0.435546875,,
1.2849550000000745,1200,,,,-0.125,-0.52734375,-0.744140625,0.04594102136569568,-0.46762651882414447,22.673076832555175,0.30012876917133535,1584,0,6.804842643081903,7.622003541235427,112.00852012330196,0.06135217811094698,0.0687196667654841,0.44140625,,
1.2923449999997392,1200,,,,0.15625,0.251953125,-1.14453125,0.04594102136569568,-0.46762651882414447,22.67295947060399,0.3005329747239779,1584,0,6.813971955496803,7.621833778614135,111.85596049402042,0.061353544620225534,0.06862759663208066,0.443359375,,
1.2996949999993668,1200,,,,-0.0625,-0.12109375,-0.84765625,0.04594102136569568,-0.46762651882414447,22.673093686074857,0.3009771089434281,1584,0,6.824082188438304,7.620482752457193,111.67044214924888,0.06136442191583731,0.06852592127574612,0.439453125,,
1.3086199999991803,1200,,,,0.0625,0.23046875,-1.171875,0.04594102136569568,-0.46762651882414447,22.67293920002347,0.3027590136499316,1584,0,6.864436708743975,7.619174065429551,110.9948913320766,0.061374962011421216,0.06812307238968028,0.4375,,
1.3163999999994411,1200,,,,-0.21875,-0.419921875,-0.6796875,0.04594102136569568,-0.46762651882414447,22.672888702931726,0.30587329301898997,1584,0,6.935031129818783,7.6186455794003605,109.85740996377389,0.06137921943613368,0.06742962072851776,0.44140625,,
1.3239199999989941,1200,,,,-0.125,0.52734375,-1.046875,0.04594102136569568,-0.46762651882414447,22.67307772378536,0.3083840117166239,1584,0,6.992014666423749,7.618476078203559,108.95966958976977,0.06138058504403824,0.06688008265625169,0.4453125,,
1.33225,1200,,,,0.0625,0.125,-1.048828125,0.04594102136569568,-0.46762651882414447,22.67301879063937,0.3088611333413301,1587,0,7.00281427994615,7.6342973786834225,109.01756170437993,0.06125338005955295,0.06677694140244149,0.443359375,,
1.3462649999996648,1200,,,,-0.25,-0.0546875,-0.87109375,0.04594102136569568,-0.46762651882414447,22.67293327515661,0.30736555769909213,1588,0,6.9688787807928145,7.64103928536694,109.64517429154732,0.0611993344569865,0.06710211693062983,0.44140625,,
1.3615099999997764,1200,,,,-0.03125,0.064453125,-0.951171875,0.04666061439158147,-0.46762651882414447,22.673084482968186,0.3050546591285325,1591,0,6.91653005834428,7.772503624214951,112.37576586308624,0.060164207240414935,0.06760998866187067,0.447265625,,
1.3779150000000373,1200,,,,-0.09375,-0.037109375,-0.87890625,0.04666061439158147,-0.46762651882414447,22.67302605599831,0.30586890989824894,1592,0,6.934973763842797,7.77692569106952,112.14066492387393,0.06012999704512211,0.06743017850510569,0.4453125,,
1.3855300000002608,1200,,,,0,0.31640625,-1.126953125,0.04666061439158147,-0.46762651882414447,22.673120160801428,0.30502056610402756,1590,0,6.915767946792292,7.767753134393353,112.31945886785044,0.06020100159383672,0.06761743922322343,0.4453125,,
1.4037999999998136,1200,,,,0.03125,0.45703125,-1.060546875,0.04666061439158147,-0.46762651882414447,22.67322903901839,0.30271852244266884,1589,0,6.86360639369586,7.76355205313815,113.11184831736387,0.06023357808686586,0.06813131348173664,0.451171875,,
1.4213349999999627,1200,,,,0,0.2890625,-1.111328125,0.04666061439158147,-0.5391035783497817,22.67331016184103,0.30136135844659917,1586,0,6.832859550853494,7.750997320177801,113.43709412568887,0.06955280154030749,0.07889867695033219,0.447265625,,
1.4471349999997765,1200,,,,0.01953125,-0.01953125,-1,0.04666061439158147,-0.5391035783497817,22.673096753549967,0.3008872461335609,1584,0,6.822045643495429,7.739954945104476,113.45504485863766,0.06965203055746015,0.07902374251391843,0.453125,,
1.4557000000001863,1200,,,,-0.041015625,-0.009765625,-0.947265625,0.04666061439158147,-0.5391035783497817,22.673035079675685,0.3003357244257949,1583,0,6.809522415585858,7.73551164056794,113.5984459477312,0.0696920389237758,0.07916907316669723,0.451171875,,
1.471769999999553,1200,,,,-0.15625,-0.654296875,-0.693359375,0.04666061439158147,-0.5391035783497817,22.67284674008643,0.299964563794047,1583,0,6.8010505823593075,7.732621950757944,113.69746272458205,0.06971808291971901,0.07926769133994073,0.455078125,,
1.4798449999997392,1200,,,,0.03125,0.455078125,-1.109375,0.04666061439158147,-0.5391035783497817,22.672738570393413,0.29973838441127876,1582,0,6.795890029269008,7.732217396913341,113.77784754626244,0.06972173060796104,0.07932788435774171,0.45703125,,
1.4882749999994411,1200,,,,-0.0625,-0.08203125,-0.919921875,0.04666061439158147,-0.5391035783497817,22.672800160430914,0.29867832971964975,1582,0,6.771874081984912,7.7322907439399495,114.18243532480936,0.06972106924100015,0.07960921479387054,0.455078125,,
1.4970400000000372,1200,,,,0.3125,-0.00390625,-1.19140625,0.04666061439158147,-0.5391035783497817,22.672683009581753,0.2980216569385947,1583,0,6.756950557759079,7.732809749423167,114.44230179460908,0.069716389749534,0.0797850411574676,0.453125,,
1.5050549999987706,1200,,,,-0.25,-0.130859375,-0.78125,0.04666061439158147,-0.5391035783497817,22.672649780296336,0.29704847100251913,1583,0,6.7348759508126275,7.732984814206745,114.82000367465841,0.06971481146055805,0.08004654908079394,0.458984375,,
1.515035000000149,1200,,,,0,-0.01171875,-0.8828125,0.0469213933943512,-0.5391035783497817,22.67268705009269,0.29814026913759967,1583,0,6.759641019187206,7.776277158984256,115.03979481915287,0.06932669287988699,0.07975328524392626,0.458984375,,
1.523214999999851,1200,,,,0,0.19140625,-1.060546875,0.0469213933943512,-0.5391035783497817,22.672807609737355,0.29903113489671446,1582,0,6.779875390834625,7.774759766330469,114.67408054196362,0.0693402233062473,0.07951526352218345,0.458984375,,
1.5340449999999255,1200,,,,-0.125,0.140625,-1.015625,0.0469213933943512,-0.5391035783497817,22.672900204725504,0.30036330002469175,1582,0,6.810107126621862,7.774309583837493,114.15840366807741,0.06934423855084938,0.0791622757654332,0.455078125,,
1.5428250000001862,1200,,,,-0.0625,0.251953125,-0.986328125,0.0469213933943512,-0.5391035783497817,22.672841928920626,0.3022952521237289,1582,0,6.853892467264512,7.774905221198524,113.43780571891,0.06933892607203736,0.07865655624517638,0.455078125,,
1.5499349999995902,1200,,,,-0.0625,-0.294921875,-0.83203125,0.0469213933943512,-0.5391035783497817,22.672923258383737,0.3023750898486484,1583,0,6.855727207385293,7.77703811369999,113.43855842633617,0.06931990951672201,0.07863550605821006,0.4609375,,
1.5582299999995157,1200,,,,0,0.123046875,-1.107421875,0.0469213933943512,-0.5391035783497817,22.672878215336844,0.3011876491133546,1583,0,6.828790888310695,7.777991738010048,113.89998412931584,0.0693114105168371,0.0789456855784824,0.4609375,,
1.5671949999993666,1200,,,,-0.1875,-0.046875,-0.9296875,0.0469213933943512,-0.6472785052023615,22.672829111226218,0.3003759740431792,1583,0,6.810373128599124,7.778396894416944,114.21396078509638,0.08321489813241015,0.09504303112030882,0.458984375,,
1.5760200000004843,1200,,,,0.09375,0.373046875,-1.072265625,0.0469213933943512,-0.6472785052023615,22.67285644959797,0.2994020225087005,1584,0,6.788299077059067,7.782933820933323,114.65219390871574,0.08316638944833536,0.09535209009718316,0.45703125,,
1.5849799999995158,1200,,,,-0.15625,-0.619140625,-0.755859375,0.0469213933943512,-0.6472785052023615,22.67280967710404,0.298590341367893,1584,0,6.769881981255763,7.784588167579122,114.98853582873151,0.083148715290825,0.09561149027332028,0.4609375,,
1.5927749999994412,1200,,,,0,0.4921875,-1.17578125,0.0469213933943512,-0.6472785052023615,22.672900672199344,0.2984344285635201,1584,0,6.766374155985262,7.785151341183366,115.0564713347537,0.0831427003580862,0.09566105720444162,0.46484375,,
1.601875,1200,,,,0.0625,-0.0859375,-0.83984375,0.0469213933943512,-0.6472785052023615,22.672788293474028,0.2985004585959691,1584,0,6.767837703251317,7.781140747075629,114.97233072444266,0.08318555418055211,0.09564037046742482,0.4609375,,
1.6115299999993296,1200,,,,-0.03125,0.0625,-1.009765625,0.0469213933943512,-0.6472785052023615,22.67296133051713,0.2992689282938458,1583,0,6.78531283863167,7.77953751506126,114.65259893057613,0.08320269732605878,0.09539405486466739,0.458984375,,
1.619089999999851,1200,,,,-0.1875,-0.080078125,-0.859375,0.0469213933943512,-0.6472785052023615,22.673063984898313,0.2992976025086252,1583,0,6.785993692204721,7.778921499013956,114.63201782739412,0.08320928618246237,0.09538448377072767,0.462890625,,
1.6263250000001863,1200,,,,0,0.30078125,-1.0234375,0.0469213933943512,-0.6472785052023615,22.67301687514853,0.3018177893810082,1583,0,6.843119831855623,7.77874727021321,113.67252746330874,0.08321114990854049,0.09458821723232069,0.46484375,,
1.6331149999992922,1200,,,,0.1875,-0.1640625,-1,0.0469213933943512,-0.6472785052023615,22.67280787543342,0.30652751466036837,1583,0,6.949839448428634,7.778675332142982,111.9259716697736,0.0832119194546766,0.09313574939471614,0.46484375,,
1.6408950000004843,1200,,,,-0.125,-0.16015625,-0.9296875,0.0469213933943512,-0.6472785052023615,22.672772720462408,0.3103917436537569,1583,0,7.03744145816966,7.778642322631169,110.53224909744806,0.08321227257347602,0.09197639640056197,0.462890625,,
1.6499749999996274,1200,,,,0.0625,0.208984375,-1.138671875,0.0469213933943512,-0.6472785052023615,22.672878713540186,0.31149525701210035,1585,0,7.062494182078379,7.789601693665405,110.29533607874846,0.08309519929995084,0.09165012933318663,0.4609375,,
1.6589799999995156,1200,,,,-0.21875,-0.369140625,-0.736328125,0.046918922867017994,-0.6472785052023615,22.67294040012753,0.30893816507623034,1591,0,7.0045366040981305,7.814813074843761,111.56788116820695,0.08282712574226253,0.09240846922316881,0.466796875,,
1.6671200000001118,1200,,,,0,0.49609375,-1.146484375,0.046918922867017994,-0.6472785052023615,22.672959803392907,0.3084848706112011,1592,0,6.994265071322625,7.823492517751332,111.8558195603516,0.08273523669048073,0.09254417706533394,0.470703125,,
1.6750849999990314,1200,,,,0.0625,-0.1171875,-0.984375,0.046918922867017994,-0.6472785052023615,22.673108206162787,0.3065767709339836,1593,0,6.951048300882193,7.826881478343228,112.60001570338505,0.08269941316900783,0.0931195522149101,0.46875,,
1.6855800000000745,1200,,,,-0.09375,0.01171875,-0.947265625,0.046918922867017994,-0.6472785052023615,22.673151692208698,0.30518427139402443,1595,0,6.919489279392904,7.8345595968403,113.22453551843181,0.08261836510419944,0.09354426014215197,0.46484375,,
1.6937399999992921,1200,,,,-0.125,0.060546875,-0.921875,0.046918922867017994,-0.6472785052023615,22.67327536905187,0.30445777689656306,1595,0,6.903055013825132,7.838085607675635,113.54517082621918,0.08258119872644647,0.09376696316428318,0.466796875,,
1.7008849999997764,1200,,,,0,-0.03515625,-0.90234375,0.046918922867017994,-0.6472785052023615,22.673393187776906,0.3033158515058339,1595,0,6.877199561277126,7.838940002646549,113.98447773399822,0.08257219789714301,0.09411948852654191,0.47265625,,
1.7097799999993295,1200,,,,0.0625,0.30859375,-1.26953125,0.046918922867017994,-0.6472785052023615,22.673521451726646,0.3030334726794727,1594,0,6.870835943389245,7.829447394099944,113.95188967701992,0.08267231039704447,0.09420665993708358,0.47265625,,
1.7180699999993667,1200,,,,-0.125,0.00390625,-0.87109375,0.046918922867017994,-0.7827434588138787,22.673511166195496,0.3028530521275794,1593,0,6.866742059131059,7.825497837291269,113.96230948977184,0.1000247492349725,0.11399051428952754,0.470703125,,
1.726125,1200,,,,0.03125,0.400390625,-1.095703125,0.046918922867017994,-0.7827434588138787,22.67343781931731,0.30228021856084264,1592,0,6.853731739548912,7.82416683151197,114.15922199527071,0.10004176491500227,0.11420690049730428,0.470703125,,
1.73425,1200,,,,-0.1875,-0.98046875,-0.6171875,0.046918922867017994,-0.7827434588138787,22.673564729127026,0.3025845715828981,1589,0,6.86067086982001,7.806007968825053,113.77907666673777,0.10027448882193442,0.11409138751388814,0.4765625,,
1.7418649999992921,1200,,,,0,0.24609375,-1.109375,0.046918922867017994,-0.7827434588138787,22.67348812710443,0.3007458314695972,1587,0,6.818957039102062,7.798941858967121,114.37147666784693,0.10036534096146525,0.11478932252034724,0.474609375,,
1.7492299999995158,1200,,,,0.0625,-0.19140625,-0.92578125,0.046918922867017994,-0.7827434588138787,22.673544480279077,0.30111286258545295,1587,0,6.827295883415429,7.796188286863223,114.19145178402748,0.1004007894643619,0.11464911909197976,0.47265625,,
1.756304999999702,1200,,,,-0.125,0.12890625,-1.02734375,0.046918922867017994,-0.7827434588138787,22.67347807123229,0.3003999950932563,1586,0,6.811112701345234,7.793193967437059,114.41880804435753,0.10043936569325489,0.11492152503353563,0.470703125,,
1.7648999999994412,1200,,,,-0.03125,0.232421875,-1.009765625,0.046918922867017994,-0.7827434588138787,22.67333798676668,0.301665520746795,1585,0,6.839764310846058,7.7896629227868175,113.88788514882702,0.10048489473455235,0.1144401215072067,0.470703125,,
1.7721399999996648,1200,,,,0.125,-1.1171875,-0.765625,0.046918922867017994,-0.7827434588138787,22.673280341016337,0.3012081928921796,1585,0,6.829377798455313,7.788394404634318,114.04251799330707,0.10050126099778972,0.11461416865690485,0.4765625,,
1.7799199999999256,1200,,,,-0.03125,0.482421875,-1.103515625,0.046918922867017994,-0.7827434588138787,22.673217096325143,0.3010286268939698,1585,0,6.825287409775639,7.78779727779477,114.10211483022033,0.10050896689949847,0.11468285682633388,0.4765625,,
1.7873649999992922,1200,,,,0.0625,-0.12890625,-0.92578125,0.046918922867017994,-0.7827434588138787,22.673164744690016,0.30013127658315203,1584,0,6.804925879003931,7.7849850701167265,114.40220229490951,0.10054527423803299,0.11502600803176605,0.474609375,,
1.7963300000000746,1200,,,,-0.09375,0.076171875,-0.986328125,0.046918922867017994,-0.7827434588138787,22.673101118143784,0.2996356428002041,1584,0,6.793669227809039,7.780648157149394,114.52792145517301,0.1006013179113671,0.1152165983603994,0.47265625,,
1.8050800000000744,1200,,,,-0.125,0.056640625,-0.931640625,0.04466570715137647,-0.7827434588138787,22.6731876250759,0.29940199773996906,1583,0,6.78839767008087,7.405499651567031,109.09053964540074,0.1056975890409025,0.1153060702768985,0.47265625,,
1.813664999999106,1200,,,,-0.03125,-0.04296875,-0.892578125,0.04466570715137647,-0.7827434588138787,22.67352214526388,0.2993123133385949,1583,0,6.786464364832794,7.403451390740947,109.09143543293848,0.10572683164946678,0.11533891828416962,0.4765625,,
1.821894999999553,1200,,,,0.25,0.08984375,-1.28125,0.04466570715137647,-0.7827434588138787,22.67329258654269,0.2993360575673139,1582,0,6.786934014925894,7.39933125288331,109.02317948886235,0.10578570306726919,0.11533093692858386,0.4765625,,
1.8299749999996275,1200,,,,-0.125,-0.05078125,-0.892578125,0.04466570715137647,-0.7827434588138787,22.673098702637382,0.2976553184009992,1582,0,6.7487684134708115,7.397932321886149,109.61899814371434,0.10580570688626054,0.11598315586759378,0.474609375,,
1.8395049999998883,1200,,,,0,0.388671875,-1.09375,0.04466570715137647,-0.7827434588138787,22.6732242462988,0.29765186643639685,1582,0,6.748727515041805,7.397416733216235,109.61202266247389,0.10581308138274359,0.11598385874511485,0.47265625,,
1.8559649999989196,1200,,,,-0.03125,0.294921875,-1.041015625,0.04466570715137647,-0.7827434588138787,22.673323975310858,0.2981249969552142,1582,0,6.759484641104135,7.401815214517386,109.50265600882155,0.10575020263659948,0.11579928062178728,0.478515625,,
1.8646200000001119,1200,,,,-0.03125,-0.005859375,-0.923828125,0.04466570715137647,-0.9024519447978616,22.673252390074158,0.2977428157419138,1583,0,6.750798008647757,7.4022399726841845,109.64985122058062,0.12191606164189465,0.13368078020432886,0.4765625,,
1.8744899999992921,1200,,,,0.03125,0.169921875,-1.154296875,0.04466570715137647,-0.9024519447978616,22.67356172144246,0.2983531424653907,1581,0,6.7647283904753515,7.395263777836743,109.3209268867199,0.12203106906104791,0.13340549578731087,0.47265625,,
1.883289999999106,1200,,,,-0.21875,-0.37890625,-0.689453125,0.04466570715137647,-0.9024519447978616,22.673470403532374,0.2981805593688842,1581,0,6.760788087759124,7.392818179807175,109.34846772068458,0.12207143782635271,0.13348324678772486,0.4765625,,
1.8902749999994413,1200,,,,-0.1875,0.484375,-0.92578125,0.04466570715137647,-0.9024519447978616,22.673463789069885,0.2988889270699407,1581,0,6.77684726487425,7.393815899203409,109.10406580250127,0.1220549655415534,0.13316692991967666,0.48046875,,
1.8982249999996275,1200,,,,0.125,0.15625,-1.13671875,0.04466570715137647,-0.9024519447978616,22.67357483334462,0.30082631138257593,1582,0,6.820807882971866,7.397500587305435,108.4549032054294,0.12199417007773199,0.13230865907407116,0.48046875,,
1.9069950000001117,1200,,,,-0.1875,-0.0390625,-0.890625,0.04466570715137647,-0.9024519447978616,22.673363833577504,0.3025002887212113,1582,0,6.858699105938266,7.399205685825701,107.88059909815063,0.12196605731972622,0.13157771333291443,0.4765625,,
1.915289999999106,1200,,,,0.0625,0.291015625,-1.072265625,0.04466570715137647,-0.9024519447978616,22.67343486330241,0.3030593959293946,1582,0,6.871397473316905,7.399902248979211,107.69137250049357,0.12195457648408146,0.13133455724287152,0.474609375,,
1.923144999999553,1200,,,,-0.15625,-0.53515625,-0.798828125,0.04466570715137647,-0.9024519447978616,22.673266710017586,0.3024718784654568,1582,0,6.858025572727327,7.397938279329806,107.87271352194396,0.12198695240799123,0.1315906357052225,0.4765625,,
1.9301899999994785,1200,,,,-0.1875,0.703125,-1.1875,0.04466570715137647,-0.9024519447978616,22.67332760034412,0.30254209602059867,1581,0,6.8596360559698,7.396181638843216,107.82177915119084,0.12201592509009929,0.1315597412799293,0.478515625,,
1.9377849999992176,1200,,,,0.0625,0.087890625,-1.037109375,0.04466570715137647,-0.9024519447978616,22.673263207982178,0.3032485617535602,1581,0,6.8756344580805075,7.395371760074242,107.55911770997248,0.12202928724556802,0.13125362470910096,0.478515625,,
1.9448349999999628,1200,,,,-0.25,0.1484375,-0.859375,0.04466570715137647,-0.9024519447978616,22.673122314612698,0.30300347192999644,1581,0,6.870034780821125,7.395069804404503,107.64239251086623,0.12203426994838659,0.13136060785561238,0.4765625,,
1.9521499999994412,1200,,,,0.0625,0.400390625,-1.107421875,0.04466570715137647,-0.9024519447978616,22.67290199131179,0.3024894976526495,1582,0,6.858314733679659,7.3992444658357766,107.88721068019424,0.12196541808622698,0.13158508756766743,0.474609375,,
1.960074999999255,1200,,,,-0.25,-0.890625,-0.69140625,0.04033320484396092,-0.9024519447978616,22.673054233265614,0.3025679359405874,1582,0,6.860139220828174,6.683301117904642,97.42223740319102,0.1350308670636106,0.13155009187829797,0.478515625,,
1.9683799999998883,1200,,,,0,0.255859375,-0.982421875,0.04033320484396092,-0.9024519447978616,22.67306806840943,0.30199968446897374,1583,0,6.847259402603212,6.6840017519679025,97.61572271421115,0.13501671278469696,0.13179753996975266,0.478515625,,
1.9757599999997766,1200,,,,-0.0625,-0.044921875,-1.015625,0.04033320484396092,-0.9024519447978616,22.672918431236948,0.3021015655457857,1583,0,6.849524153568582,6.685865577378005,97.61065772568578,0.13497907404111706,0.13175396196357478,0.4765625,,
1.9836749999998138,1200,,,,-0.25,0.24609375,-0.890625,0.04033320484396092,-0.9024519447978616,22.672809727056357,0.30135938766931564,1583,0,6.832664056088607,6.687390903971424,97.87384319023076,0.13494828667214964,0.13207907448540282,0.474609375,,
1.9936599999992177,1200,,,,-0.03125,0.365234375,-0.99609375,0.04033320484396092,-0.9024519447978616,22.672564436577304,0.3028277496223892,1583,0,6.865881666497317,6.688018129592024,97.40945816510072,0.13493563075208234,0.13144006678726441,0.474609375,,
2.0017949999999254,1200,,,,-0.03125,-0.46484375,-0.810546875,0.04033320484396092,-0.9024519447978616,22.67247052659236,0.30309892876165384,1584,0,6.872001528990314,6.689379383238885,97.34251884285798,0.1349081720583935,0.13132301280649697,0.482421875,,
2.010554999999702,1200,,,,0.125,0.65625,-1.30859375,0.04033320484396092,-0.9024519447978616,22.672364249974137,0.30314139331126483,1584,0,6.87293208839767,6.691615622183501,97.36187606858137,0.1348630877431343,0.13130523235073255,0.482421875,,
2.019139999999665,1200,,,,-0.09375,-0.060546875,-0.869140625,0.04033320484396092,-1.0324189179927636,22.67234215246614,0.3024108273265641,1585,0,6.856361747758219,6.692780084524657,97.61416230281246,0.154258604788161,0.1505782448439695,0.478515625,,
2.0275300000002607,1200,,,,0.0625,0.244140625,-1.083984375,0.04033320484396092,-1.0324189179927636,22.672325273116257,0.3024936808763594,1585,0,6.8582351258910474,6.693127640059557,97.59256597651222,0.15425059456711288,0.15053711327207203,0.4765625,,
2.035200000000186,1200,,,,-0.375,-0.02734375,-0.796875,0.04033320484396092,-1.0324189179927636,22.672374930653962,0.30278586962326093,1585,0,6.86487475980268,6.692662696235857,97.49140268989011,0.1542613104606968,0.1503915153759395,0.474609375,,
2.042199999999255,1200,,,,-0.09375,-0.15234375,-0.904296875,0.04033320484396092,-1.0324189179927636,22.672273768151854,0.3045065911699907,1585,0,6.90385679921272,6.69249417967695,96.93848488340787,0.1542651947502477,0.14954234249332857,0.48046875,,
2.0503649999992923,1200,,,,-0.0625,-0.01171875,-1.08984375,0.04033320484396092,-1.0324189179927636,22.672456431177334,0.30384778418153674,1584,0,6.8889756485656655,6.692414023168559,97.14672201754652,0.15426704241826922,0.14986537486276655,0.478515625,,
2.0582750000003727,1200,,,,-0.1875,0.0625,-0.83203125,0.04033320484396092,-1.0324189179927636,22.672434115712342,0.3030059805420324,1585,0,6.869883130506046,6.692782234333833,97.42206828256236,0.15425855523827986,0.1502818750159312,0.4765625,,
2.066370000000112,1200,,,,0.03125,0.32421875,-1.091796875,0.04033320484396092,-1.0324189179927636,22.672412855899992,0.3030590105254172,1585,0,6.871079006332801,6.693127264409772,97.41013395772312,0.1542506032243818,0.1502557192314663,0.474609375,,
2.0761199999991806,1200,,,,-0.09375,-0.66015625,-0.80859375,0.04033320484396092,-1.0324189179927636,22.672756063777662,0.3040680786231219,1585,0,6.89406137340361,6.693271096873214,97.08748928019382,0.15424728851563504,0.14975481970260685,0.478515625,,
2.0841349999997765,1200,,,,-0.03125,0.421875,-1.146484375,0.04033320484396092,-1.0324189179927636,22.67256778872748,0.3035914188283239,1584,0,6.88319702346113,6.690784642729303,97.20460739281476,0.1543046104636869,0.149991190790239,0.48046875,,
2.097754999998957,1200,,,,0.0625,-0.3125,-0.765625,0.04033320484396092,-1.0324189179927636,22.672523855865386,0.30413427803236404,1582,0,6.89549167407517,6.683922480534822,96.93177508522301,0.1544630299048821,0.14972375673722102,0.478515625,,
2.1056849999995904,1200,,,,-0.0625,0.2578125,-1.0390625,0.04033320484396092,-1.0324189179927636,22.672758629183193,0.3037026726486075,1582,0,6.8857773919997145,6.68236383696895,97.04588830787499,0.15449905799518066,0.149934983258722,0.4765625,,
2.113245000000112,1200,,,,-0.09375,-0.396484375,-0.796875,0.035311849074105214,-1.0324189179927636,22.672724891682112,0.30314000330447827,1582,0,6.873009898586042,5.851480780418244,85.13709228939199,0.17643720568094728,0.15021350663341243,0.482421875,,
2.1213349999990316,1200,,,,0.0625,0.5859375,-1.3203125,0.035311849074105214,-1.0324189179927636,22.672818763413403,0.30318571784856285,1583,0,6.874074832435857,5.851949190733792,85.1307169820281,0.17642308303488632,0.15019023550939753,0.482421875,,
2.1296349999997766,1200,,,,-0.0625,-0.0546875,-0.892578125,0.035311849074105214,-1.0324189179927636,22.67287710722163,0.30323019098580706,1583,0,6.8751008554205475,5.8521381788747515,85.12076116324519,0.1764173856522433,0.15016782149148722,0.478515625,,
2.1386949999993665,1200,,,,0.03125,0.314453125,-1.091796875,0.035311849074105214,-1.0324189179927636,22.67304869792622,0.302800331990167,1582,0,6.865406672961282,5.851293033661717,85.22864430895915,0.17644286691050917,0.150379863447688,0.474609375,,
2.152969999999739,1200,,,,-0.375,0.09375,-0.734375,0.035311849074105214,-1.0324189179927636,22.673130351347137,0.3017710662563774,1582,0,6.842094721495858,5.8492345279340405,85.48894404454032,0.17650496198472926,0.15089222818696235,0.474609375,,
2.1703349999990316,1200,,,,-0.0625,-0.125,-0.833984375,0.035311849074105214,-1.1625981536990704,22.672972159982276,0.30072795173920985,1582,0,6.818396477511598,5.8485898425177005,85.77661715342443,0.1987826441935267,0.17050902767733525,0.48046875,,
2.1786149999992923,1200,,,,0.03125,0.33203125,-1.095703125,0.035311849074105214,-1.1625981536990704,22.67292458386739,0.3008923375228226,1582,0,6.822109276518527,5.8487200437982905,85.73184343337023,0.19877821899371556,0.17041623148733406,0.478515625,,
2.187125,1200,,,,-0.3125,-0.5703125,-0.765625,0.035311849074105214,-1.1625981536990704,22.67287492972653,0.3017657623300335,1582,0,6.8418973873824305,5.848773758369647,85.48467518901606,0.19877639343381717,0.16992335427933924,0.48046875,,
2.1951850000005217,1200,,,,0,0.083984375,-0.9375,0.035311849074105214,-1.1625981536990704,22.672832037968043,0.30156013608135224,1582,0,6.837222314719286,5.849489934801469,85.55360152921443,0.1987520564455042,0.17003954240250602,0.482421875,,
2.2031299999998883,1200,,,,0.09375,-0.05078125,-1.02734375,0.035311849074105214,-1.1625981536990704,22.672660399902295,0.300193160300731,1582,0,6.806177577871906,5.850120922016638,85.95310444200607,0.19873061928065286,0.17081513674854498,0.48046875,,
2.2111199999991804,1200,,,,-0.25,0.07421875,-0.90625,0.035311849074105214,-1.1625981536990704,22.672498177730027,0.2993240299576172,1582,0,6.786423523764884,5.850368991714476,86.20695379867604,0.19872219262504429,0.17131234878398796,0.478515625,,
2.219409999999218,1200,,,,0.03125,0.349609375,-1.1171875,0.035311849074105214,-1.1625981536990704,22.6726481230326,0.30008534526287467,1582,0,6.803729440023906,5.849168227541356,85.97002980648809,0.19876298791080552,0.17087659995118581,0.478515625,,
2.227985000000335,1200,,,,-0.09375,-0.4765625,-0.787109375,0.035311849074105214,-1.1625981536990704,22.672689360180406,0.2987604016819991,1581,0,6.773701780458685,5.8477698608324,86.33048885769539,0.1988105177472871,0.17163409187174822,0.482421875,,
2.2364150000000373,1200,,,,0.0625,0.6015625,-1.359375,0.035311849074105214,-1.1625981536990704,22.67265519715135,0.29859356034396867,1581,0,6.7699088377686065,5.847347846870606,86.37262313266125,0.19882486627185547,0.17173025243900747,0.482421875,,
2.2474949999991805,1200,,,,-0.03125,0.029296875,-0.896484375,0.035311849074105214,-1.1625981536990704,22.672821561493002,0.2982189516184026,1581,0,6.761465076299557,5.847183248483227,86.4780514651907,0.19883046319792544,0.171944710292779,0.478515625,,
2.2556349999997765,1200,,,,0.03125,0.197265625,-1.13671875,0.028849618255478358,-1.1625981536990704,22.6728334746265,0.2994775962767434,1581,0,6.790005669764029,4.7755847054795,70.3325584357791,0.24344624279517157,0.1712219709736227,0.4765625,,
2.2630699999993666,1200,,,,-0.09375,-0.509765625,-0.69140625,0.028849618255478358,-1.1625981536990704,22.672792642040513,0.29970319108481175,1581,0,6.795108305623781,4.775183613849188,70.27384110856836,0.24346669106654967,0.17109339563239612,0.478515625,,
2.271620000000112,1200,,,,-0.03125,0.572265625,-1.11328125,0.028849618255478358,-1.1625981536990704,22.672754308587486,0.3002312440871913,1581,0,6.807069232950448,4.776299401521357,70.16675221108518,0.2434098149979369,0.17079276174706326,0.482421875,,
2.280539999999106,1200,,,,0.125,-0.171875,-0.83203125,0.028849618255478358,-1.1625981536990704,22.672712666962532,0.2994824512109845,1582,0,6.790079565104277,4.779501468400409,70.38947662650857,0.24324674056186987,0.1712201075925413,0.48046875,,
2.2888799999998883,1200,,,,-0.09375,0.0859375,-1,0.028849618255478358,-1.1625981536990704,22.67254597915806,0.2983175854689185,1582,0,6.763619172935469,4.780575575042604,70.6807325014988,0.24319208753199334,0.171889948853299,0.478515625,,
2.300094999998808,1200,,,,-0.125,0.025390625,-0.943359375,0.028849618255478358,-1.1625981536990704,22.672662266665135,0.2976824501068064,1583,0,6.749253653985016,4.781020190064457,70.83776125737342,0.24316947167784211,0.17225580979796606,0.478515625,,
2.310169999998994,1200,,,,-0.03125,0.021484375,-0.9375,0.028849618255478358,-1.1625981536990704,22.672513267330178,0.29686312501053,1582,0,6.73063314038234,4.778627804618188,70.99819147692745,0.24329121271497767,0.17273236104991868,0.48046875,,
2.3181549999993294,1200,,,,0.15625,-0.04296875,-1.009765625,0.028849618255478358,-1.2728268949310992,22.672415650522307,0.2956369472410727,1582,0,6.702803749501134,4.778069314916595,71.28463689947971,0.2663893742515364,0.18989469817400384,0.48046875,,
2.3255799999991433,1200,,,,-0.3125,0.18359375,-0.9296875,0.028849618255478358,-1.2728268949310992,22.672337560971886,0.2958204988145898,1582,0,6.706942206579464,4.778015773306043,71.23985306774885,0.26639235936435485,0.18977752539487588,0.478515625,,
2.343344999999739,1200,,,,-0.0625,-0.5625,-0.748046875,0.028849618255478358,-1.2728268949310992,22.67261900330864,0.29759450375916735,1582,0,6.747246801210302,4.7783896795001635,70.81984430513242,0.26637151431823813,0.18864389171339976,0.482421875,,
2.3513700000001116,1200,,,,0.03125,0.533203125,-1.185546875,0.028849618255478358,-1.2728268949310992,22.672654352270897,0.29770083951840753,1582,0,6.749668234781722,4.7784241977812965,70.79494919702266,0.26636959010924444,0.18857621599415714,0.482421875,,
2.359419999998994,1200,,,,-0.125,-0.1953125,-0.765625,0.028849618255478358,-1.2728268949310992,22.67249282169172,0.29864503026200834,1580,0,6.77102730484929,4.774190637350282,70.5091033074271,0.2666057959590674,0.1879813560963671,0.482421875,,
2.3667649999996647,1200,,,,0.03125,0.162109375,-1.169921875,0.028849618255478358,-1.2728268949310992,22.672645104252062,0.2988812368937363,1580,0,6.776428212411571,4.772612975063015,70.42962495081984,0.2666939266983604,0.18783153234026959,0.478515625,,
2.3745699999993666,1200,,,,-0.1875,-0.38671875,-0.666015625,0.028849618255478358,-1.2728268949310992,22.67251610941839,0.2988175130692071,1580,0,6.774944878837938,4.771882120113717,70.43425748036796,0.266734773175991,0.18787265692845298,0.484375,,
2.3822449999991804,1200,,,,-0.1875,0.48828125,-0.890625,0.028849618255478358,-1.2728268949310992,22.672622832812593,0.2990788792820012,1580,0,6.780902627221102,4.77373562140852,70.39970758826331,0.2666312078999348,0.1877075907006085,0.486328125,,
2.3896299999989568,1200,,,,0.1875,0.4453125,-1.30078125,0.028849618255478358,-1.2728268949310992,22.672768050473348,0.29873459045681705,1581,0,6.773140078080562,4.776385464548603,70.51951398445286,0.26648328623774276,0.1879227183046545,0.486328125,,
2.3977000000001865,1200,,,,-0.0625,-0.095703125,-0.927734375,0.028849618255478358,-1.2728268949310992,22.672634046834776,0.30151876297310026,1581,0,6.8362245711434175,4.7776256937617685,69.88690386106889,0.2664141095425395,0.18618857260831734,0.484375,,
2.405519999999553,1200,,,,0.03125,0.294921875,-1.0859375,0.02181017366570774,-1.2728268949310992,22.67260290024866,0.3022855707947898,1582,0,6.853600709105272,3.6122385918915594,52.70570529579527,0.3523651227768373,0.18571652317592705,0.48046875,,
2.4135800000000747,1200,,,,-0.375,-0.1953125,-0.85546875,0.02181017366570774,-1.2728268949310992,22.672703838995062,0.30322187425401276,1582,0,6.874859752466233,3.6130310284619824,52.55425068367209,0.35228783946340037,0.18514223427968773,0.48046875,,
2.4210199999995528,1200,,,,0,-0.0859375,-0.916015625,0.02181017366570774,-1.2728268949310992,22.672669868010093,0.30200438834016136,1582,0,6.847245795526795,3.6133425681264058,52.7707442675265,0.35225746547222253,0.18588888626761702,0.484375,,
2.428004999998957,1200,,,,0,0.3515625,-1.12890625,0.02181017366570774,-1.2728268949310992,22.672698465704226,0.3034020211685062,1582,0,6.878942539838751,3.613459066115838,52.52928113861729,0.35224610868479556,0.18503234873087568,0.484375,,
2.4362999999998136,1200,,,,-0.0625,0.01171875,-0.908203125,0.02181017366570774,-1.2728268949310992,22.672668118857096,0.3034317541912782,1582,0,6.879607459501477,3.613812573194097,52.529342618277354,0.35221165158714945,0.185014465203707,0.482421875,,
2.444699999999255,1200,,,,0.125,0.1796875,-1.11328125,0.02181017366570774,-1.2728268949310992,22.672631154387577,0.3039506552915859,1582,0,6.891361096560529,3.6143313788091427,52.447278965153224,0.3521610946892404,0.18469891173840328,0.48046875,,
2.4539699999997393,1200,,,,-0.125,-0.171875,-0.9375,0.02181017366570774,-1.2728268949310992,22.67279338200698,0.3039571699723613,1583,0,6.891558111762923,3.61450271070973,52.44826572005946,0.3521444018176353,0.18469363158362725,0.482421875,,
2.4624349999995903,1200,,,,-0.03125,0.296875,-1.01171875,0.02181017366570774,-1.3478389401572597,22.672910503416265,0.30532153218661556,1583,0,6.922527774033063,3.614701620962276,52.216498639720896,0.3728769567980134,0.19470329107426737,0.484375,,
2.4706200000001117,1200,,,,-0.03125,-0.060546875,-1.001953125,0.02181017366570774,-1.3478389401572597,22.672866772952208,0.30463470626596517,1583,0,6.906942109585658,3.614971234655543,52.33822981719478,0.37284914669194874,0.19514264326708183,0.482421875,,
2.4792749999994412,1200,,,,0,0.140625,-1.078125,0.02181017366570774,-1.3478389401572597,22.672923590060854,0.3039546383127693,1583,0,6.891540289310002,3.6150813890498976,52.45679829598513,0.3728377856830199,0.19557876520695905,0.48046875,,
2.4875,1200,,,,-0.375,0.5078125,-0.69921875,0.02181017366570774,-1.3478389401572597,22.67265741105306,0.30443140121872747,1583,0,6.902268864999049,3.6151258138433953,52.375905438506756,0.3728332040328949,0.19527476638762398,0.482421875,,
2.495554999999702,1200,,,,-0.0625,-0.41015625,-0.861328125,0.02181017366570774,-1.3478389401572597,22.67272324499422,0.3040953741806372,1582,0,6.894670258880549,3.6125579817915745,52.39638512281988,0.3730982165409637,0.1954899784251758,0.486328125,,
2.5035699999993666,1200,,,,0.125,0.236328125,-1.12109375,0.02181017366570774,-1.3478389401572597,22.672949130269792,0.3043077715600889,1581,0,6.899554624527656,3.611544494781694,52.34460325805364,0.3732029169527737,0.19535158622641277,0.486328125,,
2.5117999999998135,1200,,,,-0.125,0,-0.91796875,0.02181017366570774,-1.3478389401572597,22.672902719140748,0.30344597857032696,1581,0,6.880001152639491,3.6111443564598575,52.487554527144994,0.37324427026744444,0.19590678987606933,0.482421875,,
2.519429999999702,1200,,,,0.03125,0.24609375,-1.060546875,0.02181017366570774,-1.3478389401572597,22.672858275229093,0.3047608950411865,1582,0,6.909800581100789,3.612280885157327,52.27764307753525,0.3731268367572021,0.19506191594642772,0.48046875,,
2.5265349999992175,1200,,,,-0.3125,-0.171875,-0.85546875,0.02181017366570774,-1.3478389401572597,22.672821084859223,0.3043539035355776,1582,0,6.900561601340654,3.6133020826351667,52.36243499272823,0.3730213830265434,0.19532307919624958,0.478515625,,
2.534984999999404,1200,,,,-0.0625,-0.087890625,-0.908203125,0.02181017366570774,-1.3478389401572597,22.672979199719077,0.30401681955619336,1582,0,6.89296702616232,3.6137784094865295,52.42703752637144,0.37297221562314054,0.19553828344768293,0.484375,,
2.543889999999665,1200,,,,0.15625,-0.05859375,-1.07421875,0.02181017366570774,-1.3478389401572597,22.673140606819434,0.30471571574895223,1582,0,6.908862268283617,3.6135212702908217,52.30269659418955,0.3729987564315025,0.1950884078764688,0.482421875,,
2.5513250000001864,1200,,,,-0.0625,0.126953125,-0.994140625,0.02181017366570774,-1.3478389401572597,22.673084397557837,0.3048991311360579,1582,0,6.913003732989894,3.6125658697568572,52.25754258625884,0.37309740188847423,0.1949715336800947,0.48046875,,
2.56005999999959,1200,,,,-0.0625,0.58203125,-1.140625,0.014553495583121221,-1.3478389401572597,22.67312940016802,0.30613942145305123,1582,0,6.941138717097604,2.4103440678931416,34.72548476744768,0.5591894361104192,0.19418124245770016,0.48046875,,
2.568575000000186,1200,,,,-0.125,-0.58203125,-0.775390625,0.014553495583121221,-1.3478389401572597,22.67306807761957,0.3065001417905713,1581,0,6.949298580617673,2.4102406679233153,34.68322219807523,0.5592134254869119,0.1939532349230935,0.484375,,
2.576785000000149,1200,,,,-0.125,0.7265625,-1.2421875,0.014553495583121221,-1.3478389401572597,22.673277061608488,0.30595635562512985,1582,0,6.937033219848586,2.4110670860237513,34.7564586994493,0.5590217493201606,0.1942961634234006,0.486328125,,
2.585639999999665,1200,,,,0.03125,-0.099609375,-1.037109375,0.014553495583121221,-1.3478389401572597,22.673280209779904,0.3051352045590079,1582,0,6.918415994834897,2.4114134338984208,34.85499333516107,0.5589414578230456,0.19481900787167467,0.482421875,,
2.5946399999996648,1200,,,,0,0.123046875,-1.125,0.014553495583121221,-1.3478389401572597,22.673216704346363,0.3054064602184384,1582,0,6.924546855439991,2.4115307822825156,34.82582806682857,0.5589142589677123,0.19464651886908443,0.48046875,,
2.605035000000149,1200,,,,-0.1875,-0.30078125,-0.720703125,0.014553495583121221,-1.3478389401572597,22.67307556646267,0.3058140637771547,1583,0,6.9337453773064635,2.4122675193393794,34.79025242597627,0.5587435594731952,0.19438829475460948,0.484375,,
2.6135649999994786,1200,,,,0,0.458984375,-1.146484375,0.014553495583121221,-1.402257920708388,22.673271426334914,0.3056983502512024,1583,0,6.93118166982831,2.4125526844696448,34.80723488999828,0.5812341134496919,0.2023115231292333,0.486328125,,
2.6215949999988077,1200,,,,-0.125,-0.11328125,-0.9375,0.014553495583121221,-1.402257920708388,22.673018941037952,0.3062452435126995,1583,0,6.943504206766216,2.4126258368542515,34.74651652840114,0.5812164900533225,0.2019524837821707,0.482421875,,
2.6301899999994784,1200,,,,-0.0625,0.22265625,-1.0546875,0.014553495583121221,-1.402257920708388,22.673034906108757,0.3054763139463151,1582,0,6.926075129094239,2.4113403849391846,34.81539457765785,0.5815263284547668,0.20246068582449364,0.48046875,,
2.6379999999990686,1200,,,,-0.09375,0.23046875,-0.9375,0.014553495583121221,-1.402257920708388,22.673365269619506,0.30541037072577903,1582,0,6.924680892595497,2.4108631073180793,34.81551200281294,0.5816414529932827,0.20250144988021193,0.48046875,,
2.6455649999994786,1200,,,,0.125,-1.0390625,-0.77734375,0.014553495583121221,-1.402257920708388,22.673298409143708,0.305983996110487,1582,0,6.937666452235339,2.4106662139172905,34.747508121272766,0.5816889590988806,0.20212241830343056,0.484375,,
2.6529550000000746,1200,,,,-0.0625,0.498046875,-1.15234375,0.014553495583121221,-1.402257920708388,22.673415556491502,0.30533722227280025,1582,0,6.9230377254560125,2.4115003392762135,34.83297989853682,0.5814877559292656,0.20254951313529393,0.486328125,,
2.6607949999989944,1200,,,,-0.0625,-0.107421875,-0.884765625,0.014553495583121221,-1.402257920708388,22.67334626141559,0.30495679821358557,1583,0,6.914391080669268,2.412858583726903,34.89618327306639,0.5811604253003753,0.20280280712335103,0.482421875,,
2.6688149999994786,1200,,,,0.125,0.140625,-1.12109375,0.014553495583121221,-1.402257920708388,22.67321450862496,0.3044866599466129,1584,0,6.903691355984297,2.413396487154276,34.95805885154877,0.58103089491186,0.2031171221889685,0.48046875,,
2.6768349999999628,1200,,,,-0.15625,-0.052734375,-0.93359375,0.014553495583121221,-1.402257920708388,22.67325302090122,0.3038284291234517,1584,0,6.888778848458974,2.4136074061046315,35.03679620437457,0.5809801201146958,0.20355682067251651,0.482421875,,
2.7039199999999255,1200,,,,0,0.470703125,-1.130859375,0.014553495583121221,-1.402257920708388,22.673270277559723,0.30344164176737565,1582,0,6.880014357258164,2.4110871745885643,35.04479859180753,0.581587399861506,0.20381613291679507,0.484375,,0.2293649999992922,3680,
2.72180999999959,1200,,,,-0.09375,-0.43359375,-0.794921875,0.007790376525752258,-1.402257920708388,22.67309372462563,0.3026459300150241,1583,0,6.861919536607131,1.2912482224001043,18.81759492386238,1.0859708430823198,0.2043535942424841,0.486328125,,
2.7385849999999627,1500,,,,-0.125,-0.08203125,-0.921875,0.007790376525752258,-1.402257920708388,22.673341205316387,0.30118025597232717,1583,0,6.828762707965103,1.2912234546133534,18.908600427823682,1.0859916737868451,0.20534582627578896,0.48046875,,
2.7470099999997766,1500,,,,0.03125,0.255859375,-1.140625,0.007790376525752258,-1.402257920708388,22.67347424822361,0.30002350836567127,1583,0,6.802575290790748,1.2911510715456855,18.980327542917927,1.0860525554377556,0.2061363323103163,0.478515625,,
2.7574949999991802,1500,,,,-0.125,-0.515625,-0.75390625,0.007790376525752258,-1.402257920708388,22.673403222512714,0.3002193452142201,1583,0,6.8069942692407555,1.291123525358878,18.967601180350172,1.0860757264248744,0.20600251230486114,0.48046875,,
2.7750699999993667,1500,,,,0.0625,-0.302734375,-0.751953125,0.007790376525752258,-1.4262215051544271,22.651107313124108,0.8887606419860801,1583,0,20.131412677307775,1.2917882205568916,6.416778798702992,1.1040675882147162,0.07084557492391336,0.498046875,,
2.7838650000002234,1500,,,,0.375,-0.22265625,-0.9921875,0.007790376525752258,-1.4262215051544271,22.63021341835013,1.5212371600363221,1747,0,34.425921591546825,1.4250608001610177,4.139499348975851,1.0008144950680549,0.04142870950779808,0.5,,
2.792089999999851,1500,,,,0.125,-0.166015625,-1.01171875,0.007790376525752258,-1.4262215051544271,22.61516724252059,1.9150386500202523,1879,0,43.30891934609887,1.5325885465258016,3.5387365227893923,0.930596479001167,0.032931357482206415,0.5,,
2.801219999999739,1500,,,,0.125,0.341796875,-1.0625,0.007790376525752258,-1.4262215051544271,22.602980861148716,2.2323561320849805,2008,0,50.45790292878479,1.638444105954069,3.247150616359412,0.8704730908863906,0.028265572335960252,0.50390625,,
2.8091149999992924,1500,,,,-0.03125,-0.12890625,-0.91015625,0.007790376525752258,-1.4262215051544271,22.593064591551443,2.5049979706751637,2206,0,56.59558095316926,1.7998565572280418,3.1802068764297275,0.7924084280088132,0.025200227316944983,0.505859375,,
2.8175649999994783,1500,,,,-0.25,0.5546875,-1.09765625,0.007790376525752258,-1.4262215051544271,22.586495077523278,2.6834236253558,2441,0,60.60913450500844,1.9912800042809413,3.2854453714668894,0.7162335292315865,0.02353146133503311,0.505859375,,
2.8252250000005588,1500,,,,-0.09375,-0.232421875,-0.87109375,0.007790376525752258,-1.4262215051544271,22.581917044492318,2.816967976569264,2605,0,63.6125371638785,2.12518435769897,3.3408262780402453,0.671104838499122,0.02242044679777821,0.50390625,,
2.8329099999992176,1500,,,,-0.03125,0.38671875,-1.263671875,0.007790376525752258,-1.4262215051544271,22.577906934943336,2.9306835415079453,2780,0,66.16870025593653,2.267665017681263,3.4270962084944574,0.6289383546661446,0.021554322506530863,0.501953125,,
2.8413349999999626,1500,,,,-0.375,-0.16796875,-0.83984375,0.007790376525752258,-1.4262215051544271,22.574478563187313,3.029900756355764,2898,0,68.39842967293822,2.36436933491561,3.4567596744857294,0.6032143473072631,0.020851670308429764,0.50390625,,
2.8488699999991804,1500,,,,0.0625,-0.171875,-0.935546875,0.007790376525752258,-1.4262215051544271,22.571870599509303,3.102480014388039,3068,0,70.02877742233058,2.5027677438147986,3.5739132338710844,0.5698577139964792,0.020366220254755405,0.501953125,,
2.8570999999996274,1500,,,,-0.03125,0.0234375,-0.927734375,0.007790376525752258,-1.4262215051544271,22.56971905332707,3.156206566884609,3156,0,71.23469548885159,2.574852327387682,3.614604245470037,0.5539041948092616,0.020021444541412192,0.505859375,,
2.865604999999516,1500,,,,-0.25,-0.0546875,-0.734375,0.00506505357236906,-1.4262215051544271,22.568167291329576,3.1986255714001945,3238,0,72.18711699768424,1.717656596326212,2.3794503337504316,0.8303298273967468,0.01975728584922127,0.505859375,,
2.8738999999994412,1500,,,,0,0.46875,-1.166015625,0.00506505357236906,-1.4262215051544271,22.567377392821562,3.21785155067072,3317,0,72.61847033806222,1.7592837394241967,2.422639489972961,0.8106830485577167,0.019639927672875916,0.5078125,,
2.8819399999994784,1500,,,,0,-0.634765625,-0.888671875,0.00506505357236906,-1.4262215051544271,22.56662150100312,3.228343007391754,3946,0,72.85279472321983,2.0928090923226876,2.872654508689235,0.6814866728104408,0.019576757632605385,0.509765625,,
2.8897599999997765,1500,,,,-0.125,0.65625,-1.36328125,0.00506505357236906,-1.4262215051544271,22.56649275350007,3.230102571263597,4193,0,72.8920862674819,2.223971553819245,3.051046646762513,0.6412948505142366,0.01956620503247529,0.51171875,,
2.897864999999292,1500,,,,-0.0625,-0.2109375,-0.73828125,0.00506505357236906,-1.4262215051544271,22.566371447718524,3.2286965109371377,3769,0,72.85996475776024,1.999093225059742,2.7437471754291796,0.7134342147109248,0.01957483111467635,0.5078125,,
2.9084349999995904,1500,,,,0.0625,0.390625,-1.15234375,0.00506505357236906,-1.4262215051544271,22.566189259652003,3.228519255376857,3627,0,72.8553765452649,1.923826974538898,2.6406108454379176,0.741346037886938,0.019576063878666783,0.5078125,,
2.91943499999959,1500,,,,0,-0.025390625,-1.037109375,0.00506505357236906,-1.4439472297878777,22.566223019318915,3.2224592941196764,3574,0,72.71873510178162,1.8954879063828334,2.606601866396317,0.7617812938428963,0.01985660542316695,0.5078125,,
2.927264999999665,1500,,,,-0.0625,0.09375,-1.033203125,0.00506505357236906,-1.4439472297878777,22.566458723909225,3.208328123536413,3590,0,72.4006041725416,1.9041412337917107,2.630007381228275,0.7583193957270438,0.019943856080906902,0.505859375,,
2.9359599999990316,1500,,,,-0.09375,-0.087890625,-0.80859375,0.00506505357236906,-1.4439472297878777,22.566732659190766,3.189323004394808,3614,0,71.97259960398473,1.916897772743216,2.6633715932043223,0.7532729446085626,0.02006245762599819,0.50390625,,
2.94555999999959,1500,,,,0.0625,0.51171875,-1.26953125,0.00506505357236906,-1.4439472297878777,22.56724435727041,3.1710518711356133,3615,0,71.56190244549694,1.9175939874860797,2.679629693951415,0.752999456199202,0.020177597023606497,0.50390625,,
2.9535049999998884,1500,,,,-0.09375,-0.478515625,-0.845703125,0.00506505357236906,-1.4439472297878777,22.56794406138731,3.15008053640208,3628,0,71.09084133438706,1.9245356811682737,2.7071499577785474,0.7502834288379321,0.020311297527005518,0.505859375,,
2.9609199999999256,1500,,,,0.0625,0.251953125,-1.17578125,0.00506505357236906,-1.4439472297878777,22.568466437345375,3.1353731491095163,3640,0,70.760563684232,1.9308000394678986,2.7286385790877334,0.74784918182714,0.020406101288727312,0.5078125,,
2.970024999999441,1500,,,,-0.125,-0.5546875,-0.703125,0.00506505357236906,-1.4439472297878777,22.569308699119247,3.1147031964423957,3651,0,70.29669794664188,1.9363990344321376,2.754608809509011,0.7456868156368014,0.02054075471487855,0.5078125,,
2.9773799999998882,1500,,,,-0.09375,0.548828125,-1.115234375,0.00506505357236906,-1.4439472297878777,22.570103752379865,3.093707783262039,3655,0,69.82530564776934,1.938875693842466,2.776752175812933,0.7447342985285773,0.020679425838417455,0.5078125,,
2.984449999999255,1500,,,,-0.0625,-0.73828125,-0.88671875,0.00506505357236906,-1.4439472297878777,22.570355482404715,3.0755065872200436,3671,0,69.41527696203373,1.9469750434300404,2.804822120777429,0.7416362293191161,0.02080157701564219,0.509765625,,
2.9926749999998137,1500,,,,-0.15625,0.533203125,-0.998046875,0.00506505357236906,-1.4439472297878777,22.571234047228437,3.054200548066963,3692,0,68.93707539759279,1.958433050254245,2.8408995289675887,0.7372972129940432,0.02094587305103893,0.51171875,,
3.0013649999992924,1500,,,,0,-0.412109375,-0.8046875,0.00506505357236906,-1.4439472297878777,22.572062771313867,3.0332553962406985,3675,0,68.46683120537156,1.9493911777063826,2.8472051990532945,0.7407170229870431,0.02108973358875988,0.51171875,,
3.00933999999892,1500,,,,-0.125,0.71875,-1.203125,0.07244909410959753,-1.4439472297878777,22.572582486985315,3.015226743073516,3677,0,68.06145437499102,27.898680097011574,40.990426010148354,0.05175682952623085,0.021215344912148274,0.513671875,,
3.0167649999996646,1500,,,,0.09375,-0.365234375,-0.98828125,0.07244909410959753,-1.4439472297878777,22.573143532939568,2.9997255178770903,3682,0,67.71323467446103,27.937520449029133,41.2585819941137,0.05168487419713215,0.021324446199178282,0.515625,,
3.0252499999990685,1500,,,,-0.3125,0.5859375,-0.86328125,0.07244909410959753,-1.4439472297878777,22.5736766891849,2.981605380831364,3683,0,67.30579588162122,27.941153107177403,41.51373999992639,0.05167815459330355,0.021453534734624056,0.517578125,,
3.0332949999999257,1500,,,,0.15625,-0.111328125,-1.046875,0.07244909410959753,-1.4439472297878777,22.574282278926336,2.965836656844963,3687,0,66.95163388480537,27.973721769833382,41.78198521333174,0.05161798782688322,0.021567020041247723,0.517578125,,
3.041304999999702,1500,,,,-0.34375,0.390625,-1.017578125,0.07244909410959753,-1.4439472297878777,22.574748777389658,2.9499485085253117,3691,0,66.59434648619423,28.00177693857592,42.0482794952887,0.051566271417534976,0.02168272993094428,0.51953125,,
3.0492299999995156,1500,,,,-0.0625,-0.310546875,-0.990234375,0.07244909410959753,-1.4439472297878777,22.575202559497644,2.934502878312884,3694,0,66.24699688934221,28.024859450772826,42.303592263336924,0.05152379915853811,0.021796417914608582,0.521484375,,
3.0585649999994784,1500,,,,-0.125,0.57421875,-1.04296875,0.07244909410959753,-1.4439472297878777,22.575900270232747,2.9214132959038324,3695,0,65.95353521645687,28.0369476813779,42.510151410931584,0.05150158448763469,0.02189340154472236,0.521484375,,
3.0758499999996274,1500,,,,-0.09375,0.373046875,-1.119140625,0.07244909410959753,-3.779222815064611,22.576395616475985,2.9029275176812175,3688,0,65.53764008512574,27.98287136080209,42.697404612762384,0.1350548614663783,0.057664920649505264,0.521484375,,
3.084544999998994,1500,,,,-0.125,-0.271484375,-0.822265625,0.07244909410959753,-3.779222815064611,22.57659254904005,2.9004926194150804,3703,0,65.48324006003216,28.093891219070223,42.90241471453608,0.13452115926537306,0.05771282562683193,0.521484375,,
3.093049999999814,1500,,,,0.0625,0.38671875,-1.171875,0.07244909410959753,-3.779222815064611,22.57722278237817,2.8867775643110822,3703,0,65.17542019262233,28.0965724970484,43.1091543621975,0.1345083218055023,0.057985400077135346,0.521484375,,
3.1011699999999256,1500,,,,-0.0625,-0.07421875,-0.814453125,0.07244909410959753,-3.779222815064611,22.577649424749744,2.8723188725091227,3707,0,64.85020853960343,28.122952936028646,43.36601773432111,0.13438214769484624,0.05827618600110861,0.521484375,,
3.1100449999999253,1500,,,,0.125,-0.0546875,-1.064453125,0.07244909410959753,-3.779222815064611,22.578218924936472,2.8587799883827447,3715,0,64.54616043593296,28.188354435080463,43.67162081323114,0.1340703595794638,0.05855069905847895,0.521484375,,
3.1177749999994413,1500,,,,-0.25,-0.08984375,-0.7421875,0.07244909410959753,-3.779222815064611,22.578766386895268,2.8483906094276867,3703,0,64.31314614889398,28.092367464367612,43.68059898567212,0.13452845581128686,0.05876283530454533,0.51953125,,
3.126179999999702,1500,,,,0.0625,0.37109375,-1.107421875,0.07244909410959753,-3.779222815064611,22.579021570618913,2.838608734749121,3702,0,64.09300785244766,28.086066633240737,43.820796642746664,0.13455863593913797,0.058964666220143486,0.521484375,,
3.1342000000001864,1500,,,,-0.25,0.0234375,-0.896484375,0.07244909410959753,-3.779222815064611,22.57946366227434,2.8260139610634067,3704,0,63.80987954291116,28.099234354389303,44.03586804374549,0.13449557975142012,0.059226296024005844,0.521484375,,
3.142794999998994,1500,,,,0.125,0.24609375,-1.30859375,0.07244909410959753,-3.779222815064611,22.579784143067933,2.814735040885951,3701,0,63.55610964313426,28.080905305466153,44.18285742022228,0.13458336809137553,0.059462777635145375,0.521484375,,
3.150194999999367,1500,,,,-0.09375,0.05859375,-0.796875,0.07244909410959753,-3.779222815064611,22.57986773278683,2.8047985531532507,3704,0,63.331980347312275,28.098001703805313,44.366213640748335,0.13450148003061696,0.05967321398035197,0.521484375,,
3.157785000000149,1500,,,,0.09375,-0.0703125,-1.15625,0.10206406196863241,-3.779222815064611,22.580136449180326,2.7962178981777113,3707,0,63.13898168249294,39.61742358184593,62.74637716057902,0.09539294768265501,0.05985561873755254,0.521484375,,
3.1643349999999626,1500,,,,-0.5625,0.11328125,-0.859375,0.10206406196863241,-3.779222815064611,22.580384934534244,2.7899278333023543,3710,0,62.99764441553825,39.65218001836503,62.94232171097638,0.09530933263478206,0.05998990676756912,0.521484375,,
3.172290000000037,1500,,,,0.125,0.142578125,-1.076171875,0.10206406196863241,-3.779222815064611,22.580722897797457,2.781022706479688,3703,0,62.79750310750055,39.58160819439072,63.030544584921685,0.0954792639173307,0.06018110001276818,0.521484375,,
3.180214999999851,1500,,,,-0.125,-0.55859375,-0.77734375,0.10206406196863241,-3.779222815064611,22.581210620665743,2.772149402878774,3700,0,62.59848953835837,39.54978352011663,63.1800923820722,0.09555609357867521,0.060372428199706375,0.5234375,,
3.18805999999959,1500,,,,-0.03125,0.349609375,-1.150390625,0.10206406196863241,-3.779222815064611,22.581346662021048,2.7635563477321092,3706,0,62.40482390816754,39.61160748675631,63.475233172754685,0.09540695404315895,0.06055978654191806,0.5234375,,
3.196445000000298,1500,,,,0,-0.60546875,-0.7890625,0.10206406196863241,-3.779222815064611,22.581477102700934,2.758080656161249,3705,0,62.28153518450761,39.59475655354564,63.57382880214351,0.09544755780866616,0.06067966699710839,0.5234375,,
3.2043649999992923,1500,,,,-0.0625,0.369140625,-1.015625,0.10206406196863241,-3.779222815064611,22.581599852988273,2.7489212224553716,3700,0,62.07503907287456,39.54691911978058,63.70824684194476,0.09556301474757155,0.06088152132498696,0.521484375,,
3.2145649999994785,1500,,,,0.1875,-0.46875,-0.82421875,0.10206406196863241,-5.0612386417156,22.581851284322717,2.744337032329477,3706,0,61.9722107381238,39.611067194111584,63.91746675214834,0.12777334720403552,0.08166948671724647,0.521484375,,
3.2229749999996273,1500,,,,-0.041015625,0.0625,-1.0390625,0.10206406196863241,-5.0612386417156,22.58217014443551,2.73335171673838,3701,0,61.72501353197099,39.56111024749705,64.09250963874807,0.12793469672747151,0.08199655783135779,0.5234375,,
3.2375699999993666,1500,,,,-0.375,-0.1640625,-0.79296875,0.10206406196863241,-5.0612386417156,22.582695243864556,2.7260441577888557,3702,0,61.56142443666315,39.56798623764211,64.27399398198011,0.12791246467076217,0.08221444984468812,0.5234375,,
3.2533449999997393,1500,,,,-0.125,0.298828125,-1.1484375,0.10206406196863241,-5.0612386417156,22.583107276113292,2.715412819529918,3703,0,61.3224590023774,39.58072171080179,64.54522919452282,0.1278713076203045,0.08253482857755887,0.525390625,,
3.2610400000000372,1500,,,,-0.0625,-0.072265625,-0.767578125,0.10206406196863241,-5.0612386417156,22.58295998724698,2.709428647760138,3700,0,61.186918740667885,39.54186876744853,64.62470995645516,0.12799695106676623,0.0827176583800035,0.5234375,,
3.283769999999553,1500,,,,-0.14453125,0.046875,-1.00390625,0.10206406196863241,-5.0612386417156,22.583627906417284,2.697494971782186,3702,0,60.919222722160484,39.5699002337886,64.95470307337708,0.1279062775446127,0.08308114279131276,0.5234375,,
3.292834999999963,1500,,,,0.03125,-0.306640625,-0.953125,0.10206406196863241,-5.0612386417156,22.58398137139181,2.695823805016475,3702,0,60.88243459304667,39.56997137964393,64.99406872300601,0.12790604757220686,0.08313134445996087,0.5234375,,
3.308894999999553,1500,,,,0,-0.67578125,-0.796875,0.11049538848184494,-5.0612386417156,22.584456669171455,2.6895900412147538,3699,0,60.742929743649675,42.804961436375564,70.46904325659494,0.11823953279898461,0.08332226751451223,0.525390625,,
3.3234549999991434,1500,,,,-0.125,0.306640625,-1.08984375,0.11049538848184494,-5.0612386417156,22.584530465361787,2.6802481261964943,3698,0,60.532145460813574,42.785812089135575,70.68279467615044,0.1182924524412797,0.08361241127645264,0.5234375,,
3.3349199999999253,1500,,,,0,0.119140625,-0.90234375,0.11049538848184494,-5.0612386417156,22.58472247915492,2.677355037034193,3704,0,60.46732048958479,42.861323965955265,70.88345178671828,0.11808404812076595,0.08370204931748834,0.521484375,,
3.343284999999218,1500,,,,-0.03125,-0.23828125,-0.908203125,0.11049538848184494,-5.0612386417156,22.584639545205338,2.6764028064507466,3704,0,60.44559266146608,42.85670425150662,70.90128885249175,0.11809677692464354,0.08373213693282436,0.521484375,,
3.3589949999991804,1500,,,,-0.1875,0.1015625,-0.8515625,0.11049538848184494,-5.649748891722226,22.58471741683361,2.668876091134213,3700,0,60.275812338809665,42.809295579695686,71.0223453133491,0.13197481563798222,0.09373160928906359,0.521484375,,
3.368519999999553,1500,,,,0,0.109375,-1.1953125,0.11049538848184494,-5.649748891722226,22.584772002414244,2.664663433587991,3701,0,60.18081611075506,42.82174868511767,71.15514785693458,0.1319364356945504,0.09387956589562675,0.51953125,,
3.3765099999997763,1500,,,,-0.21875,-0.234375,-0.87890625,0.11049538848184494,-5.649748891722226,22.584725051908972,2.6599374513902223,3706,0,60.07395599492366,42.88311091631019,71.38386378272455,0.13174764542498235,0.09404655974711633,0.5234375,,
3.3839599999999628,1500,,,,0.0625,0.625,-1.23828125,0.11049538848184494,-5.649748891722226,22.58468782143195,2.6575280029632804,3704,0,60.01944032363917,42.855610411711,71.40288243379696,0.1318321880716542,0.09413198225870532,0.5234375,,
3.3926349999997765,1500,,,,0.09375,-0.232421875,-0.77734375,0.11049538848184494,-5.649748891722226,22.584840809891496,2.654976295521863,3699,0,59.96221698839672,42.80685596821775,71.38971525435976,0.1319823370330426,0.0942218145939385,0.5234375,,
3.4004599999990313,1500,,,,0.0625,0.248046875,-1.15234375,0.11049538848184494,-5.649748891722226,22.584721744282167,2.6533969985276276,3694,0,59.92623288885994,42.74225278642214,71.32477835824011,0.13218182298329795,0.09427839227271856,0.5234375,,
3.408094999999739,1500,,,,-0.28125,0.09375,-0.939453125,0.11049538848184494,-5.649748891722226,22.58469015377052,2.6525813840757437,3707,0,59.907728667010424,42.898771567193975,71.60807548829202,0.13169954955173505,0.09430751286074697,0.5234375,,
3.416399999999441,1500,,,,0.3125,-0.05078125,-1.078125,0.11049538848184494,-5.649748891722226,22.584558738647395,2.6478986513824236,3695,0,59.80162262613157,42.75568026090452,71.49585309449702,0.13214031111763913,0.0944748427152786,0.5234375,,
3.4244900000002234,1500,,,,-0.1875,0.119140625,-0.82421875,0.11049538848184494,-5.649748891722226,22.58453121248943,2.6472523182243886,3697,0,59.78695260827371,42.776724672929994,71.54859514784881,0.13207530344878193,0.09449802415486179,0.5234375,,
3.4325349999992176,1500,,,,0,0.375,-1.1796875,0.11049538848184494,-5.649748891722226,22.584505615568574,2.6451817676067138,3711,0,59.74012248471343,42.939134492377356,71.87654244158071,0.13157575154956094,0.09457210090534897,0.521484375,,
3.4406349999997765,1500,,,,-0.0625,-0.443359375,-0.8515625,0.11049538848184494,-5.649748891722226,22.58448048814259,2.6433668779669994,3705,0,59.69906767844809,42.86616137597094,71.80373671303751,0.1317997392434875,0.09463713775486375,0.5234375,,
3.449410000000149,1500,,,,0.15625,0.32421875,-1.072265625,0.11049538848184494,-5.649748891722226,22.584527647125913,2.6419364264392198,3704,0,59.666886264865596,42.8584298112925,71.82950627093369,0.13182351562104144,0.0946881804195812,0.5234375,,
3.457419999998994,1500,,,,-0.1875,-0.30859375,-0.68359375,0.1138978870976287,-5.649748891722226,22.584599618504143,2.6412711590228866,3711,0,59.65205161043428,44.267690090490795,74.20983670366759,0.12762691886956748,0.09471172808302837,0.5234375,,
3.466419999998994,1500,,,,-0.03125,0.1953125,-1.20703125,0.1138978870976287,-5.649748891722226,22.584566886974088,2.639968407983568,3697,0,59.62254308960339,44.090384023434005,73.94918388028674,0.12814016064635292,0.09475860302086635,0.525390625,,
3.475524999999441,1500,,,,-0.15625,0.041015625,-0.85546875,0.1138978870976287,-5.649748891722226,22.584609435919642,2.640163968762466,3698,0,59.62707208128784,44.10456426998051,73.96734860610637,0.12809896175683774,0.09475140560348307,0.5234375,,
3.4825999999996275,1500,,,,0.1875,-0.201171875,-1.041015625,0.1138978870976287,-5.649748891722226,22.584580004281953,2.6386441791008255,3700,0,59.592670565735474,44.13362679010761,74.05881691679633,0.12801460706122153,0.09480610347022629,0.521484375,,
3.4901849999995904,1500,,,,-0.5,0.3828125,-0.75390625,0.1138978870976287,-5.649748891722226,22.58473017429564,2.6379050862298103,3699,0,59.57637459790234,44.12144541609949,74.05862762527512,0.12804995027793642,0.09483203585068688,0.5234375,,
3.4982749999994414,1500,,,,0.09375,-0.044921875,-1.064453125,0.1138978870976287,-5.649748891722226,22.58495708266019,2.636254543467685,3704,0,59.5396957231856,44.180715366824536,74.20379770200931,0.12787816686111522,0.09489045624265986,0.5234375,,
3.5057949999999254,1500,,,,-0.375,-0.20703125,-0.76171875,0.1138978870976287,-5.8974783549595875,22.584975086809095,2.6328756267307045,3706,0,59.463430436379845,44.208155130235056,74.34511397308894,0.13340249864727233,0.09917823966226307,0.5234375,,
3.5225999999996276,1500,,,,0.041015625,0.01171875,-0.99609375,0.1138978870976287,-5.8974783549595875,22.584903819807405,2.6323823620455675,3705,0,59.452102463756574,44.18852688379931,74.32626442561505,0.13346175513992434,0.09919713703236706,0.525390625,,
3.5317050000000747,1500,,,,-0.0625,0.234375,-1.08203125,0.1138978870976287,-5.8974783549595875,22.58513290323127,2.6347299918332365,3702,0,59.50572702968309,44.158779458685984,74.20929322762223,0.1335516612382175,0.09910774389862952,0.525390625,,
3.5389400000004096,1500,,,,-0.15625,0.08984375,-0.779296875,0.1138978870976287,-5.8974783549595875,22.585000552810975,2.6361311546289397,3711,0,59.537023584576836,44.2662260446009,74.35075416848372,0.13322749377860948,0.09905564638416588,0.5234375,,
3.5465999999996276,1500,,,,0.1875,-0.119140625,-1.041015625,0.1138978870976287,-5.8974783549595875,22.58495778317728,2.636911537342393,3695,0,59.554535748851045,44.077553913227824,74.01208549271277,0.13379776850978417,0.09902651881680337,0.525390625,,
3.5544349999995903,1500,,,,-0.5,0.1796875,-0.8984375,0.1138978870976287,-5.8974783549595875,22.58497641837099,2.636593558521453,3692,0,59.547403344035864,44.03869961312209,73.95570107177967,0.13391581510736372,0.09903837990863905,0.525390625,,
3.562410000000149,1500,,,,0.15625,0.01953125,-1.119140625,0.1138978870976287,-5.8974783549595875,22.585124222946728,2.633323432063213,3695,0,59.47393683234409,44.07393676081749,74.10630455666839,0.13380874930606496,0.09916071928422139,0.525390625,,
3.570614999999292,1500,,,,-0.1875,-0.46484375,-0.6484375,0.1138978870976287,-5.8974783549595875,22.585134668567964,2.6372732090535735,3700,0,59.56317058428135,44.13443992543535,74.09686135325101,0.13362531313240433,0.0990121630045652,0.52734375,,
3.5784999999990688,1500,,,,0,0.373046875,-1.15625,0.1138978870976287,-5.8974783549595875,22.585078217506208,2.636826679810379,3700,0,59.55293680952461,44.12709914807215,74.09726793022686,0.13364754241311236,0.09902917758400746,0.52734375,,
3.5865649999994784,1500,,,,-0.125,-0.54296875,-0.83984375,0.1138978870976287,-5.8974783549595875,22.58489833262047,2.634851559614459,3698,0,59.507854595439035,44.10907488160148,74.12311396785293,0.13370215473323177,0.09910420053038844,0.52734375,,
3.594679999999702,1500,,,,-0.125,0.33203125,-1.076171875,0.1138978870976287,-5.8974783549595875,22.584654979046732,2.635173119291045,3704,0,59.51447570924661,44.176129335796574,74.2275367620067,0.13349920972321974,0.09909317497429136,0.52734375,,
3.6021499999994413,1500,,,,0,-0.0234375,-0.767578125,0.1138978870976287,-5.8974783549595875,22.584816583226928,2.633060950083745,3702,0,59.46719861009861,44.1530482531253,74.24773536520235,0.1335689966670001,0.09917195517527015,0.525390625,,
3.609554999999702,1500,,,,-0.0625,0.6015625,-1.18359375,0.11533305084724711,-5.8974783549595875,22.584953786417756,2.6311718292892285,3700,0,59.4248941686215,44.68321594315891,75.1927564504663,0.13198419653727952,0.09924255545538135,0.525390625,,
3.61731500000041,1500,,,,-0.15625,-0.265625,-0.912109375,0.11533305084724711,-5.8974783549595875,22.58510269687485,2.6316679883776963,3700,0,59.436491781588316,44.6833794621419,75.17835949392878,0.13198371354065194,0.0992231906390285,0.52734375,,
3.6247949999989943,1500,,,,-0.1875,0.55859375,-1.1953125,0.11533305084724711,-5.8974783549595875,22.585244164359658,2.6290694793678298,3701,0,59.378176116588364,44.69587445685882,75.27323569033003,0.13194681671687458,0.0993206383331808,0.52734375,,
3.6329749999996275,1500,,,,0.1875,-0.322265625,-0.87890625,0.11533305084724711,-5.8974783549595875,22.585105014281947,2.6276401221918078,3702,0,59.345528099442625,44.7062687336118,75.33216093165356,0.13191613887753617,0.09937527803404915,0.52734375,,
3.6409449999993666,1500,,,,-0.03125,0.408203125,-1.078125,0.11533305084724711,-5.8974783549595875,22.585263175521124,2.6209213802710543,3703,0,59.19419913577184,44.72133329270347,75.55019570435877,0.13187170240118476,0.09962932924276464,0.52734375,,
3.648535000000149,1500,,,,0.0625,-0.75,-0.84375,0.11533305084724711,-5.8974783549595875,22.58514911623944,2.620959731342713,3702,0,59.19476636003403,44.708570084657154,75.52791037763537,0.13190934856096978,0.09962837456085191,0.52734375,,
3.6562549999998883,1500,,,,-0.125,0.333984375,-1.03515625,0.11533305084724711,-5.8974783549595875,22.584996026739383,2.6222665853998897,3702,0,59.223880412307956,44.707408638912774,75.4888202658562,0.1319127754102593,0.09957939793715322,0.52734375,,
3.664759999998845,1500,,,,0.25,-0.26953125,-0.75390625,0.11533305084724711,-5.9980786473743395,22.58507831925672,2.6239503948189964,3702,0,59.262125172831624,44.71162817176504,75.44722373922362,0.13415030703717626,0.10121268229719382,0.525390625,,
3.674109999999404,1500,,,,-0.21875,0.3984375,-0.98046875,0.11533305084724711,-5.9980786473743395,22.58492609945374,2.625131796326931,3705,0,59.288407621369984,44.75092580775275,75.48006027340608,0.13403250411269077,0.10116781489021447,0.525390625,,
3.6829500000001865,1500,,,,0.03125,-0.40625,-0.91796875,0.11533305084724711,-5.9980786473743395,22.58487410229236,2.6256760946247852,3702,0,59.30056403049946,44.71229105892953,75.39943639647863,0.13414831817651757,0.10114707584044916,0.52734375,,
3.690769999999553,1500,,,,0.03125,0.29296875,-1.125,0.11533305084724711,-5.9980786473743395,22.584901277967578,2.6239108760184275,3700,0,59.260768097061614,44.68650159404087,75.40655146563415,0.134225737827152,0.10121500007475855,0.52734375,,
3.699854999999516,1500,,,,-0.25,0.07421875,-0.890625,0.11533305084724711,-5.9980786473743395,22.58485404201465,2.624483353900551,3706,0,59.273573483541036,44.76224450439549,75.51804602573013,0.13399861230786472,0.10119313371649295,0.52734375,,
3.707355000000447,1500,,,,0,0.23828125,-1.17578125,0.11533305084724711,-5.9980786473743395,22.585000009580973,2.623553998018442,3705,0,59.25296707038271,44.74320439543925,75.5121753519815,0.13405563433417686,0.10122832566763477,0.525390625,,
3.715594999998808,1500,,,,-0.15625,-0.24609375,-0.88671875,0.11533305084724711,-5.9980786473743395,22.58524582805931,2.624428217616951,3702,0,59.273356452974376,44.711686349358175,75.43302594114274,0.1341501324845566,0.10119350423715295,0.525390625,,
3.7231699999999255,1500,,,,0.1875,0.166015625,-1.052734375,0.11533305084724711,-5.9980786473743395,22.58525016385023,2.6249342165769574,3699,0,59.2847959450408,44.67606616406907,75.35838734350277,0.13425709025828067,0.10117397811295127,0.525390625,,
3.7304749999996276,1500,,,,-0.125,-0.3125,-0.62890625,0.11533305084724711,-5.9980786473743395,22.585367364371344,2.6234136954903295,3699,0,59.25076206137211,44.67158642354342,75.39411286773402,0.1342705537812096,0.1012320928659367,0.525390625,,
3.738625,1500,,,,-0.3125,0.65234375,-1.19921875,0.11533305084724711,-5.9980786473743395,22.585299198454152,2.6235495767568318,3699,0,59.2536521530308,44.67414594541041,75.39475512839819,0.13426286100026835,0.10122715527953394,0.52734375,,
3.74575,1500,,,,-0.03125,-0.322265625,-0.94140625,0.11533305084724711,-5.9980786473743395,22.58523718592975,2.623776818390519,3699,0,59.25862176629399,44.679725579942435,75.39784802311424,0.13424609416282965,0.10121866605385711,0.525390625,,
3.7527849999992178,1500,,,,0.03125,0.33984375,-1.041015625,0.11533305084724711,-5.9980786473743395,22.585098140713086,2.6248097321495387,3704,0,59.28158540129616,44.73400310075466,75.46020032685661,0.13408320811050226,0.10117945744486102,0.525390625,,
3.7614399999994785,1500,,,,0.1875,-0.5546875,-0.73828125,0.1161536910475628,-5.9980786473743395,22.585143241283532,2.6285583338585474,3703,0,59.36636648826487,45.04501579150619,75.87632266564667,0.13315743244795028,0.10103496309749727,0.525390625,,
3.7695649999994782,1500,,,,-0.21875,0.388671875,-1.115234375,0.1161536910475628,-5.9980786473743395,22.585545589232325,2.6292922505176692,3700,0,59.38399999148208,45.00918219934775,75.79344976054792,0.13326344435250062,0.10100496174448828,0.525390625,,
3.778379999998957,1500,,,,0.125,-0.578125,-0.890625,0.1161536910475628,-5.9980786473743395,22.585460124868238,2.6255139150324935,3699,0,59.29843983525308,44.994190361232604,75.87752812087216,0.1333078470624585,0.10115069914214617,0.52734375,,
3.7872949999999257,1500,,,,-0.1875,0.228515625,-1,0.1161536910475628,-5.9980786473743395,22.58529397992932,2.621585592412318,3700,0,59.20928129817937,45.001628857117,76.00434909940506,0.13328581208512733,0.1013030139171572,0.525390625,,
3.7949349999995903,1500,,,,0.125,-0.255859375,-0.837890625,0.1161536910475628,-5.9980786473743395,22.585371077545723,2.6206239994062264,3701,0,59.18776548131159,45.01156719332829,76.04876924698331,0.1332563832228305,0.10133983938400615,0.525390625,,
3.8025800000000745,1500,,,,-0.3125,0.69921875,-1.14453125,0.1161536910475628,-5.9980786473743395,22.585243524771183,2.6196557656304345,3701,0,59.165563417834264,45.01477222596178,76.08272384404098,0.13324689542503146,0.10137786747698477,0.52734375,,
3.811499999999069,1500,,,,0.125,-0.291015625,-1.009765625,0.1161536910475628,-6.03661859057852,22.585382145127106,2.620744375506845,3705,0,59.190513225514586,45.063880613467994,76.13362033502831,0.13395691867633763,0.10198625187754552,0.525390625,,
3.8195750000001865,1500,,,,-0.0625,0.412109375,-1.01171875,0.1161536910475628,-6.03661859057852,22.585314353905545,2.6198363535662015,3707,0,59.1698276010823,45.08580751868046,76.1972940375033,0.1338917704441106,0.10202190601731788,0.525390625,,
3.829429999999702,1500,,,,-0.09375,-0.09375,-0.794921875,0.1161536910475628,-6.03661859057852,22.58518425333543,2.6201458060749148,3708,0,59.17647580080603,45.100747729570685,76.2139805036453,0.133847417048932,0.10201044433430584,0.5234375,,
3.8371649999991058,1500,,,,-0.1875,0.55078125,-1.1484375,0.1161536910475628,-6.03661859057852,22.585274014928682,2.619983048387514,3693,0,59.17303506230016,44.9199108484952,75.91280521812241,0.13438625492687825,0.10201637594257053,0.5234375,,
3.8458200000002982,1500,,,,-0.0625,-0.287109375,-0.873046875,0.1161536910475628,-6.03661859057852,22.585413053534484,2.6230643968616127,3697,0,59.242992869139826,44.973691609314756,75.9139426136959,0.13422555219657,0.10189590866742057,0.525390625,,
3.8532949999999255,1500,,,,0.21875,0.3359375,-1.0625,0.1161536910475628,-6.03661859057852,22.585283603344372,2.6207558662211805,3698,0,59.19051449373381,44.97794219143747,75.98842918690806,0.1342128673847538,0.10198624969238247,0.525390625,,
3.861304999999702,1500,,,,-0.0625,-0.68359375,-0.78515625,0.1161536910475628,-6.03661859057852,22.585286128364576,2.6212357049128925,3695,0,59.20135840534309,44.94509300635904,75.91902317279026,0.1343109600357136,0.10196756887311048,0.525390625,,
3.8714399999994784,1500,,,,-0.125,0.267578125,-1.138671875,0.1161536910475628,-6.03661859057852,22.585073264690525,2.6221151382602175,3700,0,59.22066250606114,45.00548924713166,75.99626100522842,0.13413071808708874,0.10193433060565106,0.525390625,,
3.884144999999553,1500,,,,-0.1875,-0.037109375,-0.76953125,0.1161536910475628,-6.03661859057852,22.58499437458682,2.6252876813350254,3700,0,59.29210751462362,45.010063846347165,75.91240340924973,0.134117085707454,0.10181150314297172,0.52734375,,
3.89275,1500,,,,0.041015625,0.068359375,-0.98828125,0.1161536910475628,-6.03661859057852,22.58479329992119,2.625275694861437,3701,0,59.29130892375253,45.019086134142086,75.92864274937116,0.13409020726434517,0.10181287443563598,0.52734375,,
3.9011699999999254,1500,,,,-0.1875,0.453125,-1.22265625,0.1161536910475628,-6.03661859057852,22.58481967768969,2.622359255916946,3704,0,59.22551092500474,45.04911361745926,76.0636977442093,0.13400082944670777,0.10192598588507722,0.52734375,,
3.9094150000000374,1500,,,,0.03125,-0.392578125,-0.974609375,0.11655178961167732,-6.03661859057852,22.584848188916933,2.6264120363501102,3703,0,59.31711712251142,45.19953945597887,76.19982502289413,0.13355486943529052,0.10176857681924607,0.52734375,,
3.917489999999292,1500,,,,0.0625,0.302734375,-1.01953125,0.11655178961167732,-6.03661859057852,22.58480661632434,2.630663379298388,3700,0,59.41302369410038,45.154043090378536,76.00024419370237,0.13368943681290874,0.10160429843899607,0.52734375,,
3.92530999999959,1500,,,,-0.1875,-0.51953125,-0.85546875,0.11655178961167732,-6.03661859057852,22.58476771022574,2.6314932652626846,3706,0,59.431664126981175,45.23013790374633,76.10444460567017,0.13346451879994198,0.10157243077832608,0.52734375,,
3.933359999999404,1500,,,,-0.1875,0.3125,-1.107421875,0.11655178961167732,-6.03661859057852,22.584926195819637,2.629422416773149,3704,0,59.38531122045527,45.21355858678834,76.13592933603172,0.13351345877788204,0.10165171262922011,0.52734375,,
3.9417199999997394,1500,,,,0.1875,-0.53125,-0.77734375,0.11655178961167732,-6.03661859057852,22.585012763300814,2.6307681754612897,3696,0,59.41593282007882,45.11189315609786,75.92558260879966,0.13381434846217574,0.10159932368407629,0.52734375,,
3.9497999999998137,1500,,,,-0.125,0.26953125,-0.9296875,0.11655178961167732,-6.03661859057852,22.584963321030706,2.630966064046327,3699,0,59.420272055362815,45.14788935692078,75.98061704405488,0.1337076589086032,0.10159190427391693,0.525390625,,
3.95730999999959,1500,,,,0.03125,-0.255859375,-0.794921875,0.11655178961167732,-6.055064747114788,22.584622909333774,2.6311542654932025,3699,0,59.42362690244906,45.14322573219278,75.96847934963773,0.13413008594104003,0.10189658663977033,0.525390625,,
3.9653699999991803,1500,,,,0.03125,0.185546875,-1.193359375,0.11655178961167732,-6.055064747114788,22.58449391883596,2.631654623386514,3696,0,59.434587838349266,45.11299515341936,75.9036056178569,0.13421996758412616,0.10187779485547048,0.525390625,,
3.973479999999516,1500,,,,-0.25,-0.31640625,-0.875,0.11655178961167732,-6.055064747114788,22.584534730075124,2.6301218403807685,3708,0,59.40007804840857,45.25182827356786,76.18142898177595,0.13380817920790228,0.10193698301507557,0.525390625,,
3.9851899999994784,1500,,,,0,0.408203125,-1.091796875,0.11655178961167732,-6.055064747114788,22.584508040006483,2.6287281306365924,3700,0,59.36853160135333,45.155270395980004,76.05926772652512,0.1340943082394618,0.10199114890988409,0.525390625,,
3.991679999999702,1500,,,,-0.1875,-0.20703125,-0.80078125,0.11655178961167732,-6.055064747114788,22.584409319610828,2.6267790069868044,3693,0,59.32425228595086,45.07652709841278,75.98330423304431,0.13432855494601748,0.10206727457648454,0.525390625,,
3.9995699999993666,1500,,,,-0.0625,0.19921875,-1.2578125,0.11655178961167732,-6.055064747114788,22.58457484438599,2.6259492823632127,3698,0,59.305948105093655,45.14109654770165,76.11563087687082,0.13413641249756214,0.10209877660812122,0.525390625,,
4.008629999999888,1500,,,,-0.0625,-0.341796875,-0.865234375,0.11655178961167732,-6.055064747114788,22.584404275146788,2.6245887674664656,3701,0,59.27477378047188,45.17638862379243,76.21520208766418,0.13403162429689763,0.10215247331925935,0.525390625,,
4.016864999999292,1500,,,,0.15625,0.333984375,-1.03515625,0.11655178961167732,-6.055064747114788,22.584182193600512,2.624447715957931,3700,0,59.27100537477264,45.15410249613421,76.18244740514056,0.13409777655603236,0.10215896809626225,0.52734375,,
4.025354999999515,1500,,,,-0.1875,-0.052734375,-0.857421875,0.11655178961167732,-6.055064747114788,22.584172489224596,2.624305177279212,3696,0,59.26776078803885,45.115574402949484,76.1216111475811,0.1342122942519586,0.10216456074272327,0.52734375,,
4.032859999999404,1500,,,,0.125,-0.078125,-1.30859375,0.11655178961167732,-6.055064747114788,22.583992556564144,2.6264423738553666,3694,0,59.31555502139426,45.08554837057125,76.00965438881849,0.13430167683326033,0.1020822403993491,0.52734375,,
4.041799999999814,1500,,,,-0.15625,-0.04296875,-0.830078125,0.11655178961167732,-6.055064747114788,22.583920096674696,2.6269001081205388,3697,0,59.325702143740365,45.12044039847809,76.05546798107115,0.1341978201817158,0.10206478015960029,0.52734375,,
4.050944999999366,1500,,,,0.09375,0,-1.037109375,0.11655178961167732,-6.055064747114788,22.583775710386757,2.6244344169428806,3699,0,59.26963823885766,45.14994739686058,76.17719415614707,0.1341101174247617,0.10216132453369754,0.525390625,,
4.058004999999889,1500,,,,-0.21875,0.36328125,-0.92578125,0.11676659142058164,-6.055064747114788,22.583881917447876,2.6230654917283878,3703,0,59.23900132692626,45.273914850402676,76.4258576888332,0.1337429017817957,0.10221415978467116,0.5234375,,
4.064984999999404,1500,,,,0.3125,-0.5234375,-1.0234375,0.11676659142058164,-6.055064747114788,22.583887049556722,2.6241274656117572,3701,0,59.26299828701547,45.25423355660341,76.36170100175073,0.13380106724249766,0.10217277090486751,0.525390625,,
4.073285000000149,1500,,,,-0.4375,-0.1953125,-0.76953125,0.11676659142058164,-6.055064747114788,22.584023851179133,2.624867172538506,3703,0,59.280062830786754,45.28293486710226,76.38813574871051,0.13371626121154417,0.10214335913237468,0.525390625,,
4.080474999999628,1500,,,,0.15625,0.298828125,-1.08984375,0.11676659142058164,-6.055064747114788,22.584022867228523,2.6244448097386717,3707,0,59.27052159691737,45.3293242696855,76.47869977922221,0.13357941784197697,0.10215980193819836,0.525390625,,
4.08880999999959,1500,,,,-0.0625,-0.65234375,-0.80078125,0.11676659142058164,-6.055064747114788,22.58421819098212,2.624954014407988,3699,0,59.282534202684424,45.22728345160427,76.291076385119,0.1338807968334876,0.102139100977242,0.525390625,,
4.096479999999516,1500,,,,-0.15625,0.248046875,-1.103515625,0.11676659142058164,-6.055064747114788,22.584014682960856,2.623858804818065,3698,0,59.257265774027296,45.2186431270247,76.30902731736269,0.13390637861700913,0.10218265503854462,0.525390625,,
4.103929999999702,1500,,,,-0.15625,-0.130859375,-0.82421875,0.11676659142058164,-6.062902224025352,22.584111689037424,2.6250289887873337,3699,0,59.283947869734114,45.23086684843076,76.29530163513655,0.1340434673591868,0.10226886774388738,0.52734375,,
4.112535000000149,1500,,,,0.0625,0.6796875,-1.24609375,0.11676659142058164,-6.062902224025352,22.584106172031536,2.6268224358666292,3692,0,59.324436786686455,45.1500144125473,76.10694152039524,0.13428350583960072,0.10219906926088144,0.52734375,,
4.120764999999665,1500,,,,0.09375,-0.19140625,-0.861328125,0.11676659142058164,-6.062902224025352,22.584296965308674,2.626256903308294,3699,0,59.31216581150646,45.23267730010969,76.26205632729504,0.13403810222859944,0.10222021302161181,0.52734375,,
4.128964999999851,1500,,,,0,0.138671875,-1.08984375,0.11676659142058164,-6.062902224025352,22.58434786261541,2.62667638634439,3711,0,59.32177323171929,45.37905468750502,76.4964568915497,0.13360574092555422,0.10220365801175216,0.52734375,,
4.13975,1500,,,,-0.25,-0.2734375,-0.92578125,0.11676659142058164,-6.062902224025352,22.584546937603047,2.626055610549859,3695,0,59.30827619721912,45.180136557459356,76.17846859554787,0.1341939773978915,0.10222691692916935,0.525390625,,
4.149054999999702,1500,,,,0,0.283203125,-1.08984375,0.11676659142058164,-6.062902224025352,22.584642857118173,2.6244875510394783,3704,0,59.27311402317932,45.297247092592634,76.42123724911553,0.13384703515496432,0.10228756028668237,0.525390625,,
4.156429999999702,1500,,,,-0.21875,0.10546875,-0.8203125,0.11676659142058164,-6.062902224025352,22.584610811869418,2.6226168658607008,3701,0,59.23078122410867,45.25684365736239,76.4076426514218,0.13396652824327132,0.1023606661726348,0.525390625,,
4.163330000000075,1500,,,,0.15625,-0.19921875,-1.03125,0.11676659142058164,-6.062902224025352,22.584496246720107,2.6228665272322496,3698,0,59.23611923992454,45.21993934113301,76.33845687624863,0.13407585928604748,0.10235144202253914,0.525390625,,
4.171909999999218,1500,,,,-0.1875,0.259765625,-1.03515625,0.11676659142058164,-6.062902224025352,22.584570155309244,2.62409110305279,3698,0,59.26396961081855,45.22195479371465,76.30598336676296,0.13406988379166723,0.102303343225908,0.525390625,,
4.179929999999702,1500,,,,0.3125,-0.2421875,-0.96484375,0.11676659142058164,-6.062902224025352,22.584607403432372,2.6229220587701665,3700,0,59.23766494712678,45.24159760476784,76.37302659574566,0.13401167388011084,0.102348771333861,0.525390625,,
4.187614999999292,1500,,,,-0.1875,0.103515625,-0.8984375,0.11676659142058164,-6.062902224025352,22.584675690661214,2.6228668618327475,3700,0,59.23659745427492,45.239961338077336,76.37164064495488,0.13401652089658972,0.10235061574401437,0.525390625,,
4.196214999999851,1500,,,,0.25,-0.0859375,-1.12890625,0.11676659142058164,-6.062902224025352,22.584576969172435,2.6204684409176595,3698,0,59.18217119919217,45.220384978064075,76.40879687543692,0.13407453799799363,0.10244474140056745,0.525390625,,
4.2046699999999255,1500,,,,-0.21875,0.048828125,-0.876953125,0.11676659142058164,-6.062902224025352,22.584655231039896,2.6183953674801335,3694,0,59.13555663309083,45.172296952227526,76.387709060559,0.13421726662332983,0.10252549513726397,0.525390625,,
4.2126449999995526,1500,,,,0.1875,0.203125,-1.26171875,0.11685790058169206,-6.062902224025352,22.584623562670785,2.619400492080054,3697,0,59.15817407350264,45.23846507832872,76.47035390598937,0.1340209534856601,0.10248629743866568,0.5234375,,
4.223859999999404,1500,,,,-0.041015625,0.19921875,-0.8828125,0.11685790058169206,-6.062902224025352,22.584441419940422,2.619114503038167,3704,0,59.15123806598185,45.33064533389994,76.63515898574201,0.13374842072877546,0.10249831486641621,0.525390625,,
4.232479999999516,1500,,,,-0.0625,-0.240234375,-0.89453125,0.11685790058169206,-6.062902224025352,22.58432631707693,2.6192408924941,3699,0,59.153791019118565,45.26019229985853,76.51275010460512,0.13395661653086488,0.10249389125484477,0.525390625,,
