Time (s),ESC signal (µs),Servo 1 (µs),Servo 2 (µs),Servo 3 (µs),AccX (g),AccY (g),AccZ (g),Torque (N·m),Thrust (N),Voltage (V),Current (A),Motor Electrical Speed (RPM),Motor Optical Speed (RPM),Electrical Power (W),Mechanical Power (W),Motor Efficiency (%),Propeller Mech. Efficiency (N/W),Overall Efficiency (N/W),Vibration (g),App message,90% settling time (s),Max acceleration (RPM/s),
0,1000,,,,-0.0625,0.046875,-0.95703125,-0.00027014607423660777,-0.012034547471551959,23.064089631448127,0.08301817382265408,0,0,1.9147386020848343,0,0,0,0,0.05859375,,
0,1000,,,,-0.0625,0.048828125,-0.95703125,-0.00027014607423660777,-0.012034547471551959,23.0641317731673,0.08149953020374362,0,0,1.8797159040703713,0,0,0,0,0.05859375,,
0.01053499999921769,1000,,,,-0.0625,0.05078125,-0.953125,-0.00027014607423660777,-0.012034547471551959,23.064125551201165,0.08217852696852485,0,0,1.895375863614828,0,0,0,0,0.05859375,,
0.018274999999441207,1000,,,,-0.0625,0.05078125,-0.95703125,-0.00027014607423660777,-0.012034547471551959,23.064450675925166,0.08156436457431387,0,0,1.8812372636374404,0,0,0,0,0.05859375,,
0.027115000000223516,1000,,,,-0.0625,0.05078125,-0.95703125,-0.00027014607423660777,-0.012034547471551959,23.064362176627093,0.08108368856735894,0,0,1.870143559734404,0,0,0,0,0.05859375,,
0.03532500000018626,1000,,,,-0.0625,0.05078125,-0.95703125,-0.00027014607423660777,-0.012034547471551959,23.06454290542506,0.08278239940315352,0,0,1.9093382028480683,0,0,0,0,0.05859375,,
0.04336499999929219,1000,,,,-0.0625,0.046875,-0.958984375,-0.00027014607423660777,-0.012034547471551959,23.06464887978768,0.08245494924329502,0,0,1.9017944526973145,0,0,0,0,0.05859375,,
0.051399999999441205,1000,,,,-0.0625,0.05078125,-0.95703125,-0.00027014607423660777,-0.012034547471551959,23.064617729215907,0.08340686821044231,0,0,1.9237475312649424,0,0,0,0,0.05859375,,
0.06857499999925494,1000,,,,-0.0625,0.044921875,-0.953125,-0.00027014607423660777,-0.012034547471551959,23.06467718177059,0.08200595391653087,0,0,1.8914408540679402,0,0,0,0,0.05859375,,
0.07625999999977648,1000,,,,-0.0625,0.046875,-0.95703125,-0.00027014607423660777,-0.012034547471551959,23.064580138593957,0.08109828588869963,0,0,1.8704979139825162,0,0,0,0,0.05859375,,
0.08469499999936671,1000,,,,-0.0625,0.048828125,-0.95703125,-0.00027014607423660777,-0.012034547471551959,23.064684878387368,0.07976388094053555,0,0,1.8397287785706606,0,0,0,0,0.05859375,,
0.09154999999888241,1000,,,,-0.0625,0.05078125,-0.953125,-0.00027014607423660777,-0.012034547471551959,23.064715108664064,0.07899564193479992,0,0,1.8220119760521962,0,0,0,0,0.05859375,,
0.09868999999947846,1000,,,,-0.0625,0.05078125,-0.955078125,-0.00027014607423660777,-0.012034547471551959,23.064684625702064,0.07887711984059997,0,0,1.8192758933071456,0,0,0,0,0.05859375,,
0.10568499999959022,1000,,,,-0.0625,0.05078125,-0.9609375,-0.00027014607423660777,-0.012034547471551959,23.06482958603518,0.07989869099736435,0,0,1.842849692001492,0,0,0,0,0.05859375,,
0.11441500000003725,1000,,,,-0.0625,0.048828125,-0.955078125,-0.00027014607423660777,-0.012034547471551959,23.064887918984276,0.08003974748814055,0,0,1.846107804877765,0,0,0,0,0.05859375,,
0.1233199999993667,1000,,,,-0.0625,0.05078125,-0.95703125,-0.00027014607423660777,-0.012034547471551959,23.06513071764563,0.07888378029014063,0,0,1.8194647038941316,0,0,0,0,0.05859375,,
0.13259499999973923,1000,,,,-0.0625,0.046875,-0.95703125,-0.0002763961114688467,-0.012829614194155042,23.06514196535117,0.07752511099679299,0,0,1.7881276910206374,0,0,0,0,0.05859375,,
0.14023499999940395,1000,,,,-0.0625,0.048828125,-0.953125,-0.0002763961114688467,-0.012829614194155042,23.065281999778353,0.07778014996643245,0,0,1.7940210929608154,0,0,0,0,0.05859375,,
0.14850499999895692,1000,,,,-0.0625,0.046875,-0.958984375,-0.0002763961114688467,-0.012829614194155042,23.065482174449222,0.07813218578532212,0,0,1.8021565384821023,0,0,0,0,0.05859375,,
0.1561849999995902,1000,,,,-0.0625,0.05078125,-0.95703125,-0.0002763961114688467,-0.012829614194155042,23.065474999358965,0.0782515507675482,0,0,1.8049091878899517,0,0,0,0,0.05859375,,
0.16640500000026076,1000,,,,-0.0625,0.048828125,-0.953125,-0.0002763961114688467,-0.012829614194155042,23.06540315441382,0.07878728180230272,0,0,1.8172604182105236,0,0,0,0,0.05859375,,
0.17574999999906868,1000,,,,-0.0625,0.052734375,-0.95703125,-0.0002763961114688467,-0.012829614194155042,23.065190697541464,0.0796441488770801,0,0,1.8370074817932354,0,0,0,0,0.05859375,,
0.18342499999888243,1000,,,,-0.0625,0.05078125,-0.95703125,-0.0002763961114688467,-0.012829614194155042,23.065198112257676,0.07991924223182897,0,0,1.8433531550586455,0,0,0,0,0.05859375,,
0.1923999999994412,1000,,,,-0.0625,0.046875,-0.95703125,-0.0002763961114688467,-0.012829614194155042,23.065139513745162,0.08037535335008579,0,0,1.8538687384862933,0,0,0,0,0.05859375,,
0.20068999999947845,1000,,,,-0.0625,0.048828125,-0.95703125,-0.0002763961114688467,-0.012829614194155042,23.065225586682118,0.07989662933085102,0,0,1.842833779131602,0,0,0,0,0.05859375,,
0.2085,1000,,,,-0.0625,0.05078125,-0.95703125,-0.0002763961114688467,-0.012829614194155042,23.06506894924908,0.0803504973808564,0,0,1.8532897621959106,0,0,0,0,0.05859375,,
0.21682499999925495,1000,,,,-0.0625,0.046875,-0.95703125,-0.0002763961114688467,-0.012829614194155042,23.06521028325088,0.07973298700647749,0,0,1.8390581118161136,0,0,0,0,0.05859375,,
0.22560999999940395,1000,,,,-0.0625,0.048828125,-0.955078125,-0.0002763961114688467,-0.012829614194155042,23.065347970895132,0.079559718627356,0,0,1.8350725946064734,0,0,0,0,0.05859375,,
0.23316499999910592,1000,,,,-0.0625,0.044921875,-0.958984375,-0.0002763961114688467,-0.012829614194155042,23.0652737390901,0.07913652169702697,0,0,1.8253055357013699,0,0,0,0,0.05859375,,
0.24149999999906868,1000,,,,-0.0625,0.048828125,-0.953125,-0.0002763961114688467,-0.012829614194155042,23.065407888734526,0.078353071740551,0,0,1.8072455590310874,0,0,0,0,0.05859375,,
0.2503149999994785,1000,,,,-0.0625,0.052734375,-0.95703125,-0.0002763961114688467,-0.012829614194155042,23.06533073023756,0.0799025018530797,0,0,1.8429776314147028,0,0,0,0,0.05859375,,
0.2583699999991804,1000,,,,-0.0625,0.0546875,-0.9609375,-0.0002763961114688467,-0.012829614194155042,23.06526595729586,0.07908837682734081,0,0,1.8241944456534507,0,0,0,0,0.05859375,,
0.2662899999991059,1000,,,,-0.0625,0.052734375,-0.95703125,-0.0002763961114688467,-0.012829614194155042,23.065399754886073,0.08022216080588199,0,0,1.8503562081884215,0,0,0,0,0.05859375,,
0.27439499999955297,1000,,,,-0.0625,0.05078125,-0.953125,-0.0002763961114688467,-0.013145479818893724,23.06539661466465,0.07916685944437168,0,0,1.8260150118218428,0,0,0,0,0.05859375,,
0.28229499999992547,1000,,,,-0.0625,0.046875,-0.953125,-0.00034275958697321546,-0.013145479818893724,23.06542615461849,0.0790231074833169,0,0,1.8227016501649256,0,0,0,0,0.05859375,,
0.28957499999925496,1000,,,,-0.0625,0.046875,-0.953125,-0.00034275958697321546,-0.013145479818893724,23.065357627249178,0.07888829634370204,0,0,1.819586767771901,0,0,0,0,0.05859375,,
0.2967299999995157,1000,,,,-0.0625,0.046875,-0.95703125,-0.00034275958697321546,-0.013145479818893724,23.065356537158422,0.07914828132374942,0,0,1.8255833280355975,0,0,0,0,0.05859375,,
0.3053149999994785,1000,,,,-0.0625,0.05078125,-0.953125,-0.00034275958697321546,-0.013145479818893724,23.065288524935717,0.07867474696968771,0,0,1.8146557384821589,0,0,0,0,0.05859375,,
0.312339999999851,1000,,,,-0.0625,0.05078125,-0.9609375,-0.00034275958697321546,-0.013145479818893724,23.065290575773567,0.07912906538757111,0,0,1.8251348861537142,0,0,0,0,0.05859375,,
0.3264349999995902,1000,,,,-0.0625,0.05078125,-0.955078125,-0.00034275958697321546,-0.013145479818893724,23.065423735372075,0.0783469330434483,0,0,1.807105209013959,0,0,0,0,0.05859375,,
0.33382499999925497,1000,,,,-0.0625,0.05078125,-0.953125,-0.00034275958697321546,-0.013145479818893724,23.065237778734854,0.07773290951331852,0,0,1.792928041157572,0,0,0,0,0.05859375,,
0.34283499999903144,1000,,,,-0.0625,0.046875,-0.95703125,-0.00034275958697321546,-0.013145479818893724,23.06530824061489,0.07851353020277,0,0,1.8109387751857167,0,0,0,0,0.05859375,,
0.3512299999995157,1000,,,,-0.0625,0.048828125,-0.95703125,-0.00034275958697321546,-0.013145479818893724,23.065237323376863,0.0787425081264665,0,0,1.816214637374881,0,0,0,0,0.05859375,,
0.35952999999932944,1000,,,,-0.0625,0.046875,-0.95703125,-0.00034275958697321546,-0.013145479818893724,23.06530870389533,0.07926652949956618,0,0,1.8283069727939198,0,0,0,0,0.05859375,,
0.367554999999702,1000,,,,-0.0625,0.048828125,-0.953125,-0.00034275958697321546,-0.013145479818893724,23.06524465251347,0.07911736764964229,0,0,1.8248614411018542,0,0,0,0,0.05859375,,
0.3759799999995157,1000,,,,-0.0625,0.046875,-0.955078125,-0.00034275958697321546,-0.013145479818893724,23.065248990581456,0.07940313092825291,0,0,1.8314529854918926,0,0,0,0,0.05859375,,
0.383464999999851,1000,,,,-0.0625,0.046875,-0.953125,-0.00034275958697321546,-0.013145479818893724,23.065188535026103,0.07966952295874585,0,0,1.8375925675390636,0,0,0,0,0.05859375,,
0.3916949999993667,1000,,,,-0.0625,0.046875,-0.955078125,-0.00034275958697321546,-0.013145479818893724,23.06522881283394,0.07885397089673933,0,0,1.818784881533841,0,0,0,0,0.05859375,,
0.39924499999918045,1000,,,,-0.0625,0.05078125,-0.955078125,-0.00034275958697321546,-0.013145479818893724,23.06523399412686,0.079774350415072,0,0,1.8400140590531069,0,0,0,0,0.05859375,,
0.4064149999991059,1000,,,,-0.0625,0.05078125,-0.95703125,-0.00034275958697321546,-0.013145479818893724,23.065355604361482,0.0796182912221106,0,0,1.8364241996495934,0,0,0,0,0.05859375,,
0.41434999999962746,1000,,,,-0.0625,0.05078125,-0.95703125,-0.00034275958697321546,-0.013145479818893724,23.06535448013671,0.07945362369077506,0,0,1.8326259951591146,0,0,0,0,0.05859375,,
0.4224699999997392,1000,,,,-0.0625,0.05078125,-0.958984375,-0.00034275958697321546,-0.013145479818893724,23.065287338165895,0.07864682315176304,0,0,1.8140115742293323,0,0,0,0,0.05859375,,
0.43158999999891967,1000,,,,-0.0625,0.05078125,-0.95703125,-0.0003523549795932815,-0.011739914279369707,23.065544676285736,0.07709310055850085,0,0,1.7781943551654902,0,0,0,0,0.05859375,,
0.440089999999851,1000,,,,-0.0625,0.044921875,-0.953125,-0.0003523549795932815,-0.011739914279369707,23.065599410264536,0.07662719598993038,0,0,1.7674522066355633,0,0,0,0,0.05859375,,
0.4484949999991804,1000,,,,-0.0625,0.044921875,-0.955078125,-0.0003523549795932815,-0.011739914279369707,23.065361327070967,0.07708913402423183,0,0,1.7780887306599076,0,0,0,0,0.05859375,,
0.4567749999994412,1000,,,,-0.0625,0.046875,-0.953125,-0.0003523549795932815,-0.011739914279369707,23.065491640781744,0.07704631701849958,0,0,1.7771111811432223,0,0,0,0,0.05859375,,
0.4641049999995157,1000,,,,-0.0625,0.046875,-0.95703125,-0.0003523549795932815,-0.011739914279369707,23.065421033955147,0.07741866741119686,0,0,1.785694159726998,0,0,0,0,0.05859375,,
0.47503999999910596,1000,,,,-0.0625,0.05078125,-0.95703125,-0.0003523549795932815,-0.011739914279369707,23.06554878480665,0.07800417402771116,0,0,1.7992090814547197,0,0,0,0,0.05859375,,
0.4842449999991804,1000,,,,-0.0625,0.052734375,-0.95703125,-0.0003523549795932815,-0.011739914279369707,23.06557956477392,0.07877080988312625,0,0,1.8168943827409283,0,0,0,0,0.05859375,,
0.49275499999895694,1000,,,,-0.0625,0.048828125,-0.95703125,-0.0003523549795932815,-0.011739914279369707,23.065493739940468,0.0776882375071107,0,0,1.79191755588727,0,0,0,0,0.05859375,,
0.500625,1000,,,,-0.0625,0.046875,-0.95703125,-0.0003523549795932815,-0.011739914279369707,23.06542098149953,0.07761673581363154,0,0,1.7902626867512428,0,0,0,0,0.05859375,,
0.5085800000000745,1000,,,,-0.0625,0.048828125,-0.955078125,-0.0003523549795932815,-0.011739914279369707,23.065157130437324,0.07723208246569327,0,0,1.7813701175821086,0,0,0,0,0.05859375,,
0.5168649999992921,1000,,,,-0.0625,0.05078125,-0.955078125,-0.0003523549795932815,-0.011739914279369707,23.064967153164698,0.07739755971523744,0,0,1.7851721725670548,0,0,0,0,0.05859375,,
0.5247099999999627,1000,,,,-0.0625,0.05078125,-0.95703125,-0.0003523549795932815,-0.011739914279369707,23.064720155102933,0.07733903319064783,0,0,1.7838031576085098,0,0,0,0,0.05859375,,
0.532469999998808,1000,,,,-0.0625,0.048828125,-0.955078125,-0.0003523549795932815,-0.011739914279369707,23.06488163465965,0.07728398589453257,0,0,1.7825459869120996,0,0,0,0,0.05859375,,
0.5408250000001863,1000,,,,-0.0625,0.048828125,-0.955078125,-0.0003523549795932815,-0.011739914279369707,23.06496964792223,0.07723161806085088,0,0,1.7813449264334478,0,0,0,0,0.05859375,,
0.5485499999998137,1000,,,,-0.0625,0.046875,-0.95703125,-0.0003523549795932815,-0.011739914279369707,23.064923680684423,0.07759541471898451,0,0,1.7897323184644345,0,0,0,0,0.05859375,,
0.5574749999996275,1000,,,,-0.0625,0.046875,-0.953125,-0.0003523549795932815,-0.011739914279369707,23.06487171182019,0.0775179752604157,0,0,1.7879421547415395,0,0,0,0,0.05859375,,
0.565929999999702,1000,,,,-0.0625,0.05078125,-0.955078125,-0.0003523549795932815,-0.011739914279369707,23.065019279361636,0.0780705390975699,0,0,1.8006984894356062,0,0,0,0,0.05859375,,
0.574929999999702,1000,,,,-0.0625,0.05078125,-0.95703125,-0.0003523549795932815,-0.011203050134684298,23.064957682593477,0.07822131412266141,0,0,1.8041713001160369,0,0,0,0,0.05859375,,
0.5833749999990687,1000,,,,-0.0625,0.052734375,-0.958984375,-0.00033429990258551385,-0.011203050134684298,23.064909312828636,0.0781201880254957,0,0,1.8018350523091797,0,0,0,0,0.05859375,,
0.5917449999991804,1000,,,,-0.0625,0.05078125,-0.955078125,-0.00033429990258551385,-0.011203050134684298,23.064865448830147,0.07844771981362847,0,0,1.8093861022688675,0,0,0,0,0.05859375,,
0.602054999999702,1000,,,,-0.0625,0.05078125,-0.953125,-0.00033429990258551385,-0.011203050134684298,23.06495469002597,0.0781225372158198,0,0,1.8018927811527512,0,0,0,0,0.05859375,,
0.609464999999851,1000,,,,-0.0625,0.044921875,-0.953125,-0.00033429990258551385,-0.011203050134684298,23.064896860071233,0.07748113728804465,0,0,1.7870944401497693,0,0,0,0,0.05859375,,
0.6175499999998137,1000,,,,-0.0625,0.046875,-0.95703125,-0.00033429990258551385,-0.011203050134684298,23.06505010509062,0.07849097544472916,0,0,1.8103982814301156,0,0,0,0,0.05859375,,
0.6285099999997765,1000,,,,-0.0625,0.046875,-0.95703125,-0.00033429990258551385,-0.011203050134684298,23.06506393340966,0.07795460182399024,0,0,1.798027874973828,0,0,0,0,0.05859375,,
0.6366849999995903,1000,,,,-0.0625,0.046875,-0.95703125,-0.00033429990258551385,-0.011203050134684298,23.06508184788957,0.07783895021301244,0,0,1.7953617576169332,0,0,0,0,0.05859375,,
0.6496349999997765,1000,,,,-0.0625,0.05078125,-0.95703125,-0.00033429990258551385,-0.011203050134684298,23.065102256718657,0.07593958958766384,0,0,1.7515543991727138,0,0,0,0,0.05859375,,
0.6577149999989197,1000,,,,-0.0625,0.05078125,-0.95703125,-0.00033429990258551385,-0.011203050134684298,23.065050885561273,0.0753456772358836,0,0,1.737851879452731,0,0,0,0,0.05859375,,
0.6665949999997393,1000,,,,-0.0625,0.048828125,-0.955078125,-0.00033429990258551385,-0.011203050134684298,23.06499383711776,0.07562912352136653,0,0,1.744385267926937,0,0,0,0,0.05859375,,
0.6749399999994785,1000,,,,-0.0625,0.046875,-0.953125,-0.00033429990258551385,-0.011203050134684298,23.065045679674885,0.07565959905052091,0,0,1.7450921082061515,0,0,0,0,0.05859375,,
0.6827900000000372,1000,,,,-0.0625,0.04296875,-0.95703125,-0.00033429990258551385,-0.011203050134684298,23.065246635206567,0.0752793891305893,0,0,1.7363376768447307,0,0,0,0,0.05859375,,
0.690894999999553,1000,,,,-0.0625,0.048828125,-0.953125,-0.00033429990258551385,-0.011203050134684298,23.065185326663514,0.07618084985309326,0,0,1.757125420204323,0,0,0,0,0.05859375,,
0.6994699999997392,1000,,,,-0.0625,0.05078125,-0.955078125,-0.00033429990258551385,-0.011203050134684298,23.06504919423543,0.07688714035057864,0,0,1.7734056745901805,0,0,0,0,0.05859375,,
0.7079599999999627,1000,,,,-0.0625,0.046875,-0.953125,-0.00033429990258551385,-0.011203050134684298,23.06499522924946,0.07785848358206669,0,0,1.7958055523769658,0,0,0,0,0.05859375,,
0.7156049999995158,1000,,,,-0.0625,0.048828125,-0.95703125,-0.00033429990258551385,-0.011203050134684298,23.064948613028122,0.07818875557124648,0,0,1.8034196293674163,0,0,0,0,0.05859375,,
0.7235949999997392,1000,,,,-0.0625,0.05078125,-0.95703125,-0.00033429990258551385,-0.011289652451597085,23.065099940530526,0.07809121201220942,0,0,1.8011816095387683,0,0,0,0,0.05859375,,
0.731699999999255,1000,,,,-0.0625,0.05078125,-0.95703125,-0.0003269997684713767,-0.011289652451597085,23.06504634473286,0.0776824720172831,0,0,1.791749817252048,0,0,0,0,0.05859375,,
0.7399099999992177,1000,,,,-0.0625,0.05078125,-0.955078125,-0.0003269997684713767,-0.011289652451597085,23.065256241077954,0.07718630709097225,0,0,1.7803219513558073,0,0,0,0,0.05859375,,
0.7476650000000372,1000,,,,-0.0625,0.046875,-0.95703125,-0.0003269997684713767,-0.011289652451597085,23.065389448410055,0.07713944455489838,0,0,1.7792513304927655,0,0,0,0,0.05859375,,
0.7554799999995158,1000,,,,-0.0625,0.05078125,-0.95703125,-0.0003269997684713767,-0.011289652451597085,23.065320985992187,0.07773625002485031,0,0,1.7930115590705156,0,0,0,0,0.05859375,,
0.7644599999990315,1000,,,,-0.0625,0.046875,-0.955078125,-0.0003269997684713767,-0.011289652451597085,23.06532154605056,0.07744944566676226,0,0,1.7863963678672437,0,0,0,0,0.05859375,,
0.7730449999999255,1000,,,,-0.0625,0.05078125,-0.95703125,-0.0003269997684713767,-0.011289652451597085,23.06509838390391,0.0788390805442236,0,0,1.818431149249042,0,0,0,0,0.05859375,,
0.7834699999997392,1000,,,,-0.0625,0.05078125,-0.953125,-0.0003269997684713767,-0.011289652451597085,23.065110005821975,0.08019491493537305,0,0,1.849704534891915,0,0,0,0,0.05859375,,
0.7943849999988452,1000,,,,-0.0625,0.05078125,-0.955078125,-0.0003269997684713767,-0.011289652451597085,23.065025963471896,0.07915365845666186,0,0,1.8256811874066927,0,0,0,0,0.05859375,,
0.8026749999998137,1000,,,,-0.0625,0.046875,-0.95703125,-0.0003269997684713767,-0.011289652451597085,23.065043270795435,0.07923321865403302,0,0,1.8275176167396676,0,0,0,0,0.05859375,,
0.8098700000001118,1000,,,,-0.0625,0.048828125,-0.955078125,-0.0003269997684713767,-0.011289652451597085,23.064997525690753,0.07881554016215173,0,0,1.8178802388260098,0,0,0,0,0.05859375,,
0.8178650000002236,1000,,,,-0.0625,0.048828125,-0.95703125,-0.0003269997684713767,-0.011289652451597085,23.06514499389457,0.07932751605104403,0,0,1.8297006597228294,0,0,0,0,0.05859375,,
0.826859999999404,1000,,,,-0.0625,0.052734375,-0.955078125,-0.0003269997684713767,-0.011289652451597085,23.065155189751874,0.07939469080022882,0,0,1.831250864549643,0,0,0,0,0.05859375,,
0.8338349999990314,1000,,,,-0.0625,0.05078125,-0.953125,-0.0003269997684713767,-0.011289652451597085,23.06516375423675,0.07882183969583036,0,0,1.8180386399945259,0,0,0,0,0.05859375,,
0.8408899999996647,1000,,,,-0.0625,0.048828125,-0.953125,-0.0003269997684713767,-0.011289652451597085,23.06528725913758,0.07842548870395223,0,0,1.8089064253949076,0,0,0,0,0.05859375,,
0.8489199999989941,1000,,,,-0.0625,0.046875,-0.953125,-0.0003269997684713767,-0.011289652451597085,23.065465492911883,0.07851963628529529,0,0,1.8110919612544703,0,0,0,0,0.05859375,,
0.8567199999997392,1000,,,,-0.0625,0.046875,-0.95703125,-0.0003269997684713767,-0.011289652451597085,23.065394330048797,0.07745948446056486,0,0,1.7866335536852156,0,0,0,0,0.05859375,,
0.8646749999998138,1000,,,,-0.0625,0.046875,-0.95703125,-0.0003269997684713767,-0.011289652451597085,23.065391470121483,0.07761217871451909,0,0,1.7901552848994127,0,0,0,0,0.05859375,,
0.877859999999404,1000,,,,-0.0625,0.052734375,-0.95703125,-0.0003269997684713767,-0.015471728325879463,23.06528484743188,0.07850437102128412,0,0,1.8107256793743949,0,0,0,0,0.05859375,,
0.8875749999992549,1000,,,,-0.0625,0.05078125,-0.95703125,-0.0003608602374484818,-0.015471728325879463,23.06525446162731,0.07754519674317484,0,0,1.7885996951582808,0,0,0,0,0.05859375,,
0.8962400000002235,1000,,,,-0.0625,0.048828125,-0.955078125,-0.0003608602374484818,-0.015471728325879463,23.065192356370762,0.07812513564687883,0,0,1.8019712815628184,0,0,0,0,0.05859375,,
0.9052649999996647,1000,,,,-0.0625,0.05078125,-0.953125,-0.0003608602374484818,-0.015471728325879463,23.065236564484668,0.07890956821149782,0,0,1.8200678579995364,0,0,0,0,0.05859375,,
0.9139199999999255,1000,,,,-0.0625,0.05078125,-0.955078125,-0.0003608602374484818,-0.015471728325879463,23.065168545979407,0.07828333242027022,0,0,1.8056182566144667,0,0,0,0,0.05859375,,
0.9219899999992922,1000,,,,-0.0625,0.05078125,-0.95703125,-0.0003608602374484818,-0.015471728325879463,23.065111150844757,0.07882209540343073,0,0,1.8180403916226193,0,0,0,0,0.05859375,,
0.9299349999986589,1000,,,,-0.0625,0.048828125,-0.955078125,-0.0003608602374484818,-0.015471728325879463,23.065057207205772,0.0797497200427828,0,0,1.83943185504543,0,0,0,0,0.05859375,,
0.9413349999990315,1000,,,,-0.0625,0.05078125,-0.95703125,-0.0003608602374484818,-0.015471728325879463,23.064999376407616,0.07955641103684968,0,0,1.8349685709541659,0,0,0,0,0.05859375,,
0.9562999999998137,1000,,,,-0.0625,0.046875,-0.955078125,-0.0003608602374484818,-0.015471728325879463,23.064903228500015,0.07973275261101878,0,0,1.83902822311508,0,0,0,0,0.05859375,,
0.9638799999989569,1000,,,,-0.0625,0.046875,-0.953125,-0.0003608602374484818,-0.015471728325879463,23.064989440136575,0.080409501540623,0,0,1.8546443039211151,0,0,0,0,0.05859375,,
0.9718799999998883,1000,,,,-0.0625,0.05078125,-0.95703125,-0.0003608602374484818,-0.015471728325879463,23.064843289139922,0.07988641103441271,0,0,1.8425675514405475,0,0,0,0,0.05859375,,
0.9798099999995902,1000,,,,-0.0625,0.05078125,-0.95703125,-0.0003608602374484818,-0.015471728325879463,23.064932102746287,0.07970797992438293,0,0,1.8384591450029564,0,0,0,0,0.05859375,,
0.9965949999997392,1000,,,,-0.0625,0.046875,-0.955078125,-0.0003608602374484818,-0.015471728325879463,23.065097430642975,0.07938991119459628,0,0,1.8311360367134566,0,0,0,0,0.05859375,,
1.0046049999995157,1000,,,,-0.0625,0.05078125,-0.95703125,-0.0003608602374484818,-0.015471728325879463,23.065043204467003,0.07955530219660166,0,0,1.834946482309046,0,0,0,0,0.05859375,,
1.0118699999991805,1000,,,,-0.0625,0.05078125,-0.95703125,-0.0003608602374484818,-0.015471728325879463,23.06525525248652,0.07941277020961138,0,0,1.8316758151917438,0,0,0,0,0.05859375,,
1.0197799999993296,1000,,,,-0.0625,0.046875,-0.958984375,-0.0003608602374484818,-0.015471728325879463,23.065389983671274,0.07925606389338827,0,0,1.8280720222717683,0,0,0,0,0.05859375,,
1.0280099999997765,1000,,,,-0.0625,0.05078125,-0.95703125,-0.0003608602374484818,-0.017154953494775336,23.06542006649013,0.07910687106955336,0,0,1.8246332113649235,0,0,0,0,0.05859375,,
1.035984999999404,1000,,,,-0.0625,0.048828125,-0.951171875,-0.0003842220930821972,-0.017154953494775336,23.065350306031306,0.07928497155955967,0,0,1.828735643024973,0,0,0,0,0.05859375,,
1.0440899999989197,1000,,,,-0.0625,0.048828125,-0.955078125,-0.0003842220930821972,-0.017154953494775336,23.065218590349165,0.07892142171989697,0,0,1.820339843430554,0,0,0,0,0.05859375,,
1.052234999999404,1000,,,,-0.0625,0.046875,-0.953125,-0.0003842220930821972,-0.017154953494775336,23.065027644981882,0.07836158511467024,0,0,1.8074121269744698,0,0,0,0,0.05859375,,
1.0594749999996276,1000,,,,-0.0625,0.046875,-0.95703125,-0.0003842220930821972,-0.017154953494775336,23.06507504664239,0.0788909776805943,0,0,1.8196263207058976,0,0,0,0,0.05859375,,
1.0670149999996648,1000,,,,-0.0625,0.05078125,-0.95703125,-0.0003842220930821972,-0.017154953494775336,23.065086088190466,0.07914867927592975,0,0,1.8255711012658964,0,0,0,0,0.05859375,,
1.0750249999994412,1000,,,,-0.0625,0.05078125,-0.953125,-0.0003842220930821972,-0.017154953494775336,23.06523094752186,0.07932675739335147,0,0,1.8296899795956891,0,0,0,0,0.05859375,,
1.0831049999995157,1000,,,,-0.0625,0.046875,-0.953125,-0.0003842220930821972,-0.017154953494775336,23.065431194328426,0.07875120421324862,0,0,1.8164304822511927,0,0,0,0,0.05859375,,
1.094339999999851,1000,,,,-0.0625,0.048828125,-0.955078125,-0.0003842220930821972,-0.017154953494775336,23.06512673250736,0.07812239232023142,0,0,1.8019028795127974,0,0,0,0,0.05859375,,
1.102109999999404,1000,,,,-0.0625,0.05078125,-0.955078125,-0.0003842220930821972,-0.017154953494775336,23.06513907224199,0.0772434599811587,0,0,1.781631146886584,0,0,0,0,0.05859375,,
1.1117199999997391,1000,,,,-0.0625,0.05078125,-0.955078125,-0.0003842220930821972,-0.017154953494775336,23.065290758545935,0.07753420657182285,0,0,1.788349018312257,0,0,0,0,0.05859375,,
1.1202900000000373,1000,,,,-0.0625,0.046875,-0.95703125,-0.0003842220930821972,-0.017154953494775336,23.065397819107485,0.07806349061594364,0,0,1.8005654662049042,0,0,0,0,0.05859375,,
1.1288299999991431,1000,,,,-0.0625,0.048828125,-0.953125,-0.0003842220930821972,-0.017154953494775336,23.065522910480734,0.07797496334259514,0,0,1.7985333034225237,0,0,0,0,0.05859375,,
1.136894999999553,1000,,,,-0.0625,0.048828125,-0.955078125,-0.0003842220930821972,-0.017154953494775336,23.065647685813985,0.07897885222004926,0,0,1.8216983799376238,0,0,0,0,0.05859375,,
1.1449949999991804,1000,,,,-0.0625,0.046875,-0.95703125,-0.0003842220930821972,-0.017154953494775336,23.065632007499573,0.07862567349267302,0,0,1.8135508511238096,0,0,0,0,0.05859375,,
1.1530949999997393,1000,,,,-0.0625,0.046875,-0.955078125,-0.0003842220930821972,-0.017154953494775336,23.065551778849144,0.07722635510033163,0,0,1.7812684922584898,0,0,0,0,0.05859375,,
1.1611049999995158,1000,,,,-0.0625,0.048828125,-0.95703125,-0.0003842220930821972,-0.017154953494775336,23.065540876466937,0.07760782682656103,0,0,1.7900665020018107,0,0,0,0,0.05859375,,
1.1698099999995901,1000,,,,-0.0625,0.046875,-0.95703125,-0.0003842220930821972,-0.017154953494775336,23.065602269844476,0.07658626199041822,0,0,1.7665082584050942,0,0,0,0,0.05859375,,
1.1824199999989942,1000,,,,-0.0625,0.05078125,-0.95703125,-0.0003842220930821972,-0.015592032699706222,23.065633527985252,0.07706678176101385,0,0,1.7775941452807633,0,0,0,0,0.05859375,,
1.198179999999702,1000,,,,-0.0625,0.046875,-0.95703125,-0.0003205130510529255,-0.015592032699706222,23.065468865958845,0.07698675655558007,0,0,1.7757356364238852,0,0,0,0,0.05859375,,
1.2054249999988824,1000,,,,-0.0625,0.048828125,-0.95703125,-0.0003205130510529255,-0.015592032699706222,23.065493269399052,0.07814473319610529,0,0,1.8024468175737514,0,0,0,0,0.05859375,,
1.2132949999999254,1000,,,,-0.0625,0.046875,-0.953125,-0.0003205130510529255,-0.015592032699706222,23.065422719326815,0.0778485900451752,0,0,1.7956106374955436,0,0,0,0,0.05859375,,
1.220429999999702,1000,,,,-0.0625,0.046875,-0.953125,-0.0003205130510529255,-0.015592032699706222,23.065537504477025,0.07777614005181165,0,0,1.793948475318519,0,0,0,0,0.05859375,,
1.2297299999995157,1000,,,,-0.0625,0.05078125,-0.95703125,-0.0003205130510529255,-0.015592032699706222,23.06566169179705,0.0774789395162779,0,0,1.787103007121672,0,0,0,0,0.05859375,,
1.2378149999994785,1000,,,,-0.0625,0.046875,-0.955078125,-0.0003205130510529255,-0.015592032699706222,23.065569283380167,0.07837505821108981,0,0,1.8077653352568457,0,0,0,0,0.05859375,,
1.247074999999255,1000,,,,-0.0625,0.05078125,-0.95703125,-0.0003205130510529255,-0.015592032699706222,23.065404280502914,0.07947945027519801,0,0,1.8332256525895707,0,0,0,0,0.05859375,,
1.262449999999255,1000,,,,-0.0625,0.05078125,-0.95703125,-0.0003205130510529255,-0.015592032699706222,23.065329733803722,0.0796110799538801,0,0,1.8362558096004562,0,0,0,0,0.05859375,,
1.2691049999995156,1000,,,,-0.0625,0.048828125,-0.955078125,-0.0003205130510529255,-0.015592032699706222,23.065270457919684,0.08023481370435256,0,0,1.8506376782316927,0,0,0,0,0.05859375,,
1.27625,1000,,,,-0.0625,0.046875,-0.95703125,-0.0003205130510529255,-0.015592032699706222,23.065215160082122,0.07968182412949752,0,0,1.8378784178946836,0,0,0,0,0.05859375,,
1.2898899999996647,1000,,,,-0.0625,0.05078125,-0.955078125,-0.0003205130510529255,-0.015592032699706222,23.065125650172604,0.08038667935347017,0,0,1.8541288598879253,0,0,0,0,0.05859375,,
1.3141550000002609,1000,,,,-0.0625,0.046875,-0.953125,-0.0003205130510529255,-0.015592032699706222,23.06488640562535,0.08138997454890008,0,0,1.8772505175271188,0,0,0,0,0.05859375,,
1.321929999999702,1000,,,,-0.0625,0.046875,-0.955078125,-0.0003205130510529255,-0.014996635611407757,23.065031136439895,0.08074638074962129,0,0,1.8624177861448459,0,0,0,0,0.05859375,,
1.3300949999988079,1000,,,,-0.0625,0.05078125,-0.955078125,-0.000313730114912665,-0.014996635611407757,23.065078455206454,0.08052581212440926,0,0,1.8573341743187146,0,0,0,0,0.05859375,,
1.3381849999995903,1000,,,,-0.0625,0.0546875,-0.95703125,-0.000313730114912665,-0.014996635611407757,23.065156057160216,0.08095146726550996,0,0,1.867158225535084,0,0,0,0,0.05859375,,
1.3461299999998881,1000,,,,-0.0625,0.0546875,-0.95703125,-0.000313730114912665,-0.014996635611407757,23.065165054525757,0.08093201162566271,0,0,1.866710206340708,0,0,0,0,0.05859375,,
1.3542449999991804,1000,,,,-0.0625,0.05078125,-0.95703125,-0.000313730114912665,-0.014996635611407757,23.065205770571808,0.08070281664461099,0,0,1.8614270721726798,0,0,0,0,0.05859375,,
1.3621899999994784,1000,,,,-0.0625,0.05078125,-0.953125,-0.000313730114912665,-0.014996635611407757,23.065146653284838,0.08069588448381948,0,0,1.8612624099358288,0,0,0,0,0.05859375,,
1.3698449999988078,1000,,,,-0.0625,0.046875,-0.953125,-0.000313730114912665,-0.014996635611407757,23.065155893935774,0.08111221266781247,0,0,1.8708658300851668,0,0,0,0,0.05859375,,
1.377289999999106,1000,,,,-0.0625,0.048828125,-0.95703125,-0.000313730114912665,-0.014996635611407757,23.06500386681858,0.0815041310145973,0,0,1.879893097013375,0,0,0,0,0.05859375,,
1.384304999999702,1000,,,,-0.0625,0.046875,-0.95703125,-0.000313730114912665,-0.014996635611407757,23.06513334184029,0.08155713165424294,0,0,1.881126116583137,0,0,0,0,0.05859375,,
1.3916699999999256,1000,,,,-0.0625,0.05078125,-0.95703125,-0.000313730114912665,-0.014996635611407757,23.065170865468996,0.08160791470303787,0,0,1.882300496600188,0,0,0,0,0.05859375,,
1.4025099999997765,1000,,,,-0.0625,0.05078125,-0.95703125,-0.000313730114912665,-0.014996635611407757,23.065246143039126,0.08155532245391439,0,0,1.8810935866744611,0,0,0,0,0.05859375,,
1.4121200000001117,1000,,,,-0.0625,0.05078125,-0.95703125,-0.000313730114912665,-0.014996635611407757,23.065159897864767,0.08238879349778114,0,0,1.900310695818483,0,0,0,0,0.05859375,,
1.4213299999991431,1000,,,,-0.0625,0.05078125,-0.955078125,-0.000313730114912665,-0.014996635611407757,23.065150823446622,0.08240856011222807,0,0,1.9007658681316075,0,0,0,0,0.05859375,,
1.4285800000000746,1000,,,,-0.0625,0.048828125,-0.955078125,-0.000313730114912665,-0.014996635611407757,23.06509474587919,0.08147170510956983,0,0,1.8791525974605578,0,0,0,0,0.05859375,,
1.4359449999993668,1000,,,,-0.0625,0.05078125,-0.95703125,-0.000313730114912665,-0.014996635611407757,23.06510535256417,0.08105045277310036,0,0,1.8694372320845867,0,0,0,0,0.05859375,,
1.4432299999995157,1000,,,,-0.0625,0.048828125,-0.955078125,-0.000313730114912665,-0.014996635611407757,23.06523157378091,0.08140731030294317,0,0,1.8776784639360247,0,0,0,0,0.05859375,,
1.4513899999987334,1000,,,,-0.0625,0.05078125,-0.953125,-0.000313730114912665,-0.014996635611407757,23.065107296011053,0.08136629078633027,0,0,1.8767222272651434,0,0,0,0,0.05859375,,
1.4592399999992922,1000,,,,-0.0625,0.046875,-0.95703125,-0.000313730114912665,-0.014996635611407757,23.065150929153127,0.08143289121226066,0,0,1.8782619264080995,0,0,0,0,0.05859375,,
1.4671599999992178,1000,,,,-0.0625,0.048828125,-0.953125,-0.000313730114912665,-0.014996635611407757,23.064996882380566,0.08245072946140364,0,0,1.9017258179772785,0,0,0,0,0.05859375,,
1.4753149999994783,1000,,,,-0.0625,0.046875,-0.953125,-0.000313730114912665,-0.014871379829343761,23.065079166172346,0.08257152843101322,0,0,1.9045188401331705,0,0,0,0,0.05859375,,
1.4846650000000372,1000,,,,-0.0625,0.046875,-0.95703125,-0.0003218739405300563,-0.014871379829343761,23.065131879934665,0.08072199698976873,0,0,1.8618635061807047,0,0,0,0,0.05859375,,
1.4923700000001117,1000,,,,-0.0625,0.05078125,-0.95703125,-0.0003218739405300563,-0.014871379829343761,23.06514149250996,0.08091874720487209,0,0,1.8664023536770196,0,0,0,0,0.05859375,,
1.4999399999994785,1000,,,,-0.0625,0.0546875,-0.953125,-0.0003218739405300563,-0.014871379829343761,23.065150747448943,0.08111183336361115,0,0,1.8708566639336497,0,0,0,0,0.05859375,,
1.5070849999990314,1000,,,,-0.0625,0.046875,-0.95703125,-0.0003218739405300563,-0.014871379829343761,23.065274048093787,0.08090040542114908,0,0,1.865990021640696,0,0,0,0,0.05859375,,
1.515375,1000,,,,-0.0625,0.05078125,-0.953125,-0.0003218739405300563,-0.014871379829343761,23.06527691220519,0.08088377114111989,0,0,1.865606579073361,0,0,0,0,0.05859375,,
1.5231849999995901,1000,,,,-0.0625,0.048828125,-0.953125,-0.0003218739405300563,-0.014871379829343761,23.06531253223341,0.07873676524371381,0,0,1.8160880981233523,0,0,0,0,0.05859375,,
1.5308299999991433,1000,,,,-0.0625,0.046875,-0.95703125,-0.0003218739405300563,-0.014871379829343761,23.065184250960257,0.0786146797736427,0,0,1.8132620738093075,0,0,0,0,0.05859375,,
1.5395,1000,,,,-0.0625,0.05078125,-0.955078125,-0.0003218739405300563,-0.014871379829343761,23.065124777653196,0.07784032893734123,0,0,1.7953968996733443,0,0,0,0,0.05859375,,
1.5476749999998138,1000,,,,-0.0625,0.048828125,-0.95703125,-0.0003218739405300563,-0.014871379829343761,23.06500325596469,0.07818960079565787,0,0,1.8034433969344281,0,0,0,0,0.05859375,,
1.5580499999998136,1000,,,,-0.0625,0.046875,-0.955078125,-0.0003218739405300563,-0.014871379829343761,23.064857954310362,0.07809436605427737,0,0,1.8012354600738245,0,0,0,0,0.05859375,,
1.5731849999995902,1000,,,,-0.0625,0.05078125,-0.95703125,-0.0003218739405300563,-0.014871379829343761,23.064928784275715,0.07777240607985937,0,0,1.793815007613728,0,0,0,0,0.05859375,,
1.5809699999997393,1000,,,,-0.0625,0.05078125,-0.955078125,-0.0003218739405300563,-0.014871379829343761,23.06469001837622,0.07685619628245347,0,0,1.7726643432462679,0,0,0,0,0.05859375,,
1.5886299999989568,1000,,,,-0.0625,0.0546875,-0.95703125,-0.0003218739405300563,-0.014871379829343761,23.064659840758424,0.07711374246833168,0,0,1.778602239079917,0,0,0,0,0.05859375,,
1.5962999999988825,1000,,,,-0.0625,0.048828125,-0.953125,-0.0003218739405300563,-0.014871379829343761,23.064562564009947,0.07770565919576335,0,0,1.7922470380983186,0,0,0,0,0.05859375,,
1.6044999999990688,1000,,,,-0.0625,0.05078125,-0.953125,-0.0003218739405300563,-0.014871379829343761,23.06443560182823,0.0776321119084463,0,0,1.790540845746282,0,0,0,0,0.05859375,,
1.6120149999996647,1000,,,,-0.0625,0.044921875,-0.951171875,-0.0003218739405300563,-0.014871379829343761,23.064673055240302,0.07777420953241887,0,0,1.793836714994995,0,0,0,0,0.05859375,,
1.6203149999994784,1000,,,,-0.0625,0.048828125,-0.955078125,-0.0003218739405300563,-0.014871379829343761,23.064837051809334,0.07737683842356784,0,0,1.7846841698237716,0,0,0,0,0.05859375,,
1.636464999999851,1000,,,,-0.0625,0.05078125,-0.955078125,-0.00032514697363104125,-0.01482015416306438,23.065139311097443,0.0777839989561333,0,0,1.7940987720974728,0,0,0,0,0.05859375,,
1.646344999998808,1000,,,,-0.0625,0.052734375,-0.95703125,-0.00032514697363104125,-0.01482015416306438,23.065076714333653,0.07841448146272403,0,0,1.808636030452424,0,0,0,0,0.05859375,,
1.654519999999553,1000,,,,-0.0625,0.05078125,-0.953125,-0.00032514697363104125,-0.01482015416306438,23.065018613600532,0.07946823062474694,0,0,1.832936218549688,0,0,0,0,0.05859375,,
1.6622049999991433,1000,,,,-0.0625,0.046875,-0.95703125,-0.00032514697363104125,-0.01482015416306438,23.06509977786861,0.07952201775053133,0,0,1.8341832739534438,0,0,0,0,0.05859375,,
1.6693349999999627,1000,,,,-0.0625,0.046875,-0.955078125,-0.00032514697363104125,-0.01482015416306438,23.06487675715478,0.07880757288533681,0,0,1.8176869561307865,0,0,0,0,0.05859375,,
1.6774550000000745,1000,,,,-0.0625,0.046875,-0.953125,-0.00032514697363104125,-0.01482015416306438,23.064899263458972,0.07953085309910966,0,0,1.8343711150679183,0,0,0,0,0.05859375,,
1.6854799999995158,1000,,,,-0.0625,0.046875,-0.955078125,-0.00032514697363104125,-0.01482015416306438,23.06485518731213,0.07936834860802235,0,0,1.8306194671001417,0,0,0,0,0.05859375,,
1.6933649999992921,1000,,,,-0.0625,0.046875,-0.95703125,-0.00032514697363104125,-0.01482015416306438,23.06500983251226,0.07985376934495902,0,0,1.841827975104646,0,0,0,0,0.05859375,,
1.7014799999995156,1000,,,,-0.0625,0.046875,-0.95703125,-0.00032514697363104125,-0.01482015416306438,23.065058337854996,0.08031252292395924,0,0,1.8524130265014365,0,0,0,0,0.05859375,,
1.7136399999996648,1000,,,,-0.0625,0.05078125,-0.95703125,-0.00032514697363104125,-0.01482015416306438,23.065225041640645,0.08008073972289365,0,0,1.8470802832095932,0,0,0,0,0.05859375,,
1.7223749999990687,1000,,,,-0.0625,0.05078125,-0.955078125,-0.00032514697363104125,-0.01482015416306438,23.065081298794944,0.0794362198010338,0,0,1.8322028677797892,0,0,0,0,0.05859375,,
1.7308449999997393,1000,,,,-0.0625,0.05078125,-0.95703125,-0.00032514697363104125,-0.01482015416306438,23.065224217689224,0.07991625484106736,0,0,1.8432863365472105,0,0,0,0,0.05859375,,
1.7383999999994413,1000,,,,-0.0625,0.05078125,-0.95703125,-0.00032514697363104125,-0.01482015416306438,23.065294744600955,0.07973570871262164,0,0,1.8391276231262645,0,0,0,0,0.05859375,,
1.747789999999106,1000,,,,-0.0625,0.05078125,-0.953125,-0.00032514697363104125,-0.01482015416306438,23.06542745700858,0.08020193394457201,0,0,1.8498918893103198,0,0,0,0,0.05859375,,
1.755609999999404,1000,,,,-0.0625,0.046875,-0.955078125,-0.00032514697363104125,-0.01482015416306438,23.065422249792046,0.07927097786782458,0,0,1.828418576675294,0,0,0,0,0.05859375,,
1.7641499999994412,1000,,,,-0.0625,0.046875,-0.955078125,-0.00032514697363104125,-0.01482015416306438,23.065549786537467,0.07944215167404778,0,0,1.8323769045874099,0,0,0,0,0.05859375,,
1.7724599999990314,1000,,,,-0.0625,0.048828125,-0.955078125,-0.00032514697363104125,-0.015648433097504036,23.06561208685937,0.08023069942451529,0,0,1.850570190383281,0,0,0,0,0.05859375,,
1.7817499999990687,1000,,,,-0.0625,0.046875,-0.953125,-0.0004285345327444276,-0.015648433097504036,23.06566975656975,0.08024877180560043,0,0,1.8509916688383052,0,0,0,0,0.05859375,,
1.7895499999998137,1000,,,,-0.0625,0.05078125,-0.95703125,-0.0004285345327444276,-0.015648433097504036,23.065685936350462,0.07973542816069541,0,0,1.8391523439550348,0,0,0,0,0.05859375,,
1.7985149999996648,1000,,,,-0.0625,0.052734375,-0.958984375,-0.0004285345327444276,-0.015648433097504036,23.065813379108516,0.08002001899477781,0,0,1.8457268247262637,0,0,0,0,0.05859375,,
1.8054949999991805,1000,,,,-0.0625,0.05078125,-0.95703125,-0.0004285345327444276,-0.015648433097504036,23.065736063580307,0.08041317487618327,0,0,1.8547890677285703,0,0,0,0,0.05859375,,
1.8135499999998137,1000,,,,-0.0625,0.048828125,-0.953125,-0.0004285345327444276,-0.015648433097504036,23.06574917199346,0.0805275087466096,0,0,1.8574273181948067,0,0,0,0,0.05859375,,
1.8224999999990688,1000,,,,-0.0625,0.048828125,-0.953125,-0.0004285345327444276,-0.015648433097504036,23.06565272486057,0.08100832397541717,0,0,1.8685098686399688,0,0,0,0,0.05859375,,
1.830339999999851,1000,,,,-0.0625,0.05078125,-0.953125,-0.0004285345327444276,-0.015648433097504036,23.065702283013756,0.08056233326679844,0,0,1.858226794356908,0,0,0,0,0.05859375,,
1.8383699999991805,1000,,,,-0.0625,0.044921875,-0.955078125,-0.0004285345327444276,-0.015648433097504036,23.0657169588123,0.08066853472300446,0,0,1.8606775894029428,0,0,0,0,0.05859375,,
1.8454949999991805,1000,,,,-0.0625,0.04296875,-0.953125,-0.0004285345327444276,-0.015648433097504036,23.065585229241577,0.08010098853475617,0,0,1.8475761779949207,0,0,0,0,0.05859375,,
1.8535649999994785,1000,,,,-0.0625,0.046875,-0.953125,-0.0004285345327444276,-0.015648433097504036,23.0656057382172,0.07991002565571442,0,0,1.8431731463055303,0,0,0,0,0.05859375,,
1.8635599999995902,1000,,,,-0.0625,0.048828125,-0.95703125,-0.0004285345327444276,-0.015648433097504036,23.06572183954631,0.08036240676876359,0,0,1.8536169208847746,0,0,0,0,0.05859375,,
1.8713099999995901,1000,,,,-0.0625,0.05078125,-0.958984375,-0.0004285345327444276,-0.015648433097504036,23.065779804234086,0.08090666456235371,0,0,1.8661753094902798,0,0,0,0,0.05859375,,
1.8807749999994412,1000,,,,-0.0625,0.05078125,-0.95703125,-0.0004285345327444276,-0.015648433097504036,23.06562152285319,0.08022724452861006,0,0,1.850491258118314,0,0,0,0,0.05859375,,
1.889359999999404,1000,,,,-0.0625,0.05078125,-0.955078125,-0.0004285345327444276,-0.015648433097504036,23.065525979493916,0.08018298396648534,0,0,1.8494626997923116,0,0,0,0,0.05859375,,
1.901554999999702,1000,,,,-0.0625,0.048828125,-0.953125,-0.0004285345327444276,-0.015648433097504036,23.06526921824444,0.07989436170532055,0,0,1.8427849617530172,0,0,0,0,0.05859375,,
1.9096699999999256,1000,,,,-0.0625,0.048828125,-0.95703125,-0.0004285345327444276,-0.015648433097504036,23.065285625855914,0.07984156014741196,0,0,1.8415683896140116,0,0,0,0,0.05859375,,
1.917329999999143,1000,,,,-0.0625,0.048828125,-0.955078125,-0.0004285345327444276,-0.015648433097504036,23.065512874708446,0.07966715125167252,0,0,1.8375637028867977,0,0,0,0,0.05859375,,
1.9262399999992923,1000,,,,-0.0625,0.046875,-0.95703125,-0.0004285345327444276,-0.016515527007894652,23.06563407216355,0.0794991888705561,0,0,1.8336991995220642,0,0,0,0,0.05859375,,
1.9348099999995902,1000,,,,-0.0625,0.05078125,-0.95703125,-0.0004283051240921908,-0.016515527007894652,23.065763738347645,0.07979518989690812,0,0,1.8405369976186676,0,0,0,0,0.05859375,,
1.9434199999999255,1000,,,,-0.0625,0.05078125,-0.95703125,-0.0004283051240921908,-0.016515527007894652,23.06574006258036,0.07935690297093785,0,0,1.8304256960990637,0,0,0,0,0.05859375,,
1.9505800000000746,1000,,,,-0.0625,0.048828125,-0.958984375,-0.0004283051240921908,-0.016515527007894652,23.065664359554148,0.07893727512582083,0,0,1.8207406935099657,0,0,0,0,0.05859375,,
1.958714999999851,1000,,,,-0.0625,0.05078125,-0.95703125,-0.0004283051240921908,-0.016515527007894652,23.065516596889996,0.07837495778627859,0,0,1.8077588895999617,0,0,0,0,0.05859375,,
1.9670499999988824,1000,,,,-0.0625,0.046875,-0.955078125,-0.0004283051240921908,-0.016515527007894652,23.06572234393698,0.07849281271164305,0,0,1.8104934240014054,0,0,0,0,0.05859375,,
1.974539999999106,1000,,,,-0.0625,0.048828125,-0.955078125,-0.0004283051240921908,-0.016515527007894652,23.065734572277755,0.07867811146817173,0,0,1.8147684357729317,0,0,0,0,0.05859375,,
1.9827299999995156,1000,,,,-0.0625,0.05078125,-0.953125,-0.0004283051240921908,-0.016515527007894652,23.06551826005749,0.079410844121004,0,0,1.831652275119597,0,0,0,0,0.05859375,,
1.9903149999994785,1000,,,,-0.0625,0.046875,-0.95703125,-0.0004283051240921908,-0.016515527007894652,23.06534604306736,0.07861681163453425,0,0,1.8133239651531767,0,0,0,0,0.05859375,,
1.998259999998845,1000,,,,-0.0625,0.046875,-0.95703125,-0.0004283051240921908,-0.016515527007894652,23.06541065660083,0.07871190122986851,0,0,1.8155223254287212,0,0,0,0,0.05859375,,
2.005734999999404,1000,,,,-0.0625,0.046875,-0.953125,-0.0004283051240921908,-0.016515527007894652,23.065349505302024,0.07860392942274944,0,0,1.8130271046258088,0,0,0,0,0.05859375,,
2.017024999999441,1000,,,,-0.0625,0.046875,-0.955078125,-0.0004283051240921908,-0.016515527007894652,23.065385421977535,0.07918992710762199,0,0,1.8265461902756077,0,0,0,0,0.05859375,,
2.0249550000000744,1000,,,,-0.0625,0.05078125,-0.95703125,-0.0004283051240921908,-0.016515527007894652,23.065300410281083,0.08060683771254644,0,0,1.859220926962658,0,0,0,0,0.05859375,,
2.040790000000037,1000,,,,-0.0625,0.05078125,-0.955078125,-0.0004283051240921908,-0.016515527007894652,23.065747818069582,0.08112907654841703,0,0,1.8713028203786501,0,0,0,0,0.05859375,,
2.0491549999993293,1000,,,,-0.0625,0.05078125,-0.95703125,-0.0004283051240921908,-0.016515527007894652,23.06579752551776,0.0818021227953458,0,0,1.8868312015549868,0,0,0,0,0.05859375,,
2.0573999999994412,1000,,,,-0.0625,0.05078125,-0.95703125,-0.0004283051240921908,-0.016515527007894652,23.065774867829486,0.08195312769017024,0,0,1.8903123930159496,0,0,0,0,0.05859375,,
2.0656149999992923,1000,,,,-0.0625,0.044921875,-0.95703125,-0.0004283051240921908,-0.016515527007894652,23.06578612372183,0.08102393090794345,0,0,1.8688806612258382,0,0,0,0,0.05859375,,
2.0746349999997764,1000,,,,-0.0625,0.048828125,-0.953125,-0.0004283051240921908,-0.016865670554819547,23.065981135369714,0.08123708581042337,0,0,1.8738130887956361,0,0,0,0,0.05859375,,
2.0836599999992176,1000,,,,-0.0625,0.05078125,-0.95703125,-0.00038303547743676633,-0.016865670554819547,23.066202135800264,0.08167732653148105,0,0,1.8839857236869038,0,0,0,0,0.05859375,,
2.091844999999739,1000,,,,-0.0625,0.048828125,-0.953125,-0.00038303547743676633,-0.016865670554819547,23.06622510031613,0.08183643259926676,0,0,1.8876575757415364,0,0,0,0,0.05859375,,
2.0999199999999254,1000,,,,-0.0625,0.046875,-0.95703125,-0.00038303547743676633,-0.016865670554819547,23.065983504819034,0.08220250611005374,0,0,1.8960816499892854,0,0,0,0,0.05859375,,
2.108829999999143,1000,,,,-0.0625,0.048828125,-0.95703125,-0.00038303547743676633,-0.016865670554819547,23.0660205354692,0.08305304368693615,0,0,1.9157032112160899,0,0,0,0,0.05859375,,
2.1168300000000744,1000,,,,-0.0625,0.05078125,-0.953125,-0.00038303547743676633,-0.016865670554819547,23.06598684959069,0.08271861040165586,0,0,1.9079863797410097,0,0,0,0,0.05859375,,
2.1247249999996276,1000,,,,-0.0625,0.052734375,-0.958984375,-0.00038303547743676633,-0.016865670554819547,23.065691517887732,0.08271926048218939,0,0,1.9079769448699817,0,0,0,0,0.05859375,,
2.1327649999996647,1000,,,,-0.0625,0.05078125,-0.95703125,-0.00038303547743676633,-0.016865670554819547,23.065540791983302,0.08282806325053703,0,0,1.910474071626235,0,0,0,0,0.05859375,,
2.140594999999739,1000,,,,-0.0625,0.046875,-0.953125,-0.00038303547743676633,-0.016865670554819547,23.065562854632237,0.08282345618885127,0,0,1.9103696345618284,0,0,0,0,0.05859375,,
2.148829999999143,1000,,,,-0.0625,0.046875,-0.955078125,-0.00038303547743676633,-0.016865670554819547,23.065484676374666,0.08271030291355642,0,0,1.9077532244309425,0,0,0,0,0.05859375,,
2.156969999999739,1000,,,,-0.0625,0.044921875,-0.95703125,-0.00038303547743676633,-0.016865670554819547,23.065413290531417,0.08239807549136562,0,0,1.9005456655527555,0,0,0,0,0.05859375,,
2.1674949999991804,1000,,,,-0.0625,0.046875,-0.95703125,-0.00038303547743676633,-0.016865670554819547,23.065264667942508,0.08206352031655124,0,0,1.8928168156843315,0,0,0,0,0.05859375,,
2.175375,1000,,,,-0.0625,0.05078125,-0.95703125,-0.00038303547743676633,-0.016865670554819547,23.065184580566957,0.08114348196161811,0,0,1.871589388954627,0,0,0,0,0.05859375,,
2.1841849999995904,1000,,,,-0.0625,0.05078125,-0.95703125,-0.00038303547743676633,-0.016865670554819547,23.06517488291924,0.08105468113846805,0,0,1.8695403955380212,0,0,0,0,0.05859375,,
2.190829999999143,1000,,,,-0.0625,0.048828125,-0.95703125,-0.00038303547743676633,-0.016865670554819547,23.06529442132295,0.0819511743072016,0,0,1.8902279635687618,0,0,0,0,0.05859375,,
2.1986149999992923,1000,,,,-0.0625,0.05078125,-0.95703125,-0.00038303547743676633,-0.016865670554819547,23.065236410507953,0.08227842141353414,0,0,1.897771241386565,0,0,0,0,0.05859375,,
2.2058499999996273,1000,,,,-0.0625,0.05078125,-0.95703125,-0.00038303547743676633,-0.016865670554819547,23.065366530736103,0.081993314109767,0,0,1.891205843011552,0,0,0,0,0.05859375,,
2.2137599999997764,1000,,,,-0.0625,0.05078125,-0.953125,-0.00038303547743676633,-0.016865670554819547,23.065483422412484,0.08115997474462314,0,0,1.871994052035521,0,0,0,0,0.05859375,,
2.2216249999990687,1000,,,,-0.0625,0.05078125,-0.953125,-0.00038303547743676633,-0.01372408971452414,23.065410901288903,0.08028133682678987,0,0,1.8517220216146852,0,0,0,0,0.05859375,,
2.22943499999959,1000,,,,-0.0625,0.046875,-0.95703125,-0.00038303547743676633,-0.01372408971452414,23.065341675588158,0.07976198792823573,0,0,1.8397375042888953,0,0,0,0,0.05859375,,
2.2380299999993296,1000,,,,-0.0625,0.046875,-0.953125,-0.00030384016721461763,-0.01372408971452414,23.065275328863585,0.07958686592669258,0,0,1.8356929751605162,0,0,0,0,0.05859375,,
2.247044999998994,1000,,,,-0.0625,0.048828125,-0.955078125,-0.00030384016721461763,-0.01372408971452414,23.06549889807191,0.07892296461775405,0,0,1.8203975534233743,0,0,0,0,0.05859375,,undefined,0,
2.2546899999994783,1000,,,,-0.0625,0.046875,-0.955078125,-0.00030384016721461763,-0.01372408971452414,23.065813677705222,0.07879224548078682,0,0,1.8174072535078403,0,0,0,0,0.05859375,,
2.270969999999739,1200,,,,-0.0625,0.052734375,-0.95703125,-0.00030384016721461763,-0.01372408971452414,23.065636653917505,0.08018870754308341,0,0,1.8496035919360159,0,0,0,0,0.05859375,,
2.2789199999999257,1200,,,,-0.0625,0.05078125,-0.95703125,-0.00030384016721461763,-0.01372408971452414,23.06575675864273,0.07965640889387009,0,0,1.837335351812993,0,0,0,0,0.05859375,,
2.286839999999851,1200,,,,-0.0625,0.048828125,-0.95703125,-0.00030384016721461763,-0.01372408971452414,23.06573710255666,0.08050965119918961,0,0,1.8570144487790432,0,0,0,0,0.05859375,,
2.294320000000298,1200,,,,-0.0625,0.046875,-0.953125,-0.00030384016721461763,-0.01372408971452414,23.06565222236666,0.08029985341302917,0,0,1.8521684923319532,0,0,0,0,0.05859375,,
2.301594999999739,1200,,,,-0.0625,0.046875,-0.94921875,-0.00030384016721461763,-0.01372408971452414,23.065755026984373,0.08909826342814312,0,0,2.05511871756327,0,0,0,0,0.05859375,,
2.309839999999851,1200,,,,0,0.03125,-1.01171875,-0.00030384016721461763,-0.01372408971452414,23.064310920026386,0.13331580712691085,0,0,3.0748372261293415,0,0,0,0,0.05859375,,
2.320074999999255,1200,,,,-0.03125,-0.32421875,-1.236328125,-0.00030384016721461763,-0.01372408971452414,23.063103450787928,0.18354279412796265,0,0,4.233066448619874,0,0,0,0,0.064453125,,
2.327415000000037,1200,,,,-0.15625,0.072265625,-0.953125,-0.00030384016721461763,-0.01372408971452414,23.0612709495985,0.23683205750132555,0,0,5.461648247588961,0,0,0,0,0.06640625,,
2.3345,1200,,,,0,0.05078125,-1.046875,-0.00030384016721461763,-0.01372408971452414,23.06053988093853,0.26448224904439527,0,0,6.099103451888594,0,0,0,0,0.0703125,,
2.34268499999959,1200,,,,0.0625,-0.03515625,-0.87890625,-0.00030384016721461763,-0.01372408971452414,23.059535044116434,0.2856496025495697,0,0,6.586947020329734,0,0,0,0,0.072265625,,
2.351629999998957,1200,,,,-0.09375,0.046875,-0.8984375,-0.00030384016721461763,-0.01372408971452414,23.058977041505315,0.3009023719385182,0,0,6.938500886264785,0,0,0,0,0.072265625,,
2.3588349999999627,1200,,,,-0.0625,0.056640625,-1.00390625,-0.00030384016721461763,-0.01372408971452414,23.058490953898055,0.3108457040702357,0,0,7.167632855361601,0,0,0,0,0.07421875,,
2.366804999999702,1200,,,,-0.125,0.060546875,-0.93359375,-0.00030384016721461763,-0.01372408971452414,23.05788626534684,0.34266946538012205,0,0,7.901233559342061,0,0,0,0,0.07421875,,
2.374909999999218,1200,,,,-0.125,-0.21875,-1.1328125,-0.00030384016721461763,-0.011769768646159636,23.056748959869314,0.3677644825162791,0,0,8.479453349734094,0,0,0,0,0.078125,,
2.3823899999996647,1200,,,,0.0625,-0.11328125,-1.109375,-0.0002450397643039708,-0.011769768646159636,23.05651671997424,0.3710193503480589,0,0,8.554413854734,0,0,0,0,0.08203125,,
2.3895299999993296,1200,,,,-0.1875,0.1015625,-0.76953125,-0.0002450397643039708,-0.011769768646159636,23.056322619908507,0.3703804670755947,0,0,8.53961154100731,0,0,0,0,0.083984375,,
2.4024099999992177,1200,,,,0,0.1171875,-0.99609375,-0.0002450397643039708,-0.011769768646159636,23.05619202804192,0.3726815282095096,3,0,8.592616879702575,0.00006829517765074148,0.0007948123209364533,172.3367454485544,0.0013697536863260026,0.083984375,,
2.4096349999997764,1200,,,,-0.0625,0.078125,-1.015625,-0.0002450397643039708,-0.011769768646159636,23.056183883874755,0.36918982414255685,3,0,8.512108473486174,0.00006829517765074148,0.0008023297384363673,172.3367454485544,0.0013827089589871348,0.083984375,,
2.417609999999404,1200,,,,-0.0625,0.02734375,-0.978515625,-0.0002450397643039708,-0.011769768646159636,23.05647000459344,0.36246026945001897,3,0,8.357054330431218,0.00006829517765074148,0.000817215910659486,172.3367454485544,0.0014083633037183239,0.0859375,,
2.4249999999990686,1200,,,,0,0.00390625,-0.953125,-0.0002450397643039708,-0.011769768646159636,23.056682067776276,0.356041251999361,3,0,8.20912995036228,0.00006829517765074148,0.0008319417290711487,172.3367454485544,0.0014337412999096476,0.083984375,,
2.4331399999987333,1200,,,,-0.0625,0.060546875,-0.998046875,-0.0002450397643039708,-0.011769768646159636,23.05694018788205,0.34814300261404374,3,0,8.02711238810167,0.00006829517765074148,0.0008508062968194293,172.3367454485544,0.001466251882009972,0.083984375,,
2.441854999999516,1200,,,,0,0.0625,-1.03515625,-0.0002450397643039708,-0.011769768646159636,23.057325777874926,0.33874501524298395,3,0,7.810554172088689,0.00006829517765074148,0.0008743960562337163,172.3367454485544,0.001506905705643698,0.083984375,,
2.4500599999995902,1200,,,,-0.0625,0.0703125,-0.962890625,-0.0002450397643039708,-0.011769768646159636,23.057557400548436,0.3296135113881768,3,0,7.600082458829212,0.00006829517765074148,0.0008986110087713747,172.3367454485544,0.0015486369667590107,0.083984375,,
2.4578099999995904,1200,,,,-0.03125,0.0234375,-0.966796875,-0.0002450397643039708,-0.011769768646159636,23.05780650546739,0.32127670292768185,442,0,7.407936050821016,0.01134521854934006,0.15314952061556575,1.037421059362869,0.0015888053791791577,0.083984375,,
2.464114999999292,1200,,,,-0.0625,0.01953125,-0.95703125,-0.0002450397643039708,-0.011769768646159636,23.05789954824,0.3136483819384385,603,0,7.232072884204529,0.015479492871739137,0.21403950319067835,0.7603458810751913,0.0016274405463841254,0.083984375,,
2.475239999999292,1200,,,,0,0.0390625,-1.01953125,-0.0002450397643039708,-0.011769768646159636,23.058076217440835,0.30510832011070205,675,0,7.035210899687904,0.01732294402059818,0.24623205000672632,0.6794323546947082,0.0016729802153737517,0.083984375,,
2.483254999998957,1200,,,,-0.0625,0.0625,-0.97265625,-0.0002450397643039708,-0.011769768646159636,23.05834644854915,0.29316267557013787,715,0,6.759846539079855,0.018334783894857723,0.27123077112566285,0.6419365896895383,0.0017411295623527168,0.083984375,,
2.4906299999989567,1200,,,,-0.0625,0.041015625,-0.96484375,-0.0002450397643039708,-0.011769768646159636,23.058616672571752,0.28559081929266106,724,0,6.585329227275181,0.01858437206615936,0.2822087009588895,0.6333153794091022,0.0017872711052032894,0.083984375,,
2.4994049999993293,1200,,,,-0.0625,0.1171875,-0.9921875,-0.0002450397643039708,-0.011769768646159636,23.058881704000296,0.27742656325621406,728,0,6.397146303672395,0.018686487216269,0.2921066101855712,0.6298545312418341,0.0018398467203107412,0.083984375,,
2.5077999999988823,1200,,,,-0.03125,0.005859375,-0.96875,-0.0002450397643039708,-0.011769768646159636,23.05901631033903,0.27043042253986926,767,0,6.2358595241587205,0.019685194855689273,0.31567733011665305,0.5978995246144604,0.001887433256083089,0.08203125,,
2.515195000000298,1200,,,,0,0.01953125,-0.94921875,-0.0002450397643039708,-0.011769768646159636,23.059259438288265,0.26413344409692735,798,0,6.090721613759658,0.02047231484608544,0.33612297760968207,0.5749114711573596,0.001932409555473746,0.08203125,,
2.52293499999959,1200,,,,-0.03125,0.01953125,-0.962890625,-0.0002450397643039708,0.022575796458379472,23.05946500191583,0.2582489668940838,809,0,5.955083013875044,0.020764323047430224,0.34868234412602467,0,0.0037910128886161623,0.08203125,,
2.5316399999987333,1200,,,,-0.0625,0.06640625,-0.96875,0.0013167960012829428,0.022575796458379472,23.059786175257873,0.2515405419472029,814,0,5.800471111710982,0.11231497954360385,1.9363078856964426,0.20100432328899556,0.0038920625624355924,0.08203125,,
2.540054999999702,1200,,,,-0.125,0.091796875,-0.96484375,0.0013167960012829428,0.022575796458379472,23.06023647544645,0.24502305144894235,817,0,5.650289508348093,0.112619610595611,1.9931653135510967,0.2004606155089946,0.0039955114556563115,0.08203125,,
2.547949999999255,1200,,,,0.125,0.11328125,-0.921875,0.0013167960012829428,0.022575796458379472,23.058307670507794,0.31999541847089863,817,0,7.378552812254873,0.11272363205516282,1.5277200681947096,0.2002756302895892,0.0030596509956374966,0.083984375,,
2.5560499999988826,1200,,,,-0.09375,0.095703125,-1.060546875,0.0013167960012829428,0.022575796458379472,23.05625303277282,0.38281331019991477,845,0,8.826240544282587,0.11652772096164471,1.3202418444977504,0.19373756108909343,0.0025578043500076027,0.083984375,,
2.5643299999991434,1200,,,,-0.25,0.138671875,-0.91015625,0.0013167960012829428,0.022575796458379472,23.05484802279004,0.4217189465032844,870,0,9.722666219964346,0.11996518347889426,1.2338712526463156,0.18818623707061877,0.002321975880651209,0.0859375,,
2.5722299999995157,1200,,,,0.1875,-0.18359375,-1.17578125,0.0013167960012829428,0.022575796458379472,23.053932726202273,0.44911630619868065,880,0,10.353897109344844,0.1212896097404842,1.1714392026458813,0.18613133067773482,0.0021804153759654257,0.08984375,,
2.5801149999992923,1200,,,,-0.09375,0.1953125,-0.9453125,0.0013167960012829428,0.022575796458379472,23.05324822239747,0.469339725260008,883,0,10.819805187050797,0.12181908251303955,1.1258897956761116,0.18532233204073717,0.0020865252255556606,0.091796875,,
2.5880749999992547,1200,,,,0,0.0859375,-1.04296875,0.0013167960012829428,0.022575796458379472,23.05266249942968,0.4820121255613718,1003,0,11.111662851199025,0.13826383168804876,1.2443126968447313,0.1632805642860748,0.0020317207928913527,0.091796875,,
2.59568499999959,1200,,,,-0.0625,0.03125,-0.97265625,0.0013167960012829428,0.022575796458379472,23.05253253520654,0.4882697793700902,1167,0,11.255854974887123,0.1609116074229684,1.4295813848168568,0.14029936571969776,0.0020056936153449215,0.091796875,,
2.6029049999993292,1200,,,,-0.0625,0.1328125,-0.99609375,0.0013167960012829428,0.022575796458379472,23.052509915649217,0.491936031933646,1227,0,11.340360254015504,0.1692147818782665,1.4921464405714033,0.13341503743225314,0.0019907477322323704,0.091796875,,
2.611054999999702,1200,,,,-0.03125,0.048828125,-0.97265625,0.0013167960012829428,0.022575796458379472,23.052289426148093,0.4907100592967949,1256,0,11.311990311232009,0.17315786658765803,1.530746242027139,0.13037696122775275,0.0019957404344630053,0.091796875,,
2.6188499999996275,1200,,,,0.0625,0.0703125,-1.05078125,0.0013167960012829428,0.022575796458379472,23.05247104155157,0.4883746891664206,1409,0,11.25824337943566,0.19430018728279966,1.725848169508477,0.11619029695283256,0.0020052681131069246,0.091796875,,
2.6285449999999253,1200,,,,-0.09375,0.076171875,-0.962890625,0.0013167960012829428,0.022575796458379472,23.052546296326287,0.48379278987618,1470,0,11.152655686449496,0.20268151638969953,1.8173385970837248,0.111385571119236,0.0020242529755320183,0.091796875,,
2.636424999999814,1200,,,,0,0.015625,-0.96875,0.0013167960012829428,0.022575796458379472,23.05269670688697,0.4771644387065166,1496,0,10.999927084813285,0.20635098846320024,1.8759305118312326,0.10940483797297412,0.002052358736954544,0.091796875,,
2.6450349999992175,1200,,,,-0.0625,0.0546875,-0.9765625,0.0013167960012829428,0.022575796458379472,23.05283939029597,0.4711017766561642,1537,0,10.860233593737636,0.21194556320706245,1.95157462662016,0.10651695707507598,0.00207875790732507,0.091796875,,
2.6561349999988453,1200,,,,-0.03125,0.0234375,-0.962890625,0.0013167960012829428,0.022575796458379472,23.053288179848686,0.45822243661922757,1581,0,10.563533881855502,0.21802044447827498,2.063896863650513,0.1035489883180615,0.0021371443222383073,0.091796875,,
2.6638499999996275,1200,,,,-0.0625,0.0546875,-0.95703125,0.0013167960012829428,0.022575796458379472,23.053616505155638,0.44920067077370107,1591,0,10.355699997875579,0.21942827171837315,2.118912982834456,0.10288462959483428,0.0021800357738260847,0.091796875,,
2.6708149999994784,1200,,,,-0.03125,0.05078125,-0.99609375,0.0013167960012829428,0.0507343529603515,23.053716466688527,0.44039676047754106,1607,0,10.152782048897372,0.22161320320329433,2.1827830257359095,0.2289319960499417,0.004997088750256531,0.091796875,,
2.678894999999553,1200,,,,0,0.01953125,-0.90625,0.0013167960012829428,0.0507343529603515,23.053829698839884,0.4333199269006174,1628,0,9.98968379988058,0.22452329143547278,2.2475515334945517,0.22596476577545802,0.005078674558343678,0.091796875,,
2.6862199999997394,1200,,,,0,0.015625,-0.97265625,0.015096531599853979,0.0507343529603515,23.054099297209383,0.42496707885949686,1636,0,9.797233234071852,2.5862434296503456,26.397691755016744,0.01961700603226305,0.0051784367839598396,0.091796875,,
2.694410000000149,1200,,,,-0.0625,0.08984375,-1.005859375,0.015096531599853979,0.0507343529603515,23.054486783834946,0.41840414015838845,1643,0,9.646092719583391,2.5980243203867692,26.9334371533905,0.019528051589909154,0.005259575502249857,0.091796875,,
2.7032050000000747,1200,,,,-0.03125,0.03125,-0.95703125,0.015096531599853979,0.0507343529603515,23.054569555171607,0.40907499612526554,1655,0,9.43104795145149,2.615977547619161,27.737930727163228,0.019394032263971673,0.00537950323458415,0.08984375,,
2.711034999999218,1200,,,,-0.0625,0.0390625,-0.984375,0.015096531599853979,0.0507343529603515,23.054705918578634,0.4008965167685505,1659,0,9.242551297881459,2.6221173578919514,28.37006009902247,0.01934862023152897,0.005489215188016391,0.08984375,,
2.7188449999997393,1200,,,,-0.03125,0.0234375,-0.990234375,0.015096531599853979,0.0507343529603515,23.054769194783,0.39426131192084335,1660,0,9.089603548767391,2.624517041821528,28.87383402081854,0.019330929139305446,0.0055815803943651,0.08984375,,
2.7275849999999626,1200,,,,-0.125,0.05078125,-1.00390625,0.015096531599853979,0.0507343529603515,23.055113758633986,0.38701918233738075,1668,0,8.922771275561823,2.6365727532082244,29.54881024945036,0.01924253859432368,0.005685941216413956,0.08984375,,
2.7398099999995904,1200,,,,-0.03125,0.052734375,-0.96875,0.015096531599853979,0.0507343529603515,23.055303036903148,0.3768046063954693,1672,0,8.687344386148558,2.6435775043943006,30.430214193065996,0.019191551174882544,0.005840030129488632,0.08984375,,
2.7478699999991805,1200,,,,0,-0.005859375,-0.93359375,0.015096531599853979,0.0507343529603515,23.055476480337287,0.3695787997281577,1675,0,8.520815324763825,2.647578541794517,31.071892077040186,0.019162548781636517,0.005954166476640277,0.08984375,,
2.7550499999998137,1200,,,,-0.0625,0.076171875,-1.017578125,0.015096531599853979,0.0507343529603515,23.05567509307967,0.3632792425222256,1679,0,8.375648183652526,2.6543574754680024,31.691367847192296,0.019113609764037635,0.0060573643791980315,0.08984375,,
2.762804999999702,1200,,,,-0.0625,0.0625,-1.05078125,0.015096531599853979,0.0507343529603515,23.055861869650638,0.3570697900399915,1681,0,8.232551756987199,2.6572507194824664,32.27736427198508,0.019092798654028652,0.006162652171277493,0.08984375,,
2.771199999999255,1200,,,,-0.0625,0.06640625,-1.013671875,0.015096531599853979,0.0507343529603515,23.05616284266944,0.3517661563863212,1684,0,8.110377784182946,2.661509610430456,32.816099092461464,0.01906224676458938,0.006255485787517181,0.08984375,,
2.781875,1200,,,,-0.0625,0.0859375,-0.986328125,0.015096531599853979,0.0507343529603515,23.056154899472908,0.34701006324365946,1686,0,8.000717769821703,2.665621023957164,33.31727353277915,0.019032845443661534,0.006341225177535805,0.08984375,,
2.7964249999998136,1200,,,,-0.03125,0.025390625,-0.990234375,0.015096531599853979,0.0507343529603515,23.056566761581802,0.33285450182098897,1691,0,7.674482043128684,2.6738712899686403,34.84106516820481,0.018974119341752808,0.006610785284953048,0.08984375,,
2.8040699999993666,1200,,,,0,0.03515625,-0.97265625,0.015096531599853979,0.0507343529603515,23.056886156525007,0.3277027142112249,1695,0,7.555804174752462,2.679286769985998,35.45998159850106,0.01893576810391843,0.00671461988518431,0.08984375,,
2.812134999998845,1200,,,,-0.09375,0.060546875,-1.033203125,0.015096531599853979,0.0507343529603515,23.057168844045872,0.3215647819282791,1696,0,7.414373471219122,2.6818353141565505,36.17076108408638,0.01891777347122737,0.006842702644706325,0.08984375,,
2.8314249999988825,1200,,,,-0.01953125,0.01953125,-0.94140625,0.0178011850125029,0.25375867920658407,23.057690453575965,0.3078608654589788,1698,0,7.09856053852313,3.164795797140648,44.583627623736376,0.0801816911649882,0.035747906611412666,0.08984375,,
2.8501650000000374,1200,,,,-0.0625,0.064453125,-0.998046875,0.0178011850125029,0.25375867920658407,23.057885590665403,0.2980815375560535,1698,0,6.873129989657114,3.164998701095881,46.04887010515825,0.0801765508209277,0.03692039574232519,0.08984375,,
2.858504999998957,1200,,,,-0.03125,0.0390625,-0.984375,0.0178011850125029,0.25375867920658407,23.05807219838537,0.29359241149359605,1698,0,6.769675021117405,3.1648548251697277,46.750469044632744,0.0801801956881151,0.03748461756509821,0.087890625,,
2.8655449999999254,1200,,,,-0.09375,0.080078125,-1.03515625,0.0178011850125029,0.25375867920658407,23.05806925728519,0.29046506701606023,1698,0,6.6975636320783005,3.1648091668976446,47.25314070536994,0.08018135243691016,0.03788820728648173,0.08984375,,
2.873789999999106,1200,,,,0,0.0234375,-0.91796875,0.0178011850125029,0.25375867920658407,23.058296295315085,0.2865304227873939,1696,0,6.606903386253629,3.162353413424882,47.86438106548519,0.08024361797429817,0.03840811108795025,0.08984375,,
2.8813649999992923,1200,,,,-0.0625,0.0703125,-0.9609375,0.0178011850125029,0.25375867920658407,23.05847241529069,0.28272172512129856,1696,0,6.51913109991286,3.1614080255507635,48.49431583900839,0.080267614036431,0.03892523026726308,0.087890625,,
2.889319999999367,1200,,,,0.0625,0,-0.91015625,0.0178011850125029,0.25375867920658407,23.058546532184963,0.2787078417162362,1696,0,6.426597737098674,3.1610219767557486,49.186554162371,0.08027741694697871,0.039485695166778086,0.087890625,,
2.8977299999995156,1200,,,,-0.03125,0.017578125,-0.927734375,0.0178011850125029,0.25375867920658407,23.058621482162035,0.2756568101516262,1696,0,6.356266044266549,3.161952132122257,49.745434034725264,0.08025380164002194,0.039922601955196375,0.087890625,,
2.9060649999994785,1200,,,,0,-0.01171875,-0.95703125,0.0178011850125029,0.25375867920658407,23.058623992625588,0.27230240293147523,1697,0,6.278918721485315,3.163395553642175,50.381215205376236,0.08021718274036867,0.04041439146811506,0.087890625,,
2.914,1200,,,,-0.125,0.109375,-1.0078125,0.0178011850125029,0.25375867920658407,23.058754905045532,0.26953853252419213,1697,0,6.21522295894099,3.1639217715900765,50.90600598709939,0.08020384115851696,0.04082857218203833,0.087890625,,
2.9419599999990313,1200,,,,-0.0625,0.0625,-0.970703125,0.0178011850125029,0.25375867920658407,23.058848288438107,0.2618310165095495,1696,0,6.0375216869012345,3.160983845470599,52.3556520273632,0.08027838534201846,0.042030272082852926,0.087890625,,
2.9539900000002235,1200,,,,0,0.017578125,-0.96875,0.0178011850125029,0.25375867920658407,23.05895349461404,0.25716454376547104,1695,0,5.929945255151634,3.16016898114398,53.291705828120186,0.08029908549849873,0.04279275242653067,0.087890625,,
2.9616749999998135,1200,,,,-0.09375,0.064453125,-1.033203125,0.0178011850125029,0.25375867920658407,23.058955531506605,0.2546198800712434,1695,0,5.871268492000347,3.159667651889827,53.81575814825877,0.08031182616779604,0.04322041813491112,0.087890625,,
2.969134999998845,1200,,,,-0.0625,0.05078125,-0.9765625,0.0178011850125029,0.3338634055168392,23.059200116795587,0.25259943588220074,1695,0,5.8247409413973426,3.159426301771325,54.24149045525424,0.10567216121789562,0.05731815524086571,0.087890625,,
2.9776149999992922,1200,,,,-0.0625,0.0703125,-0.98828125,0.0178011850125029,0.3338634055168392,23.059173804082075,0.25073736148637843,1693,0,5.781796397691355,3.1568949464703158,54.600590012661975,0.10575689440984651,0.057743888326844114,0.087890625,,
2.9862649999996647,1200,,,,0,0.0390625,-0.94921875,0.014267170514960403,0.3338634055168392,23.05943956639854,0.24901488782218886,1693,0,5.742143756869276,2.529332215991877,44.04857006524887,0.13199666038568,0.05814264143377486,0.087890625,,
2.9941049999995157,1200,,,,-0.0625,0.037109375,-0.9765625,0.014267170514960403,0.3338634055168392,23.05940247067078,0.24696709480324744,1693,0,5.694913636080389,2.5290533358458966,44.40898488473929,0.13201121573229746,0.058624840840716556,0.087890625,,
3.0017649999996645,1200,,,,0,0.015625,-0.99609375,0.014267170514960403,0.3338634055168392,23.059234670113355,0.24528815671064577,1694,0,5.656157167390321,2.530640230839381,44.741335078688884,0.13192843512414287,0.05902654322296344,0.087890625,,
3.0097799999993295,1200,,,,-0.09375,0.05078125,-0.9921875,0.014267170514960403,0.3338634055168392,23.059207400835472,0.24383158139762565,1694,0,5.622563006321546,2.5312565921449,45.01962164406097,0.13189631053323392,0.05937921996453765,0.087890625,,
3.0177649999996645,1200,,,,-0.0625,0.0859375,-0.99609375,0.014267170514960403,0.3338634055168392,23.059312042809076,0.2422042240036287,1694,0,5.585062779386102,2.5315052889504743,45.326353327557975,0.13188335294975986,0.0597779145382385,0.087890625,,
3.0243899999996646,1200,,,,-0.03125,0.048828125,-0.974609375,0.014267170514960403,0.3338634055168392,23.059341823677908,0.2415024729504194,1694,0,5.568888075027249,2.530919089094897,45.44747631837642,0.1319138991662649,0.05995153808423517,0.087890625,,
3.0322499999990686,1200,,,,0,0.0234375,-0.9140625,0.014267170514960403,0.3338634055168392,23.059370753723403,0.24053520174191265,1693,0,5.546590396288419,2.529978306441122,45.613216871649534,0.13196295188257137,0.06019254743242781,0.087890625,,
3.040285000000149,1200,,,,-0.03125,0.03125,-0.9375,0.014267170514960403,0.3338634055168392,23.059600740542887,0.23916538727727302,1693,0,5.5150583415712315,2.5295445588615233,45.866143242663505,0.1319855799128922,0.060536695142507244,0.087890625,,
3.0486749999998137,1200,,,,-0.0625,0.046875,-1.01171875,0.014267170514960403,0.3338634055168392,23.059488535094673,0.23818851025297708,1693,0,5.492505221369805,2.529375294498858,46.05139535703607,0.1319944123131744,0.06078526866353625,0.087890625,,
3.056665000000037,1200,,,,-0.041015625,0.048828125,-1.0078125,0.014267170514960403,0.3338634055168392,23.059515763957187,0.23788513182455448,1694,0,5.485515947319348,2.5305677469765717,46.13180913662652,0.131932213992582,0.06086271714878361,0.0859375,,
3.0658549999995155,1200,,,,0,0.02734375,-0.9140625,0.014267170514960403,0.3338634055168392,23.059338180678946,0.23728255012846253,1694,0,5.471578567786122,2.5309974474857455,46.25717087180241,0.13190981517918718,0.061017748604115365,0.0859375,,
3.0742000000001863,1200,,,,-0.0625,0.0625,-0.955078125,0.014267170514960403,0.3338634055168392,23.059519121683888,0.23678524092856038,1694,0,5.4601537909246645,2.5308286378014917,46.3508672962287,0.13191861374180727,0.061145421594489595,0.0859375,,
3.081499999999069,1200,,,,0,0.044921875,-0.908203125,0.014267170514960403,0.3338634055168392,23.059710599028723,0.23493212554219844,1693,0,5.41746682541778,2.5301767599940796,46.70405637045982,0.13195260141335755,0.061627217346382664,0.0859375,,
3.0914349999995903,1200,,,,-0.0625,0.08203125,-1.0546875,0.014267170514960403,0.3338634055168392,23.05979155376995,0.2330774953809172,1693,0,5.374718459358729,2.5298648093623273,47.06971776274532,0.1319688721236421,0.06211737564327663,0.0859375,,
3.10206500000041,1200,,,,-0.03125,0.015625,-0.99609375,0.014267170514960403,0.3338634055168392,23.05989143915788,0.22966833882469176,1693,0,5.296126960309121,2.5301419399487513,47.773438191917386,0.13195441735715496,0.06303916201762513,0.0859375,,
3.1103149999994786,1200,,,,-0.09375,0.05859375,-1.05859375,0.014267170514960403,0.3338634055168392,23.060022612836317,0.22842586613082957,1694,0,5.267505638333652,2.5314487996532464,48.05782800175715,0.13188629592768034,0.06338168925481306,0.0859375,,
3.118410000000149,1200,,,,-0.03125,0.0546875,-0.947265625,0.014267170514960403,0.3592687755857116,23.059814505291314,0.22695048426704653,1695,0,5.233436069084128,2.5318337048872097,48.378038280503745,0.14190062123440947,0.06864873686105523,0.0859375,,
3.126394999999553,1200,,,,-0.0625,0.11328125,-0.98046875,0.014267170514960403,0.3592687755857116,23.059885966051382,0.2272100227639745,1693,0,5.239437215281191,2.5298407331503734,48.28458914961159,0.1420124084800862,0.0685701079760778,0.0859375,,
3.1343549999995157,1200,,,,-0.03125,0.025390625,-0.93359375,0.011343449606657266,0.3592687755857116,23.05989155701898,0.22683411044771376,1693,0,5.230769988357145,2.0107528206397856,38.440857180021275,0.17867376432245843,0.06868372656136405,0.0859375,,
3.142320000000298,1200,,,,-0.0625,0.0625,-1.015625,0.011343449606657266,0.3592687755857116,23.059896978783765,0.22582672023638978,1692,0,5.207540903707772,2.010488267911347,38.607248701203254,0.17869727534344093,0.0689901015141162,0.0859375,,
3.150034999999218,1200,,,,-0.0625,0.0859375,-1.0625,0.011343449606657266,0.3592687755857116,23.059967097989464,0.22572742091383524,1693,0,5.20526689938706,2.011152846299652,38.63688231887731,0.17863822545697366,0.06902024094634164,0.0859375,,
3.1585999999996273,1200,,,,-0.09375,0.064453125,-1.029296875,0.011343449606657266,0.3592687755857116,23.060067903152998,0.22606178682890263,1694,0,5.213000154582593,2.012193144890529,38.59952206450003,0.17854586996183075,0.06891785247117038,0.087890625,,
3.1672949999989943,1200,,,,-0.0625,0.056640625,-0.931640625,0.011343449606657266,0.3592687755857116,23.06006477247957,0.2253214241380213,1694,0,5.195926635250113,2.01259492570322,38.7340905094658,0.17851022627426116,0.06914431261372452,0.087890625,,
3.1749099999992176,1200,,,,0,0.04296875,-0.927734375,0.011343449606657266,0.3592687755857116,23.060206383510778,0.22382145206638535,1694,0,5.161368877707911,2.0122236808679097,38.986240444056556,0.1785431604853951,0.0696072658432539,0.0859375,,
3.1824749999996276,1200,,,,-0.0625,0.08203125,-1,0.011343449606657266,0.3592687755857116,23.060197446481723,0.2239147842609534,1693,0,5.163519136243943,2.0111419843418865,38.94905647245911,0.17863919026247987,0.06957827909727697,0.0859375,,
3.1902249999996273,1200,,,,0,0.03515625,-1.05078125,0.011343449606657266,0.3592687755857116,23.060121899981937,0.22412320111562947,1693,0,5.168308338340583,2.010640720115834,38.903265604338955,0.17868372603386543,0.06951380453068401,0.0859375,,
3.1984500000001863,1200,,,,-0.0625,0.060546875,-1,0.011343449606657266,0.3592687755857116,23.060313535825514,0.22533966322785312,1692,0,5.196403286091624,2.0104443072948324,38.68915087240948,0.1787011827595106,0.06913797020860726,0.0859375,,
3.206519999999553,1200,,,,-0.03125,0.03125,-0.9609375,0.011343449606657266,0.3592687755857116,23.06039600652286,0.22537004085217588,1692,0,5.197122390057411,2.0101758220789563,38.6786315812884,0.1787250506347002,0.06912840387846685,0.0859375,,
3.2149599999990315,1200,,,,-0.0625,0.03515625,-0.9765625,0.011343449606657266,0.3592687755857116,23.060376136909646,0.2255098169429442,1692,0,5.200341201269933,2.0100676879614627,38.652611629994595,0.17873466537341776,0.0690856160549576,0.0859375,,
3.2231549999993296,1200,,,,0.03125,0.021484375,-0.9453125,0.011343449606657266,0.3592687755857116,23.06049869939352,0.22518594211039725,1692,0,5.19290012515852,2.010024967951367,38.707175557126824,0.17873846410568775,0.06918461108950068,0.0859375,,
3.2315149999996646,1200,,,,-0.0625,0.068359375,-1.005859375,0.011343449606657266,0.3592687755857116,23.060474309093138,0.2239467923170895,1692,0,5.164319250832059,2.0102021541569632,38.92482351537593,0.1787227094761429,0.06956749924548668,0.0859375,,
3.2395099999997763,1200,,,,0,0.0234375,-0.984375,0.011343449606657266,0.3592687755857116,23.060516115345433,0.2239392081287924,1692,0,5.164153717911712,2.0102717116519373,38.92741814945148,0.17871652548425063,0.06956972917742527,0.0859375,,
3.250639999999665,1200,,,,-0.09375,0.06640625,-1.03125,0.011343449606657266,0.3592687755857116,23.060487805553525,0.22321223350412348,1692,0,5.147382988772205,2.0103012159518507,39.054821068042656,0.1787139025410193,0.06979639486111121,0.0859375,,
3.258364999999292,1200,,,,-0.0625,0.0078125,-0.921875,0.011343449606657266,0.3592687755857116,23.06053930843575,0.22087276542086057,1692,0,5.093445089150664,2.0100988650226213,39.4644259403964,0.17873189316072194,0.07053551560828153,0.0859375,,
3.2668699999991806,1200,,,,-0.0625,0.123046875,-1.02734375,0.011343449606657266,0.3697715903420552,23.060612309931816,0.21950045074325472,1692,0,5.061814796445482,2.0100385219494386,39.70983931219554,0.183962439676744,0.07305118919042967,0.0859375,,
3.2760899999989195,1200,,,,0,0.005859375,-0.99609375,0.011343449606657266,0.3697715903420552,23.06043557101661,0.2185615367503,1693,0,5.040124236532671,2.0106203042310336,39.89227665574827,0.18390920929423082,0.07336557056705367,0.087890625,,
3.285169999998994,1200,,,,0,0.0234375,-0.99609375,0.010103491521899316,0.3697715903420552,23.060409189809327,0.2186158159368727,1694,0,5.041370170868324,1.7921825384679109,35.54951288489149,0.2063247366856744,0.07334743885279225,0.0859375,,
3.2932799999993296,1200,,,,-0.09375,0.05859375,-1.03515625,0.010103491521899316,0.3697715903420552,23.06058395216476,0.21865642927267148,1694,0,5.042344943923017,1.7925753317906352,35.55043043913584,0.20627952632410926,0.07333325951603135,0.087890625,,
3.3006499999994414,1200,,,,-0.0625,0.076171875,-0.9921875,0.010103491521899316,0.3697715903420552,23.060645991745766,0.21983192486511371,1694,0,5.069466196998441,1.7918111297322252,35.345163772728796,0.20636750392175274,0.07294093223483604,0.087890625,,
3.308419999998994,1200,,,,-0.0625,0.09375,-0.953125,0.010103491521899316,0.3697715903420552,23.06061468246347,0.22023596602506143,1691,0,5.078776751724058,1.7895279902491348,35.2354135204241,0.20663079446473273,0.07280721489018618,0.087890625,,
3.315719999999739,1200,,,,0.03125,-0.01171875,-0.8984375,0.010103491521899316,0.3697715903420552,23.060762407841693,0.21963369422173798,1691,0,5.0649204392040525,1.7886761954360726,35.31499096394812,0.20672919519226132,0.07300639660198976,0.0859375,,
3.324844999998808,1200,,,,-0.0625,0.0703125,-0.970703125,0.010103491521899316,0.3697715903420552,23.060720577369338,0.21998166204193703,1690,0,5.072935640494404,1.7882596957849124,35.25098330659346,0.20677734403657358,0.07289104702814987,0.087890625,,
3.3335849999990312,1200,,,,0,-0.01953125,-0.96484375,0.010103491521899316,0.3697715903420552,23.060626722973936,0.21995265801795372,1691,0,5.072246143277971,1.7893752559725367,35.27776857485354,0.20664843168465635,0.0729009554932774,0.0859375,,
3.341534999999218,1200,,,,-0.09375,0.078125,-1.025390625,0.010103491521899316,0.3697715903420552,23.06049880579638,0.21929349138809692,1692,0,5.057017296274128,1.7897542220807992,35.391498925650126,0.2066046755359249,0.0731204915226398,0.087890625,,
3.349774999999441,1200,,,,-0.03125,0.017578125,-0.935546875,0.010103491521899316,0.3697715903420552,23.060474321177296,0.2180193987888269,1692,0,5.027630747288255,1.7899055021109922,35.601371542180395,0.20658721362996607,0.07354788148304216,0.087890625,,
3.3576999999992547,1200,,,,-0.0625,0.02734375,-0.953125,0.010103491521899316,0.3697715903420552,23.06031876194113,0.2176604048155445,1692,0,5.019318316899602,1.790309187446399,35.6683731617217,0.20654063160424127,0.07366968321117769,0.087890625,,
3.3654749999996274,1200,,,,0,0.01953125,-0.94140625,0.010103491521899316,0.3697715903420552,23.060401278357023,0.22062540892210286,1692,0,5.087710461945302,1.790466475580265,35.19198839974228,0.20652248751109256,0.0726793698477629,0.0859375,,
3.3736299999998884,1200,,,,-0.03125,0.05859375,-1.01171875,0.010103491521899316,0.3697715903420552,23.060575780447834,0.22056845676860337,1692,0,5.08643561208881,1.7905280396320304,35.20201917776223,0.20651538661078248,0.07269758599975745,0.0859375,,
3.3812849999992176,1200,,,,-0.0625,0,-0.9609375,0.010103491521899316,0.3697715903420552,23.060479020636116,0.22117280325974845,1692,0,5.100350789506709,1.7903788406515737,35.10305299657113,0.20653259631212129,0.07249924673863824,0.0859375,,
3.389684999998659,1200,,,,-0.0625,0.033203125,-1.009765625,0.010103491521899316,0.3697715903420552,23.06045617533938,0.2215042869802491,1692,0,5.107989902557831,1.7903235364029306,35.049472895520495,0.206538976237217,0.0723908224949489,0.0859375,,
3.397839999999851,1200,,,,-0.0625,0.078125,-0.95703125,0.010103491521899316,0.3697715903420552,23.060433789076328,0.2210827416590814,1692,0,5.098263925936713,1.7903008068269022,35.11589107262561,0.20654159844648226,0.07252892273012648,0.0859375,,
3.4070049999998884,1200,,,,0,0.01953125,-0.9609375,0.010103491521899316,0.3697715903420552,23.060607674199872,0.22142630841974362,1693,0,5.106225227214088,1.7916596152609845,35.0877514315697,0.20638495570945373,0.07241584025148835,0.0859375,,
3.41443499999959,1200,,,,-0.03125,0.033203125,-0.9765625,0.010103491521899316,0.3697715903420552,23.060795301003346,0.2210770839334428,1695,0,5.09821337833186,1.792962258452155,35.16844285240202,0.2062350105803538,0.072529641837597,0.0859375,,
3.421724999998696,1200,,,,-0.0625,0.0234375,-1.0078125,0.010103491521899316,0.38963262999068604,23.06066936267655,0.22100373755192515,1695,0,5.096494119600689,1.7933805271859213,35.18851361544262,0.2172615482794815,0.0764511094974468,0.0859375,,
3.429734999999404,1200,,,,-0.03125,-0.0078125,-0.951171875,0.010103491521899316,0.38963262999068604,23.06063802018002,0.22123633384785085,1695,0,5.101851011776989,1.7934768214675019,35.15345346870153,0.2172498832027678,0.07637083660249339,0.0859375,,
3.437664999999106,1200,,,,-0.03125,0.03515625,-0.998046875,0.010149970384241305,0.38963262999068604,23.06060677818052,0.2214680432858989,1695,0,5.107187460149177,1.8016815300889457,35.27737221606351,0.21626054520936927,0.0762910374899975,0.0859375,,
3.4458599999994037,1200,,,,0,0,-0.93359375,0.010149970384241305,0.38963262999068604,23.06044631587298,0.22136903901873328,1695,0,5.10486884028789,1.80166345786965,35.2930410993291,0.2162627144868672,0.07632568870637481,0.083984375,,
3.4544099999992177,1200,,,,-0.0625,0.09765625,-0.98046875,0.010149970384241305,0.38963262999068604,23.06034963311178,0.2196137654128816,1695,0,5.0643702146652405,1.801716626642921,35.57632144319876,0.21625633256028481,0.07693604801291982,0.083984375,,
3.4627000000001864,1200,,,,0,0.0390625,-0.93359375,0.010149970384241305,0.38963262999068604,23.060135617369454,0.22024664237290875,1695,0,5.078917442389545,1.8018501331127503,35.477051035998144,0.21624030924124857,0.07671568486991795,0.0859375,,
3.4786999999992547,1200,,,,0,0.015625,-0.984375,0.010149970384241305,0.38963262999068604,23.059908909234267,0.22672871597103494,1698,0,5.228343537399715,1.804407053994399,34.51202165823653,0.21593388760488377,0.0745231500576696,0.083984375,,
3.4874749999996273,1200,,,,-0.125,0.09375,-1.00390625,0.010149970384241305,0.38963262999068604,23.060110700642635,0.22572774019698325,1701,0,5.205306677148334,1.8082993937971898,34.73953613022942,0.21546909285442437,0.07485296336164032,0.083984375,,
3.4948549999995158,1200,,,,-0.0625,0.01953125,-1.08984375,0.010149970384241305,0.38963262999068604,23.059960434705836,0.22421313957793423,1703,0,5.17034612760834,1.8099043202683225,35.00547691776168,0.21527802637264387,0.07535909983088876,0.0859375,,
3.5027649999987336,1200,,,,-0.0625,0.04296875,-0.951171875,0.010149970384241305,0.38963262999068604,23.060138277540652,0.222284246436912,1703,0,5.125905459754113,1.8104257844622529,35.31914114836402,0.215216018979987,0.0760124495174315,0.0859375,,
3.511665000000037,1200,,,,-0.09375,0.1015625,-0.9453125,0.010149970384241305,0.38963262999068604,23.060130789118315,0.22212933107555766,1707,0,5.122331426701723,1.8147450286082674,35.42810641163031,0.2147037869498925,0.07606548611040795,0.0859375,,
3.5206549999993295,1200,,,,0.03125,0.01171875,-0.9296875,0.010149970384241305,0.38963262999068604,23.0603435209013,0.22031115790976796,1709,0,5.080450982886781,1.8163053041185213,35.750867594956546,0.21451934821044868,0.0766925281442813,0.0859375,,
3.528519999999553,1200,,,,0.0625,-0.04296875,-0.86328125,0.010149970384241305,0.38963262999068604,23.060524863324147,0.218546956112184,1709,0,5.03980751522883,1.816247752225947,36.038038094466415,0.21452614573819137,0.07731101412371995,0.0859375,,
3.5354949999991803,1200,,,,-0.0625,0.064453125,-1.005859375,0.010149970384241305,0.38963262999068604,23.06058709697903,0.21748661796389632,1708,0,5.015369095983836,1.8151530939461182,36.19181478387385,0.2146555193003748,0.07768772796855423,0.0859375,,
3.5435,1200,,,,0,0.04296875,-1.05078125,0.010149970384241305,0.38963262999068604,23.06055848237992,0.21630721315705154,1707,0,4.988165139168807,1.8146250012110399,36.378607174850195,0.21471798841669984,0.0781114135398516,0.0859375,,
3.551069999999367,1200,,,,-0.0625,0.041015625,-0.984375,0.010149970384241305,0.38963262999068604,23.06053140970879,0.21582692112251947,1707,0,4.977083493606602,1.8144174512889695,36.45543526886198,0.21474254985471475,0.07828533125698922,0.0859375,,
3.5597999999998136,1200,,,,-0.125,0.1015625,-1.03125,0.010149970384241305,0.38963262999068604,23.06050884709918,0.2165380008705919,1705,0,4.993476484809454,1.8122384452779983,36.29211934392741,0.2150007528015532,0.07802832979708205,0.0859375,,
3.5682299999995157,1200,,,,0,-0.0234375,-0.9375,0.010149970384241305,0.39740796866347544,23.060600522950192,0.21511628738271754,1704,0,4.960710769313,1.8110850964666072,36.50858073947781,0.21943086464507433,0.08011109438628122,0.0859375,,
3.576894999999553,1200,,,,-0.09375,0.08203125,-0.916015625,0.010149970384241305,0.39740796866347544,23.060570644346456,0.21403031802033964,1704,0,4.935661268739981,1.8107461422517628,36.687001875921396,0.2194719399867265,0.08051767474005145,0.087890625,,
3.5859199999989944,1200,,,,0,0.046875,-0.91796875,0.010430343734205238,0.39740796866347544,23.060539404872546,0.21361344988880782,1700,0,4.92604137857162,1.8572202259088442,37.702083339936806,0.21397999177453547,0.0806749148296253,0.0859375,,
3.594014999999665,1200,,,,-0.03125,0.0546875,-1.021484375,0.010430343734205238,0.39740796866347544,23.060578356529778,0.21347408335838355,1699,0,4.9228358263743734,1.856017797424059,37.70220789164526,0.21411861956013156,0.0807274470812818,0.0859375,,
3.6021099999994037,1200,,,,0,-0.04296875,-0.9453125,0.010430343734205238,0.39740796866347544,23.06048607831427,0.21439214782331148,1699,0,4.943987140179369,1.8554294130464553,37.52900969275458,0.21418651977224282,0.0803820797658987,0.0859375,,
3.6104749999996275,1200,,,,-0.09375,0.080078125,-1.0546875,0.010430343734205238,0.39740796866347544,23.060607099800098,0.21599773227991306,1698,0,4.981038838554884,1.8549247498117605,37.2397166521576,0.21424479278946748,0.07978415377679986,0.0859375,,
3.6184749999996275,1200,,,,0,0.01171875,-0.95703125,0.010430343734205238,0.39740796866347544,23.060581149263804,0.21530938298588728,1698,0,4.965159498543973,1.8547684260852775,37.35566655268951,0.21426284978457125,0.08003931571181447,0.0859375,,
3.626824999999255,1200,,,,-0.0625,0.0703125,-0.966796875,0.010430343734205238,0.39740796866347544,23.060549317990287,0.21434157535927936,1698,0,4.942834469468393,1.8546899328214703,37.52280081960633,0.21427191771020915,0.08040082489475256,0.0859375,,
3.634839999999851,1200,,,,0,0.01953125,-0.91015625,0.010430343734205238,0.39740796866347544,23.060522555053325,0.2133156011261514,1696,0,4.919169231114372,1.852887173462566,37.666668626539995,0.21448039273801164,0.08078761880152839,0.0859375,,
3.642854999999516,1200,,,,-0.0625,0.0234375,-0.953125,0.010430343734205238,0.39740796866347544,23.060399640200657,0.213932367657474,1696,0,4.933365894155688,1.8521774966074829,37.54389064880967,0.21456257264294737,0.08055513764634097,0.0859375,,
3.6509049999993293,1200,,,,0,0.00390625,-0.990234375,0.010430343734205238,0.39740796866347544,23.060380048598464,0.21420381776216357,1695,0,4.939621445456218,1.8518950045326483,37.49062605265309,0.21459530248247896,0.08045312238026596,0.0859375,,
3.658789999999106,1200,,,,-0.0625,0.08203125,-1.04296875,0.010430343734205238,0.39740796866347544,23.06036146959023,0.21403449043984568,1697,0,4.935712716502396,1.8532088552654147,37.54693519882692,0.21444316302198926,0.0805168354581811,0.0859375,,
3.667195000000298,1200,,,,-0.03125,0.015625,-1.01953125,0.010430343734205238,0.39740796866347544,23.060343691191825,0.21365903325433055,1697,0,4.927050739572646,1.8537252679745682,37.62342557355829,0.21438342322306175,0.08065838767837513,0.0859375,,
3.6846299999998884,1200,,,,0.03125,0.05859375,-0.9375,0.010430343734205238,0.39740796866347544,23.060517761966555,0.21411523564550172,1696,0,4.937608194710747,1.8529962607959756,37.52821584306624,0.21446776611020485,0.08048592617964015,0.0859375,,
3.6930099999997763,1200,,,,-0.0625,0.11328125,-0.984375,0.010430343734205238,0.39740796866347544,23.06049260713346,0.21511883823295389,1696,0,4.9607463787261725,1.8522197125737487,37.33752083188265,0.21455768231256858,0.08011051932985988,0.0859375,,
3.7011549999993294,1200,,,,0,-0.001953125,-0.962890625,0.010430343734205238,0.39740796866347544,23.060371078597818,0.2143770390167054,1695,0,4.943614070456269,1.8519130105765451,37.46071162075204,0.21459321598467132,0.0803881457977153,0.0859375,,
3.7118099999995904,1200,,,,-0.09375,0.0546875,-1.033203125,0.010430343734205238,0.39740796866347544,23.060225803973662,0.2147234154995835,1694,0,4.9515704468208535,1.8500446882649795,37.3627863752357,0.21480992928672174,0.08025897499219273,0.0859375,,
3.721049999998882,1200,,,,-0.03125,0.0546875,-0.990234375,0.010430343734205238,0.39244698167095354,23.060210149514884,0.21536156941947157,1693,0,4.966283048942352,1.8491467977165301,37.2340194768064,0.21223138268718175,0.07902227436564077,0.0859375,,
3.729054999999702,1200,,,,-0.03125,0.076171875,-0.984375,0.010430343734205238,0.39244698167095354,23.06026911650511,0.2155759961972463,1693,0,4.971240487367182,1.8494097576669255,37.202178457602464,0.21220120638167,0.07894347148729418,0.0859375,,
3.7374199999989943,1200,,,,0,0.015625,-0.921875,0.010287234033398821,0.39244698167095354,23.060542763287696,0.21484751234607777,1694,0,4.9545002460427074,1.8251119978148849,36.83745902066814,0.21502624613766752,0.07921020530464429,0.0859375,,
3.744769999999553,1200,,,,-0.09375,0.083984375,-1.048828125,0.010287234033398821,0.39244698167095354,23.060606694596906,0.21476384779481322,1695,0,4.952584626214461,1.8254624512915936,36.85878362641725,0.21498496525813518,0.07924084317382435,0.0859375,,
3.751679999999702,1200,,,,-0.09375,0.078125,-1.029296875,0.010287234033398821,0.39244698167095354,23.06058072503492,0.21608308306988225,1695,0,4.983001380447446,1.8256115340167889,36.63678563646834,0.21496740919875482,0.07875714889641751,0.0859375,,
3.7597249999996274,1200,,,,-0.0625,0.0625,-1.0546875,0.010287234033398821,0.39244698167095354,23.060683208098077,0.21624833348971984,1693,0,4.986834312885575,1.8242841895893236,36.58200924934525,0.21512381892609608,0.07869661533708919,0.0859375,,
3.767834999999963,1200,,,,-0.0625,0.064453125,-0.990234375,0.010287234033398821,0.39244698167095354,23.06064958577378,0.2164063341885681,1693,0,4.990470640864426,1.8237593100163727,36.54483597363614,0.2151857317550474,0.07863927270855074,0.0859375,,
3.775874999999069,1200,,,,-0.0625,0.09375,-0.99609375,0.010287234033398821,0.39244698167095354,23.06081345248444,0.21613092147465132,1693,0,4.984154861440497,1.8235543330242163,36.587031978721086,0.21520991975057424,0.0787389221605226,0.0859375,,
3.783894999999553,1200,,,,-0.03125,0.0390625,-0.912109375,0.010287234033398821,0.39244698167095354,23.06057631936854,0.21661565601521823,1694,0,4.995281867509023,1.8244066389782583,36.522596469376566,0.21510938037955166,0.07856353096379995,0.0859375,,
3.792014999999665,1200,,,,-0.0625,0.05078125,-1.0703125,0.010287234033398821,0.39244698167095354,23.060613508118184,0.21675460161897453,1694,0,4.9984940940413,1.8252064908267844,36.5151274861485,0.21501511398481954,0.07851304298604438,0.0859375,,
3.800774999999441,1200,,,,-0.0625,0.064453125,-1,0.010287234033398821,0.39244698167095354,23.06058018892114,0.2147751283143795,1695,0,4.952839069079576,1.8255392375842059,36.85844042422036,0.21497592250621309,0.07923677232337069,0.0859375,,
3.808954999999143,1200,,,,-0.0625,0.05859375,-0.96875,0.010287234033398821,0.39244698167095354,23.0606176157264,0.2166219830483453,1694,0,4.995436718238257,1.824775729921328,36.52885288805886,0.21506587096479696,0.07856109561715317,0.0859375,,
3.820039999999106,1200,,,,-0.03125,0.013671875,-0.93359375,0.010287234033398821,0.39244698167095354,23.06043631221305,0.21862350752337684,1693,0,5.041553471595462,1.8234050972345,36.167524702608404,0.21522753351198,0.07784247134976015,0.0859375,,
3.827054999999702,1200,,,,0.03125,0.033203125,-0.919921875,0.010287234033398821,0.39244698167095354,23.060461989858116,0.21836569051456534,1692,0,5.035613706000254,1.8230796803328995,36.20372385118787,0.2152659512936328,0.07793429055197938,0.0859375,,
3.835019999999553,1200,,,,-0.0625,0.12109375,-1,0.010287234033398821,0.39244698167095354,23.060530572139598,0.21812379906174084,1694,0,5.030050536774509,1.8244352286858427,36.270713690597454,0.2151060095203471,0.07802048484439439,0.0859375,,
3.8426749999998138,1200,,,,-0.03125,0.009765625,-0.9765625,0.010287234033398821,0.39244698167095354,23.06050497995397,0.21945131231700013,1694,0,5.060658080543615,1.825039316390108,36.06328045371646,0.21503480946766998,0.07754860641144065,0.0859375,,
3.850889999999665,1200,,,,-0.0625,0.046875,-1.033203125,0.010287234033398821,0.39244698167095354,23.0605772416311,0.21976589803454943,1694,0,5.067928466702152,1.8252792885920845,36.01627964137084,0.2150065385191899,0.07743735616030314,0.0859375,,
3.8617249999996273,1200,,,,0,0.046875,-0.93359375,0.010287234033398821,0.39244698167095354,23.060681330723217,0.21866904966594392,1695,0,5.04265727123842,1.8255529138944897,36.20220085760765,0.21497431199281883,0.07782543221990039,0.0859375,,
3.8714299999987705,1200,,,,-0.041015625,0.06640625,-0.96875,0.010287234033398821,0.3904130403301552,23.060245573832425,0.21872564289580423,1695,0,5.043867038471621,1.825887303337199,36.200147414878614,0.21382099520413556,0.07740351546785759,0.0859375,,
3.8800449999999254,1200,,,,0,0.046875,-0.921875,0.010287234033398821,0.3904130403301552,23.060159243974127,0.21900284942572912,1695,0,5.050240582641401,1.8259699766400643,36.15609883846438,0.21381131416440236,0.0773058300771009,0.083984375,,
3.9000849999990312,1200,,,,-0.09375,0.056640625,-1.0078125,0.009688078692289112,0.3904130403301552,23.06014038570975,0.22105289733022151,1693,0,5.097510845102792,1.7174821397175613,33.69256470278148,0.22731708895345973,0.07658895727612375,0.083984375,,
3.9089199999999256,1200,,,,-0.0625,0.068359375,-0.98046875,0.009688078692289112,0.3904130403301552,23.059984933327904,0.22144510211699966,1693,0,5.106520718377271,1.7177211395652991,33.63779830332598,0.22728546056605928,0.07645382479799652,0.083984375,,
3.917109999999404,1200,,,,-0.0625,0.064453125,-0.970703125,0.009688078692289112,0.3904130403301552,23.059985723876043,0.22072350626132653,1694,0,5.089880903310054,1.718559281158942,33.76423365901013,0.22717461341622908,0.07670376728780855,0.083984375,,
3.9252249999996276,1200,,,,0,0.04296875,-0.9296875,0.009688078692289112,0.3904130403301552,23.059986582813295,0.22066118975637378,1694,0,5.088444075129598,1.718898630165136,33.78043670689959,0.22712976407029187,0.07672542619429532,0.083984375,,
3.9323899999996645,1200,,,,-0.0625,0.072265625,-1.005859375,0.009688078692289112,0.3904130403301552,23.060182026874294,0.21996833637128418,1694,0,5.072509876870527,1.7184590007407863,33.87788377853264,0.22718787015684258,0.07696644261065878,0.083984375,,
3.9408849999997764,1200,,,,-0.0625,0.0546875,-1,0.009688078692289112,0.3904130403301552,23.060074940028862,0.2186641980197597,1693,0,5.042412793036969,1.7177079178292647,34.0651983154024,0.2272872100534622,0.07742583885025711,0.083984375,,
3.949054999999702,1200,,,,-0.09375,0.072265625,-1.005859375,0.009688078692289112,0.3904130403301552,23.060071281605524,0.21773202674422507,1693,0,5.02091605701027,1.7174099290410398,34.20511136893374,0.22732664678848832,0.07775733270526507,0.083984375,,
3.957074999999255,1200,,,,-0.0625,0.0546875,-0.9765625,0.009688078692289112,0.3904130403301552,23.06006794055238,0.2176031342691402,1693,0,5.017943060323515,1.717294405125659,34.22307476352556,0.2273419392533266,0.07780340183951483,0.083984375,,
3.965489999999292,1200,,,,-0.0625,0.087890625,-0.9375,0.009688078692289112,0.3904130403301552,23.059967014078264,0.21578577790214595,1692,0,4.976012920530704,1.717085230472167,34.50725024019905,0.22736963395975326,0.07845900856071666,0.083984375,,
3.9731699999989942,1200,,,,0,0.05078125,-0.921875,0.009688078692289112,0.3904130403301552,23.060100357514763,0.21489528718893444,1692,0,4.955506888933785,1.7170019440150404,34.64836156013227,0.22738066295790713,0.07878367421948143,0.083984375,,
3.9812949999999256,1200,,,,-0.03125,0.076171875,-1.02734375,0.009688078692289112,0.3904130403301552,23.06019330799531,0.21448086946212983,1692,0,4.945970310663622,1.7169694241623903,34.71451133583568,0.2273849696074903,0.07893558105037873,0.083984375,,
3.9888349999990313,1200,,,,-0.0625,0.05078125,-1,0.009688078692289112,0.3904130403301552,23.060184045252328,0.2147229640742119,1692,0,4.95155107029343,1.7166294487411249,34.668519507754915,0.22743000279790213,0.07884661488647823,0.083984375,,
3.9971299999998884,1200,,,,-0.0625,0.037109375,-0.99609375,0.009688078692289112,0.3904130403301552,23.060175086494716,0.21463547509449007,1692,0,4.949531635451917,1.7164941014891921,34.67992989870985,0.22744793587781137,0.07887878471848751,0.083984375,,
4.004754999999888,1200,,,,-0.03125,0.046875,-0.939453125,0.009688078692289112,0.3904130403301552,23.060298082739898,0.2144448620844277,1692,0,4.94516244197895,1.7164405974428796,34.70948866860673,0.2274550257735602,0.07894847639705038,0.083984375,,
4.015869999999181,1200,,,,0,0.02734375,-0.9453125,0.009688078692289112,0.3904130403301552,23.06047791914319,0.21405536589349372,1690,0,4.936219038661028,1.7149520371161473,34.74221916986358,0.22765245434307968,0.07909151463344637,0.08203125,,
4.0237299999995155,1200,,,,-0.09375,0.087890625,-0.982421875,0.009688078692289112,0.39733822081218423,23.060581504151916,0.21420091161865576,1690,0,4.9395975806456525,1.7142604386017137,34.704455385566924,0.2317840462656215,0.08043939092711441,0.08203125,,
4.031484999999404,1200,,,,-0.0625,0.03125,-0.984375,0.009688078692289112,0.39733822081218423,23.06064066573698,0.2146916501979552,1690,0,4.950926999149144,1.7140999457162371,34.62179801905418,0.23180574843677293,0.08025531802033639,0.08203125,,
4.040709999999032,1200,,,,-0.09375,0.09375,-1.03125,0.009784344009322963,0.39733822081218423,23.060715276007453,0.21566680750229517,1691,0,4.973430842295937,1.732799732936514,34.84113457857159,0.22930417939228862,0.07989217773635651,0.083984375,,
4.0491199999991805,1200,,,,-0.03125,0.048828125,-0.982421875,0.009784344009322963,0.39733822081218423,23.0606762043552,0.21730439951645136,1692,0,5.011186395030726,1.7333993355878983,34.59059789328131,0.22922486045457224,0.07929024975127631,0.08203125,,
4.056729999999516,1200,,,,0,0.029296875,-0.908203125,0.009784344009322963,0.39733822081218423,23.060643021450552,0.21741016433883967,1692,0,5.013618189052881,1.7336030475726996,34.57788332103114,0.22919792473168318,0.07925179098794619,0.08203125,,
4.064894999999553,1200,,,,-0.0625,0.05078125,-0.96484375,0.009784344009322963,0.39733822081218423,23.06061166582447,0.21814880843145024,1692,0,5.030644956600009,1.7335170447980996,34.459141119148015,0.22920929563658352,0.0789835546416155,0.08203125,,
4.073004999998957,1200,,,,0,0.0234375,-1.009765625,0.009784344009322963,0.39733822081218423,23.060777184147046,0.21821233824862116,1692,0,5.032146111183181,1.733483286445427,34.4481906555341,0.22921375932440702,0.07895999282078879,0.08203125,,
4.08118499999959,1200,,,,-0.0625,0.07421875,-1.0390625,0.009784344009322963,0.39733822081218423,23.06067340360941,0.21827332135542638,1692,0,5.033529776498571,1.7334697697947756,34.438452671687855,0.22921554660813315,0.07893828753479254,0.08203125,,
4.088285000000149,1200,,,,-0.03125,0.025390625,-0.96484375,0.009784344009322963,0.39733822081218423,23.06064096720391,0.2183301759007324,1691,0,5.034833798753265,1.7325889486206238,34.412038567184695,0.22933207621376056,0.07891784251360467,0.08203125,,
4.095160000000149,1200,,,,-0.0625,0.06640625,-0.99609375,0.009784344009322963,0.39733822081218423,23.06069985616541,0.2186607627689123,1690,0,5.042470220534075,1.7318453886769312,34.34517831408238,0.22943053889801135,0.07879832769148212,0.08203125,,
4.102474999999627,1200,,,,0,0.03125,-0.943359375,0.009784344009322963,0.39733822081218423,23.06066978482402,0.21981592027299307,1690,0,5.069102350862697,1.731523789946251,34.15839077803523,0.22947315140528227,0.07838433578768877,0.08203125,,
4.111,1200,,,,-0.0625,0.04296875,-1,0.009784344009322963,0.39733822081218423,23.060736266681637,0.21979766234766124,1691,0,5.068695923432556,1.732207138158296,34.174611464663144,0.22938262524113548,0.0783906209436024,0.08203125,,
4.119074999999255,1200,,,,-0.03125,0.0546875,-1.009765625,0.009784344009322963,0.39733822081218423,23.06076536099877,0.21893660294400444,1692,0,5.048845629425839,1.7332926083817364,34.33047345079649,0.2292389749375054,0.07869882542979831,0.08203125,,
4.1279599999999625,1200,,,,-0.125,0.083984375,-1.052734375,0.009784344009322963,0.39733822081218423,23.06034858881376,0.21945233916907111,1692,0,5.060647439869368,1.733756567229119,34.2595801788135,0.22917762984869794,0.07851529384991911,0.08203125,,
4.13627999999933,1200,,,,0,0.00390625,-0.99609375,0.009784344009322963,0.39733822081218423,23.060524662860043,0.2198704531237954,1692,0,5.0703280068954975,1.7338529788049226,34.19607126889884,0.22916488633658777,0.07836538785495058,0.08203125,,
4.144979999999515,1200,,,,-0.0625,0.0390625,-0.962890625,0.009784344009322963,0.39733822081218423,23.060495764108357,0.21889205983302498,1692,0,5.047759418576425,1.7337771142914822,34.347459348219964,0.22917491385538258,0.07871576037279565,0.08203125,,
4.15318499999959,1200,,,,0,0.02734375,-0.8984375,0.009784344009322963,0.39733822081218423,23.060648466536527,0.21834916193828624,1692,0,5.035273266421677,1.7337531263937063,34.432155608225806,0.22917808467845,0.0789109547364354,0.08203125,,
4.161054999999702,1200,,,,-0.0625,0.01953125,-1.015625,0.009784344009322963,0.39733822081218423,23.06068579374039,0.21864535751985062,1693,0,5.042111890025308,1.734354177916064,34.39737585647586,0.22909866154882572,0.07880392769510512,0.08203125,,
4.172789999999106,1200,,,,0,0.021484375,-0.978515625,0.009784344009322963,0.40008273224342705,23.060550593407577,0.21934157499215748,1693,0,5.058137487344349,1.7351517001171124,34.30416244039486,0.23057507433870122,0.07909684804820928,0.08203125,,
4.180134999999776,1200,,,,-0.0625,0.052734375,-1,0.009784344009322963,0.40008273224342705,23.06038333076008,0.21998975758594605,1694,0,5.073048138772901,1.7355002671241417,34.21020695348527,0.23052876442732856,0.07886436739790162,0.08203125,,
4.187684999999591,1200,,,,-0.0625,0.07421875,-0.94140625,0.00994817879020607,0.40008273224342705,23.060267562000575,0.2196467599172555,1694,0,5.065113052818415,1.764318201964741,34.832750692168844,0.226763364906566,0.07898791755907725,0.08203125,,
4.194779999999329,1200,,,,0,0.013671875,-0.88671875,0.00994817879020607,0.40008273224342705,23.06016881972399,0.221624870688119,1693,0,5.110706932717523,1.7639114973162853,34.51404121852783,0.226815649680914,0.07828324682094233,0.08203125,,
4.202804999999702,1200,,,,0,0.015625,-0.9921875,0.00994817879020607,0.40008273224342705,23.060161686250368,0.22153224035351404,1693,0,5.108569281269312,1.7637376087930174,34.52507956111709,0.2268380116457439,0.07831600399554914,0.08203125,,
4.211359999999404,1200,,,,-0.03125,0.068359375,-1.029296875,0.00994817879020607,0.40008273224342705,23.060152904275323,0.22165745547598942,1693,0,5.111454815648916,1.7640088797218156,34.510896473568245,0.22680312828500054,0.07827179280125071,0.08203125,,
4.219469999999739,1200,,,,-0.0625,0.06640625,-1.05078125,0.00994817879020607,0.40008273224342705,23.060145579704795,0.22154941980561874,1694,0,5.108961873816701,1.764774683210473,34.54272564167876,0.2267047097001628,0.07830998588849152,0.08203125,,
4.22846499999892,1200,,,,-0.03125,0.05078125,-1.04296875,0.00994817879020607,0.40008273224342705,23.060211746059444,0.21974194877160338,1694,0,5.067295868164921,1.7650972155633788,34.833119310291906,0.2266632844444943,0.07895389230317702,0.08203125,,
4.236449999999255,1200,,,,-0.0625,0.064453125,-0.943359375,0.00994817879020607,0.40008273224342705,23.060299941158803,0.21972758777732124,1694,0,5.066984079492326,1.7648097461738843,34.82958932743884,0.2267002055665254,0.07895875060328043,0.08203125,,
4.2450799999991435,1200,,,,-0.0625,0.05859375,-0.9140625,0.00994817879020607,0.40008273224342705,23.06028382000658,0.21900455799059784,1693,0,5.050307265138276,1.7638604742675854,34.92580513750764,0.2268222107587931,0.07921948333820296,0.08203125,,
4.254369999999181,1200,,,,-0.03125,0.046875,-0.984375,0.00994817879020607,0.40008273224342705,23.060335071369643,0.21860292414422747,1693,0,5.041056678347086,1.7635355728915203,34.98345060206239,0.22686399888574132,0.07936485498405668,0.08203125,,
4.262569999999367,1200,,,,-0.03125,0.037109375,-0.96484375,0.00994817879020607,0.40008273224342705,23.060314992231348,0.21865392577708742,1693,0,5.042228402707609,1.7632686119166396,34.97002656543262,0.22689834636626616,0.07934641200081058,0.080078125,,
4.2712149999998505,1200,,,,-0.09375,0.0390625,-1.02734375,0.00994817879020607,0.40008273224342705,23.060232063795016,0.21891259720029613,1692,0,5.048175293126912,1.762959693079553,34.92271148903688,0.22693810517276156,0.07925293972817059,0.08203125,,
4.279294999998994,1200,,,,-0.0625,0.05078125,-0.9765625,0.00994817879020607,0.40008273224342705,23.06022092559531,0.21893878608708853,1692,0,5.048776776349914,1.7628425434760828,34.91623063498868,0.2269531863319562,0.07924349797312144,0.08203125,,
4.2985099999997765,1200,,,,-0.01953125,0.046875,-0.984375,0.00994817879020607,0.40008273224342705,23.06019507451321,0.22083801374255405,1692,0,5.092567676771325,1.7627739070294304,34.614638801364435,0.2269620231204996,0.07856208451943017,0.080078125,,
4.312459999999032,1200,,,,-0.0625,0.03125,-0.96484375,0.00994817879020607,0.39862755871755984,23.06023513882071,0.22150335623739537,1692,0,5.107919478872306,1.7628450453355549,34.511997548652516,0.22612739546922667,0.0780410811811713,0.080078125,,
4.3216199999991805,1200,,,,-0.03125,0.029296875,-0.99609375,0.00994817879020607,0.39862755871755984,23.060224520438034,0.22022721429612394,1692,0,5.078489007179239,1.762960477068914,34.714271795738725,0.22611258953480073,0.07849333889549379,0.080078125,,
4.328649999999441,1200,,,,-0.09375,0.115234375,-0.986328125,0.00994817879020607,0.39862755871755984,23.060140775168506,0.22041896326990434,1692,0,5.08289232252069,1.763013400420437,34.68523998844283,0.2261058019312256,0.07842534002763879,0.080078125,,
4.336614999999292,1200,,,,0.0625,0,-0.91015625,0.009764832931194156,0.39862755871755984,23.06013459777385,0.22037604908952085,1692,0,5.081901354129968,1.7305379958399312,34.052963157845525,0.23034892020621747,0.07844063293231823,0.080078125,,
4.344194999999367,1200,,,,-0.03125,0.06640625,-0.99609375,0.009764832931194156,0.39862755871755984,23.06019481044854,0.22087406261049464,1692,0,5.093398912373214,1.73037832541853,33.972959023786316,0.23037017562107,0.0782635653667707,0.080078125,,
4.351879999998957,1200,,,,0,0.01171875,-0.9765625,0.009764832931194156,0.39862755871755984,23.060186064628784,0.2217009160021024,1692,0,5.112464373707119,1.730319623138397,33.84511845280045,0.2303779910873011,0.07797170397267912,0.080078125,,
4.360699999999255,1200,,,,-0.09375,0.056640625,-1.03515625,0.009764832931194156,0.39862755871755984,23.059955695481413,0.2222938754850197,1692,0,5.126086920061416,1.7302925905691238,33.75464789325876,0.2303815903103672,0.07776449462015439,0.080078125,,
4.377589999999851,1200,,,,-0.0625,0.03515625,-0.9609375,0.009764832931194156,0.39862755871755984,23.060042794530002,0.22133528616759535,1694,0,5.104001170964293,1.7326245677904966,33.946398320734595,0.23007151469975035,0.0781009928025247,0.08203125,,
4.391929999999702,1200,,,,0,0.0234375,-0.921875,0.009764832931194156,0.39862755871755984,23.060039579749326,0.22219990092225486,1695,0,5.123938509883576,1.7329126496865264,33.8199345355903,0.23003326727961113,0.07779710040404393,0.080078125,,
4.400394999999553,1200,,,,-0.0625,0.05859375,-1.017578125,0.009764832931194156,0.39862755871755984,23.05999212932181,0.2221916917707127,1693,0,5.123738663433333,1.7313771395945416,33.7912851010706,0.23023727736806754,0.07780013480438638,0.080078125,,
4.422019999999553,1200,,,,-0.041015625,0.017578125,-0.94140625,0.009764832931194156,0.39862755871755984,23.059757079720953,0.22106548221427075,1694,0,5.0977163185724566,1.731978096174867,33.975568429823554,0.2301573903260916,0.07819728164653734,0.08203125,,
4.429944999999367,1200,,,,0,0.0625,-0.99609375,0.009764832931194156,0.39862755871755984,23.059643429468114,0.2199714645967955,1695,0,5.072463538259973,1.732752901477577,34.15998731992798,0.2300544748057479,0.07858657942257039,0.080078125,,
4.4370249999994416,1200,,,,-0.03125,0.044921875,-0.9375,0.009764832931194156,0.39862755871755984,23.05965869994258,0.21994924119988316,1695,0,5.071954433380655,1.7330529966463017,34.16933293486146,0.23001463861114435,0.07859446766596029,0.080078125,,
4.445409999999217,1200,,,,0,0.00390625,-1.015625,0.009764832931194156,0.39862755871755984,23.059675702032138,0.22024586794798184,1695,0,5.078798289593056,1.733196111322563,34.12610646250802,0.22999564568222816,0.07848855890464991,0.080078125,,
4.453499999999068,1200,,,,-0.03125,0.02734375,-0.974609375,0.009764832931194156,0.39862755871755984,23.059691615540302,0.21893531394403337,1695,0,5.04858082330091,1.7332519825610397,34.331469441105014,0.22998823179105835,0.07895833951548495,0.080078125,,
4.461534999999218,1200,,,,-0.125,0.1015625,-1.04296875,0.009764832931194156,0.39862755871755984,23.059641329525995,0.21832088262183216,1695,0,5.034401248004994,1.733274171663179,34.42860603036025,0.22998528751804634,0.07918072856737945,0.080078125,,
4.4692549999998885,1200,,,,-0.03125,0.02734375,-0.96484375,0.009764832931194156,0.3795453936572076,23.059659137566488,0.21934340288842324,1695,0,5.057984104680957,1.7332829456559635,34.2682560835231,0.2189748618991737,0.0750388664341499,0.080078125,,
4.481909999999218,1200,,,,-0.03125,0.07421875,-0.96484375,0.009764832931194156,0.3795453936572076,23.05977255524866,0.2199793945629051,1695,0,5.0726748054618955,1.7332863414506468,34.16908057233173,0.21897443289119384,0.07482155040739849,0.080078125,,
4.490609999999404,1200,,,,0,-0.01171875,-0.896484375,0.009655711456333248,0.3795453936572076,23.059596538484982,0.21951473744197653,1695,0,5.061921279663442,1.713867794845995,33.85804915085418,0.22145546745121775,0.07498050101688719,0.080078125,,
4.498379999999888,1200,,,,-0.03125,0.033203125,-1,0.009655711456333248,0.3795453936572076,23.05970766832962,0.21981295327614656,1695,0,5.068822444260137,1.7137389007684325,33.809408785053144,0.22147212360472252,0.07487841561445882,0.080078125,,
4.506169999999925,1200,,,,-0.0625,0.046875,-1.017578125,0.009655711456333248,0.3795453936572076,23.05978867209452,0.21741926647866683,1695,0,5.013642338239861,1.713683485735989,34.1804095730054,0.2214792853034942,0.07570252683609947,0.080078125,,
4.514509999999777,1200,,,,0,0.02734375,-0.93359375,0.009655711456333248,0.3795453936572076,23.059896871297724,0.21688161978422824,1694,0,5.001267785504307,1.7131709593537523,34.25473365611842,0.22154554487684106,0.0758898363245582,0.080078125,,
4.522524999999441,1200,,,,-0.0625,0.05859375,-0.96875,0.009655711456333248,0.3795453936572076,23.059637549759085,0.21614777937250573,1693,0,4.984289449515275,1.7119775358659677,34.3474742630057,0.2216999847870215,0.07614834521580977,0.080078125,,
4.530274999999441,1200,,,,0,0.037109375,-0.939453125,0.009655711456333248,0.3795453936572076,23.059461407222717,0.2156769816011174,1693,0,4.97339503365725,1.7115169887965789,34.41345353051501,0.2217596413834477,0.0763151511369295,0.080078125,,
4.537674999999814,1200,,,,-0.0625,0.0625,-1.02734375,0.009655711456333248,0.3795453936572076,23.059542897146844,0.2150858821574601,1692,0,4.959782126180622,1.7113441595747276,34.50442209026189,0.22178203696416351,0.07652461015449563,0.080078125,,
4.545319999999367,1200,,,,0,0.046875,-1.0625,0.009655711456333248,0.3795453936572076,23.059661579053582,0.21498225011850056,1692,0,4.957417933236075,1.7109402364591102,34.51272939867413,0.2218343958306216,0.07656110474620609,0.080078125,,
4.553559999999591,1200,,,,-0.125,0.068359375,-1.02734375,0.009655711456333248,0.3795453936572076,23.05967828411627,0.21456204245404067,1692,0,4.9477316709730745,1.7107774940118952,34.57700634916273,0.2218554984419082,0.07671098978222521,0.080078125,,
4.561359999999404,1200,,,,-0.0625,0.064453125,-0.953125,0.009655711456333248,0.3795453936572076,23.0598251686094,0.21576257400907464,1692,0,4.975447234578408,1.710713308962957,34.38310624769219,0.22186382234162305,0.0762836737609113,0.080078125,,
4.5691049999995155,1200,,,,-0.03125,0.037109375,-0.923828125,0.009655711456333248,0.3795453936572076,23.059735451846684,0.2165850142836283,1692,0,4.994393132214904,1.7108519598383554,34.25545235522198,0.22184584205232333,0.07599429672627463,0.080078125,,
4.577259999999776,1200,,,,0,0.0078125,-0.88671875,0.009655711456333248,0.3795453936572076,23.05974845896485,0.21630260736276255,1692,0,4.987883716803543,1.7109060613520075,34.30124193930551,0.2218388269413692,0.07609347274447631,0.080078125,,
4.584820000000298,1200,,,,-0.03125,0.009765625,-0.990234375,0.009655711456333248,0.3795453936572076,23.059759484281948,0.2153052861807944,1692,0,4.964888115023612,1.710926304928221,34.46052086754999,0.22183620215783095,0.07644591073637971,0.080078125,,
4.592554999998771,1200,,,,0,0.0078125,-0.95703125,0.009655711456333248,0.3795453936572076,23.059836262620003,0.21508408108463298,1692,0,4.9598036925077205,1.71077247534984,34.49274570955566,0.22185614926940733,0.0765242774085089,0.080078125,,
4.600494999999181,1200,,,,-0.03125,0.037109375,-1.05078125,0.009655711456333248,0.3795453936572076,23.059844478386125,0.21530135247909796,1692,0,4.964815704154192,1.7107109219743646,34.45668528124756,0.22186413191257753,0.07644702568508877,0.080078125,,
4.608674999999813,1200,,,,0,0.015625,-0.8984375,0.009655711456333248,0.3795453936572076,23.059720652302737,0.2144358261975838,1692,0,4.944830249962023,1.7106871203364153,34.59546706076622,0.22186721881823018,0.07675600060489894,0.080078125,,
4.618289999999106,1200,,,,-0.03125,0.05078125,-0.9765625,0.009655711456333248,0.3720483461851868,23.0599779600441,0.21610784623865004,1691,0,4.983442171255869,1.7101955258983257,34.31755535887642,0.2175472573463543,0.07465690047155248,0.080078125,,
4.625284999999217,1200,,,,-0.03125,0.048828125,-0.96484375,0.009655711456333248,0.3720483461851868,23.059921647763584,0.21587835970417724,1690,0,4.97813806022605,1.7092493597643381,34.33511363256011,0.21766768204990453,0.07473644597319436,0.080078125,,
4.636745000000111,1200,,,,-0.03125,0.02734375,-0.96875,0.009655711456333248,0.3720483461851868,23.060029352555933,0.21724414181799126,1690,0,5.009656286993702,1.7087906289929782,34.10993751067151,0.21772611569413963,0.07426624200768336,0.078125,,
4.6533249999992545,1200,,,,0,0.0078125,-0.96875,0.009822422962406383,0.3720483461851868,23.059956035811176,0.22651456264121128,1694,0,5.223415855977329,1.7424184201358133,33.357834569918566,0.2135241121682973,0.07122702010398797,0.080078125,,
4.662354999999516,1200,,,,-0.0625,0.037109375,-0.94140625,0.009822422962406383,0.3720483461851868,23.059884206985586,0.23084729652202088,1695,0,5.323311927293468,1.7431248300260764,32.74511908815258,0.21343758047415406,0.06989038990513324,0.080078125,,
4.669330000000074,1200,,,,-0.09375,0.115234375,-0.9609375,0.009822422962406383,0.3720483461851868,23.059803589688386,0.2328678911215083,1703,0,5.369887831606921,1.7516173739768615,32.619254422167245,0.21240274943179543,0.06928419323683574,0.080078125,,
4.677219999999739,1200,,,,0,0.07421875,-1,0.009822422962406383,0.3720483461851868,23.059681854793503,0.2345605436902494,1707,0,5.4088915131845425,1.7556472697540888,32.458541005575334,0.21191520221331195,0.06878458280745575,0.080078125,,
4.685679999999702,1200,,,,0.03125,0.001953125,-0.884765625,0.009822422962406383,0.3720483461851868,23.059599142092654,0.23189083118457787,1708,0,5.347309611843045,1.7572294469915923,32.86193571248874,0.2117243976431991,0.06957673544116211,0.080078125,,
4.693959999999962,1200,,,,0.0625,-0.033203125,-0.8671875,0.009822422962406383,0.3720483461851868,23.059839267390497,0.22943783902701823,1715,0,5.290799689820455,1.76439341067192,33.34833133196534,0.21086473341764667,0.07031986996238226,0.08203125,,
4.7021299999998885,1200,,,,0,0.02734375,-0.9296875,0.009822422962406383,0.3720483461851868,23.05991505661133,0.22673025046711906,1721,0,5.2283803165359775,1.770025387504438,33.85418199028709,0.21019379089795906,0.07115938850287856,0.080078125,,
4.710399999999441,1200,,,,-0.09375,0.0703125,-1.02734375,0.009822422962406383,0.3720483461851868,23.059728979237022,0.22638410869053244,1723,0,5.220356191609815,1.7721141874396484,33.94623129907879,0.20994603441594384,0.07126876644607985,0.08203125,,
4.7186549999993295,1200,,,,-0.0625,0.09375,-1.048828125,0.009822422962406383,0.3720483461851868,23.059811075876848,0.22447614927215542,1723,0,5.176377593256234,1.771846449755005,34.22946680055489,0.209977758646428,0.07187426718442837,0.08203125,,
4.7263649999992925,1200,,,,0,-0.015625,-0.953125,0.009822422962406383,0.3720483461851868,23.05994417689059,0.22282752160249442,1721,0,5.138390209228403,1.770659446485584,34.45941967010466,0.21011852218315086,0.0724056233637139,0.08203125,,
4.733549999999814,1200,,,,-0.03125,-0.005859375,-0.986328125,0.009822422962406383,0.3720483461851868,23.060033746797878,0.22097745355127849,1721,0,5.095747536173942,1.7701892656541336,34.73855902569402,0.21017433186597972,0.0730115343321214,0.08203125,,
4.741504999999888,1200,,,,-0.09375,0.0859375,-1.076171875,0.009822422962406383,0.3720483461851868,23.0602289085803,0.21962129592933485,1719,0,5.064517357329517,1.768255389091191,34.914588386830594,0.21040419188339304,0.07346175754472391,0.083984375,,
4.749570000000298,1200,,,,0,0.0078125,-0.98046875,0.009822422962406383,0.3720483461851868,23.060152271225732,0.21897316064065786,1715,0,5.049554427685144,1.7640667220948443,34.935096697304864,0.21090378358443052,0.07367944073349539,0.083984375,,
4.757649999999441,1200,,,,-0.0625,0.041015625,-0.9296875,0.009822422962406383,0.3720483461851868,23.060144861747414,0.2180369969397618,1713,0,5.027964734651285,1.7624167895760723,35.05229019268977,0.21110122667106368,0.07399581457306906,0.083984375,,
4.766899999999441,1200,,,,-0.09375,0.115234375,-0.9765625,0.009822422962406383,0.3935055584645055,23.060137121710493,0.217877082798273,1712,0,5.024275405006446,1.760593747590226,35.04174444410192,0.2235073020128054,0.07832085758523434,0.083984375,,
4.77575,1200,,,,0,0.0390625,-0.9296875,0.009822422962406383,0.3935055584645055,23.060056552865188,0.2167725366954978,1709,0,4.998786955306223,1.757657424047765,35.16167901858685,0.22388069090180787,0.07872020991948826,0.083984375,,
4.783474999999627,1200,,,,-0.03125,0.044921875,-0.966796875,0.010017116726238109,0.3935055584645055,23.060053869770016,0.2150033483278433,1708,0,4.957988794620993,1.7914852836873663,36.13330642519764,0.21965324641381567,0.07936798059959846,0.083984375,,
