Time (s),ESC signal (µs),Servo 1 (µs),Servo 2 (µs),Servo 3 (µs),AccX (g),AccY (g),AccZ (g),Torque (N·m),Thrust (N),Voltage (V),Current (A),Motor Electrical Speed (RPM),Motor Optical Speed (RPM),Electrical Power (W),Mechanical Power (W),Motor Efficiency (%),Propeller Mech. Efficiency (N/W),Overall Efficiency (N/W),Vibration (g),App message,90% settling time (s),Max acceleration (RPM/s),
0,1000,,,,-0.0625,0.046875,-0.955078125,-0.00021721539533470338,-0.014306333422916515,23.071843762680654,0.07538960161722601,0,0,1.7393771098433752,0,0,0,0,0.05859375,,
0,1000,,,,-0.0625,0.046875,-0.953125,-0.00021721539533470338,-0.014306333422916515,23.071859235027507,0.07517529792575796,0,0,1.734433891694343,0,0,0,0,0.05859375,,
0.008635000000707806,1000,,,,-0.0625,0.048828125,-0.95703125,-0.00021721539533470338,-0.014306333422916515,23.07169829425987,0.07524196759829962,0,0,1.735959975494446,0,0,0,0,0.05859375,,
0.017245000000111758,1000,,,,-0.0625,0.046875,-0.953125,-0.00021721539533470338,-0.013423578053998336,23.071514089164644,0.07615512313567913,0,0,1.7570139963868894,0,0,0,0,0.05859375,,
0.029325000001117586,1000,,,,-0.0625,0.0546875,-0.95703125,-0.00021721539533470338,-0.013423578053998336,23.0715410126105,0.0761587915549673,0,0,1.757100682831282,0,0,0,0,0.05859375,,
0.0464300000006333,1000,,,,-0.0625,0.05078125,-0.953125,-0.00021721539533470338,-0.013423578053998336,23.071595038363697,0.07747393296001424,0,0,1.7874472072827863,0,0,0,0,0.05859375,,
0.055125,1000,,,,-0.0625,0.046875,-0.95703125,-0.00021721539533470338,-0.013423578053998336,23.071617120330945,0.07787868788930169,0,0,1.7967872688157231,0,0,0,0,0.05859375,,
0.0631800000006333,1000,,,,-0.0625,0.044921875,-0.95703125,-0.00021721539533470338,-0.013423578053998336,23.071636620090402,0.07867695100723007,0,0,1.8152060240154677,0,0,0,0,0.05859375,,
0.07191000000108033,1000,,,,-0.0625,0.046875,-0.95703125,-0.00021721539533470338,-0.013423578053998336,23.07165611330529,0.07854540532483818,0,0,1.8121725809348448,0,0,0,0,0.05859375,,
0.0798500000005588,1000,,,,-0.0625,0.048828125,-0.95703125,-0.00021721539533470338,-0.013423578053998336,23.071672900352706,0.07885524908524197,0,0,1.8193225133705395,0,0,0,0,0.05859375,,
0.08776500000059605,1000,,,,-0.0625,0.048828125,-0.955078125,-0.00021721539533470338,-0.013423578053998336,23.071590641738027,0.07808515980976102,0,0,1.8015488423255006,0,0,0,0,0.05859375,,
0.09566500000096857,1000,,,,-0.0625,0.05078125,-0.95703125,-0.00021721539533470338,-0.013423578053998336,23.071415442815866,0.07926441454843608,0,0,1.8287422378785467,0,0,0,0,0.05859375,,
0.1038850000007078,1000,,,,-0.0625,0.05078125,-0.95703125,-0.00021721539533470338,-0.013423578053998336,23.071325582912845,0.07932045804009244,0,0,1.8300281128287497,0,0,0,0,0.05859375,,
0.11315000000037254,1000,,,,-0.0625,0.05078125,-0.955078125,-0.00021721539533470338,-0.013423578053998336,23.071285215103316,0.07886317089893953,0,0,1.8194747087768697,0,0,0,0,0.05859375,,
0.12321000000089408,1000,,,,-0.0625,0.05078125,-0.953125,-0.00022824131378646628,-0.013423578053998336,23.071135159070224,0.07868960364667,0,0,1.8154584813459889,0,0,0,0,0.05859375,,
0.1301550000011921,1000,,,,-0.0625,0.05078125,-0.9609375,-0.00022824131378646628,-0.013423578053998336,23.071257864665313,0.07858393347926244,0,0,1.8130301933197694,0,0,0,0,0.05859375,,
0.13971000000089406,1000,,,,-0.0625,0.052734375,-0.955078125,-0.00022824131378646628,-0.013423578053998336,23.071299278583936,0.07869416340040022,0,0,1.8155765952884202,0,0,0,0,0.05859375,,
0.14689000000059604,1000,,,,-0.0625,0.048828125,-0.95703125,-0.00022824131378646628,-0.013423578053998336,23.071242859904697,0.07802107460457836,0,0,1.80004316039297,0,0,0,0,0.05859375,,
0.15507000000122934,1000,,,,-0.0625,0.046875,-0.95703125,-0.00022824131378646628,-0.013423578053998336,23.071280175249804,0.07814612627261847,0,0,1.8029311738460303,0,0,0,0,0.05859375,,
0.16334500000067056,1000,,,,-0.0625,0.048828125,-0.95703125,-0.00022824131378646628,-0.01235136603232121,23.07151208223596,0.07709129955556131,0,0,1.7786128491314044,0,0,0,0,0.05859375,,
0.17086000000033527,1000,,,,-0.0625,0.05078125,-0.955078125,-0.00022824131378646628,-0.01235136603232121,23.071535904558296,0.07704886918023619,0,0,1.7776357516974344,0,0,0,0,0.05859375,,
0.1802250000005588,1000,,,,-0.0625,0.046875,-0.953125,-0.00022824131378646628,-0.01235136603232121,23.071498928409962,0.07701359129424448,0,0,1.7768189890181643,0,0,0,0,0.05859375,,
0.1986450000004843,1000,,,,-0.0625,0.046875,-0.95703125,-0.00022824131378646628,-0.01235136603232121,23.071715933212534,0.07723845749613646,0,0,1.7820237504703706,0,0,0,0,0.05859375,,
0.2069650000007823,1000,,,,-0.0625,0.046875,-0.955078125,-0.00022824131378646628,-0.01235136603232121,23.07195245819947,0.07718228112809994,0,0,1.780745920802908,0,0,0,0,0.05859375,,
0.21408000000100583,1000,,,,-0.0625,0.046875,-0.95703125,-0.00022824131378646628,-0.01235136603232121,23.07201263106953,0.07732949631591436,0,0,1.7841471157550208,0,0,0,0,0.05859375,,
0.2221000000005588,1000,,,,-0.0625,0.05078125,-0.955078125,-0.00022824131378646628,-0.01235136603232121,23.072012049705716,0.07696450971945779,0,0,1.7757260956470227,0,0,0,0,0.05859375,,
0.23020500000007452,1000,,,,-0.0625,0.0546875,-0.95703125,-0.00022824131378646628,-0.01235136603232121,23.071812812040953,0.07714328519490313,0,0,1.779835435722695,0,0,0,0,0.05859375,,
0.23870500000100583,1000,,,,-0.0625,0.05078125,-0.955078125,-0.00022824131378646628,-0.01235136603232121,23.072042104069403,0.07780543358999802,0,0,1.79513023971381,0,0,0,0,0.05859375,,
0.2470550000006333,1000,,,,-0.0625,0.05078125,-0.955078125,-0.00022824131378646628,-0.01235136603232121,23.071973706334873,0.07707739922700545,0,0,1.7783277283181456,0,0,0,0,0.05859375,,
0.2559950000010431,1000,,,,-0.0625,0.048828125,-0.95703125,-0.00022824131378646628,-0.01235136603232121,23.071975172094998,0.07750515477069159,0,0,1.7881970065787764,0,0,0,0,0.05859375,,
0.2641000000005588,1000,,,,-0.0625,0.046875,-0.953125,-0.00022824131378646628,-0.01235136603232121,23.071844397254157,0.0776566956825302,0,0,1.7916831991922555,0,0,0,0,0.05859375,,
0.2726200000010431,1000,,,,-0.0625,0.04296875,-0.955078125,-0.00022824131378646628,-0.01235136603232121,23.07185201120185,0.07758673147197406,0,0,1.7900695865542429,0,0,0,0,0.05859375,,
0.2810100000007078,1000,,,,-0.0625,0.05078125,-0.95703125,-0.00020152652894493323,-0.01235136603232121,23.071860186338483,0.07798968095913386,0,0,1.799367015066281,0,0,0,0,0.05859375,,
0.2894550000000745,1000,,,,-0.0625,0.0546875,-0.95703125,-0.00020152652894493323,-0.01235136603232121,23.071736371806917,0.07811574040378472,0,0,1.802265769084627,0,0,0,0,0.05859375,,
0.2971700000008568,1000,,,,-0.0625,0.048828125,-0.953125,-0.00020152652894493323,-0.01235136603232121,23.07165228941428,0.08054567284594927,0,0,1.8583217573186592,0,0,0,0,0.05859375,,
0.30502500000130384,1000,,,,-0.0625,0.05078125,-0.95703125,-0.00020152652894493323,-0.01235136603232121,23.071669346041624,0.0807590557382441,0,0,1.8632462306913133,0,0,0,0,0.05859375,,
0.3132200000006706,1000,,,,-0.0625,0.046875,-0.953125,-0.00020152652894493323,-0.01136983731178216,23.07148822507606,0.08085645144924987,0,0,1.8654786675328026,0,0,0,0,0.05859375,,
0.3208700000010431,1000,,,,-0.0625,0.048828125,-0.955078125,-0.00020152652894493323,-0.01136983731178216,23.071317503794262,0.08020460693290724,0,0,1.8504259518161212,0,0,0,0,0.05859375,,
0.3319850000012666,1000,,,,-0.0625,0.046875,-0.953125,-0.00020152652894493323,-0.01136983731178216,23.07115702210963,0.08032688610830392,0,0,1.8532342025017965,0,0,0,0,0.05859375,,
0.3399500000011176,1000,,,,-0.0625,0.046875,-0.95703125,-0.00020152652894493323,-0.01136983731178216,23.07121594246297,0.08049480716909295,0,0,1.8571130784450598,0,0,0,0,0.05859375,,
0.3489150000009686,1000,,,,-0.0625,0.046875,-0.95703125,-0.00020152652894493323,-0.01136983731178216,23.07125472404106,0.08006902304599939,0,0,1.847292826199366,0,0,0,0,0.05859375,,
0.3556349999997765,1000,,,,-0.0625,0.052734375,-0.95703125,-0.00020152652894493323,-0.01136983731178216,23.071288800894255,0.08019077189861425,0,0,1.8501044576395647,0,0,0,0,0.05859375,,
0.36340500000026077,1000,,,,-0.0625,0.052734375,-0.95703125,-0.00020152652894493323,-0.01136983731178216,23.071319740712614,0.07832134009936878,0,0,1.8069766799536333,0,0,0,0,0.05859375,,
0.37075499999988826,1000,,,,-0.0625,0.0546875,-0.953125,-0.00020152652894493323,-0.01136983731178216,23.071353147601556,0.07779198828602323,0,0,1.7947664338009253,0,0,0,0,0.05859375,,
0.3782700000004843,1000,,,,-0.0625,0.052734375,-0.955078125,-0.00020152652894493323,-0.01136983731178216,23.071294715586895,0.07828632314930847,0,0,1.8061668335773686,0,0,0,0,0.05859375,,
0.38578500000108035,1000,,,,-0.0625,0.05078125,-0.953125,-0.00020152652894493323,-0.01136983731178216,23.071328907874918,0.07850155283784592,0,0,1.8111351453008648,0,0,0,0,0.05859375,,
0.39372500000055877,1000,,,,-0.0625,0.048828125,-0.955078125,-0.00020152652894493323,-0.01136983731178216,23.07142675169478,0.07775434480137747,0,0,1.793903670711,0,0,0,0,0.05859375,,
0.401214999999851,1000,,,,-0.0625,0.046875,-0.95703125,-0.00020152652894493323,-0.01136983731178216,23.07145466739498,0.07767975811506495,0,0,1.7921850179259282,0,0,0,0,0.05859375,,
0.4103050000006333,1000,,,,-0.0625,0.05078125,-0.955078125,-0.00020152652894493323,-0.01136983731178216,23.071382138987786,0.07695842006028882,0,0,1.7755371180236668,0,0,0,0,0.05859375,,
0.4186000000005588,1000,,,,-0.0625,0.044921875,-0.95703125,-0.00020152652894493323,-0.01136983731178216,23.071478142432554,0.07606759214038195,0,0,1.7549917894142963,0,0,0,0,0.05859375,,
0.42589000000059607,1000,,,,-0.0625,0.046875,-0.95703125,-0.0002239056675542333,-0.01136983731178216,23.07150379171203,0.07479720261759486,0,0,1.7256839438012928,0,0,0,0,0.05859375,,
0.43751500000059607,1000,,,,-0.0625,0.048828125,-0.955078125,-0.0002239056675542333,-0.01136983731178216,23.07181486453155,0.07489577093184177,0,0,1.727981361075817,0,0,0,0,0.05859375,,
0.44635500000044703,1000,,,,-0.0625,0.05078125,-0.955078125,-0.0002239056675542333,-0.01136983731178216,23.07190825857928,0.07510149803992733,0,0,1.732734872859075,0,0,0,0,0.05859375,,
0.4539050000002608,1000,,,,-0.0625,0.052734375,-0.95703125,-0.0002239056675542333,-0.01136983731178216,23.07184760131125,0.07494384831044507,0,0,1.7290930468743764,0,0,0,0,0.05859375,,
0.46131500000040976,1000,,,,-0.0625,0.05078125,-0.95703125,-0.0002239056675542333,-0.01096551004013395,23.071942005593968,0.07557016308277612,0,0,1.7435504199990888,0,0,0,0,0.05859375,,
0.4692250000014901,1000,,,,-0.0625,0.05078125,-0.95703125,-0.0002239056675542333,-0.01096551004013395,23.07204226196478,0.07560188591238742,0,0,1.7442899068548423,0,0,0,0,0.05859375,,
0.47844000000040976,1000,,,,-0.0625,0.046875,-0.955078125,-0.0002239056675542333,-0.01096551004013395,23.071966749087117,0.07754445261035346,0,0,1.7891030322022368,0,0,0,0,0.05859375,,
0.48876500000059603,1000,,,,-0.0625,0.046875,-0.953125,-0.0002239056675542333,-0.01096551004013395,23.072114446814087,0.07747204269096541,0,0,1.7874438353944209,0,0,0,0,0.05859375,,
0.4972600000007078,1000,,,,-0.0625,0.046875,-0.95703125,-0.0002239056675542333,-0.01096551004013395,23.072107530187623,0.07713265846300826,0,0,1.779612990147763,0,0,0,0,0.05859375,,
0.5050150000005961,1000,,,,-0.0625,0.05078125,-0.95703125,-0.0002239056675542333,-0.01096551004013395,23.07196472860425,0.07663908039261373,0,0,1.7682141596510497,0,0,0,0,0.05859375,,
0.512714999999851,1000,,,,-0.0625,0.048828125,-0.95703125,-0.0002239056675542333,-0.01096551004013395,23.071966198852326,0.0768896563703866,0,0,1.77399555281893,0,0,0,0,0.05859375,,
0.5195200000014156,1000,,,,-0.0625,0.05078125,-0.955078125,-0.0002239056675542333,-0.01096551004013395,23.071871283012488,0.07748586769907304,0,0,1.787743965805548,0,0,0,0,0.05859375,,
0.5271550000011921,1000,,,,-0.0625,0.05078125,-0.95703125,-0.0002239056675542333,-0.01096551004013395,23.07199458286125,0.07762151996048755,0,0,1.7908832880418253,0,0,0,0,0.05859375,,
0.5354100000010803,1000,,,,-0.0625,0.05078125,-0.95703125,-0.0002239056675542333,-0.01096551004013395,23.071896628706465,0.07883074632307208,0,0,1.818774830329701,0,0,0,0,0.05859375,,
0.5445450000008568,1000,,,,-0.0625,0.05078125,-0.95703125,-0.0002239056675542333,-0.01096551004013395,23.071707776423235,0.07849365100842863,0,0,1.8109825783710143,0,0,0,0,0.05859375,,
0.5538900000005961,1000,,,,-0.0625,0.048828125,-0.95703125,-0.0002239056675542333,-0.01096551004013395,23.071660516299552,0.0783416982535792,0,0,1.8074730663769567,0,0,0,0,0.05859375,,
0.5631700000008568,1000,,,,-0.0625,0.044921875,-0.955078125,-0.0002239056675542333,-0.01096551004013395,23.071459032946006,0.07894181691966028,0,0,1.821302895048266,0,0,0,0,0.05859375,,
0.5712650000005961,1000,,,,-0.0625,0.046875,-0.955078125,-0.0002239056675542333,-0.01096551004013395,23.071386983623118,0.078807585970058,0,0,1.8182003131603561,0,0,0,0,0.05859375,,
0.5793800000008196,1000,,,,-0.0625,0.05078125,-0.953125,-0.00012683659798235544,-0.01096551004013395,23.07161065722383,0.07889271926804406,0,0,1.820182102641973,0,0,0,0,0.05859375,,
0.5874650000007823,1000,,,,-0.0625,0.048828125,-0.95703125,-0.00012683659798235544,-0.01096551004013395,23.071530929714225,0.07811610315169225,0,0,1.8022580899730145,0,0,0,0,0.05859375,,
0.5963400000007824,1000,,,,-0.0625,0.05078125,-0.955078125,-0.00012683659798235544,-0.01096551004013395,23.071556530965893,0.07848586590332457,0,0,1.8107910920703612,0,0,0,0,0.05859375,,
0.6045600000005216,1000,,,,-0.0625,0.05078125,-0.95703125,-0.00012683659798235544,-0.01096551004013395,23.071578940423144,0.07859064030410594,0,0,1.813210161754581,0,0,0,0,0.05859375,,
0.6135000000009313,1000,,,,-0.0625,0.046875,-0.95703125,-0.00012683659798235544,-0.011168290292652025,23.071385240061993,0.07916757089621439,0,0,1.826505526666482,0,0,0,0,0.05859375,,
0.6210850000008941,1000,,,,-0.0625,0.046875,-0.95703125,-0.00012683659798235544,-0.011168290292652025,23.07121945918112,0.07881065592254743,0,0,1.8182579385111042,0,0,0,0,0.05859375,,
0.629370000001043,1000,,,,-0.0625,0.05078125,-0.953125,-0.00012683659798235544,-0.011168290292652025,23.071126823458847,0.07910993472124997,0,0,1.8251553369495086,0,0,0,0,0.05859375,,
0.6393600000003353,1000,,,,-0.0625,0.05078125,-0.953125,-0.00012683659798235544,-0.011168290292652025,23.071071478531863,0.07864842025886513,0,0,1.8145033254658909,0,0,0,0,0.05859375,,
0.6472650000005961,1000,,,,-0.0625,0.046875,-0.955078125,-0.00012683659798235544,-0.011168290292652025,23.07112773559979,0.0779104524574455,0,0,1.7974820005841,0,0,0,0,0.05859375,,
0.6646850000005216,1000,,,,-0.0625,0.046875,-0.955078125,-0.00012683659798235544,-0.011168290292652025,23.07126065763032,0.07856606924235536,0,0,1.8126182623358127,0,0,0,0,0.05859375,,
0.6724900000002235,1000,,,,-0.0625,0.05078125,-0.953125,-0.00012683659798235544,-0.011168290292652025,23.07123579835203,0.07883065054302815,0,0,1.81872052681569,0,0,0,0,0.05859375,,
0.6811150000002235,1000,,,,-0.0625,0.05078125,-0.95703125,-0.00012683659798235544,-0.011168290292652025,23.071166353127047,0.07795300155978942,0,0,1.798466666711474,0,0,0,0,0.05859375,,
0.6893250000001863,1000,,,,-0.0625,0.05078125,-0.95703125,-0.00012683659798235544,-0.011168290292652025,23.071077256808255,0.07829109896581507,0,0,1.8062599927607403,0,0,0,0,0.05859375,,
0.6975200000004843,1000,,,,-0.0625,0.048828125,-0.95703125,-0.00012683659798235544,-0.011168290292652025,23.071187719115464,0.07840224941645381,0,0,1.8088330138879167,0,0,0,0,0.05859375,,
0.7054050000011921,1000,,,,-0.0625,0.048828125,-0.95703125,-0.00012683659798235544,-0.011168290292652025,23.071128781267763,0.07926248308810685,0,0,1.8286749548487713,0,0,0,0,0.05859375,,
0.7134550000000746,1000,,,,-0.0625,0.048828125,-0.955078125,-0.00012683659798235544,-0.011168290292652025,23.071106419242472,0.07890312332491792,0,0,1.8203823550397942,0,0,0,0,0.05859375,,
0.7213650000002235,1000,,,,-0.0625,0.046875,-0.95703125,-0.00012683659798235544,-0.011168290292652025,23.07124770157421,0.07877224273898749,0,0,1.817373924239711,0,0,0,0,0.05859375,,
0.7293800000008196,1000,,,,-0.0625,0.048828125,-0.95703125,-0.00024409760898169396,-0.011168290292652025,23.07128498066634,0.07864599816857246,0,0,1.8144642363360983,0,0,0,0,0.05859375,,
0.7374800000013784,1000,,,,-0.0625,0.048828125,-0.953125,-0.00024409760898169396,-0.011168290292652025,23.071320285557427,0.07852629096025134,0,0,1.8117052095808315,0,0,0,0,0.05859375,,
0.7451750000007451,1000,,,,-0.0625,0.05078125,-0.95703125,-0.00024409760898169396,-0.011168290292652025,23.071222873887823,0.07883877991543664,0,0,1.8189070625344297,0,0,0,0,0.05859375,,
0.753445000000298,1000,,,,-0.0625,0.048828125,-0.95703125,-0.00024409760898169396,-0.011168290292652025,23.0712606627379,0.07871158677202601,0,0,1.8159755355951246,0,0,0,0,0.05859375,,
0.7613700000001118,1000,,,,-0.0625,0.052734375,-0.955078125,-0.00024409760898169396,-0.014974496218716877,23.071299063917753,0.07835684876824563,0,0,1.8077942916383702,0,0,0,0,0.05859375,,
0.7685449999999255,1000,,,,-0.0625,0.05078125,-0.953125,-0.00024409760898169396,-0.014974496218716877,23.071420998666536,0.07943557820138726,0,0,1.8326916669567037,0,0,0,0,0.05859375,,
0.7766800000006333,1000,,,,-0.0625,0.0546875,-0.95703125,-0.00024409760898169396,-0.014974496218716877,23.071446869851563,0.07871078706083585,0,0,1.8159717417582744,0,0,0,0,0.05859375,,
0.7849700000006705,1000,,,,-0.0625,0.05078125,-0.955078125,-0.00024409760898169396,-0.014974496218716877,23.071278687571212,0.07922476200242566,0,0,1.8278165631144647,0,0,0,0,0.05859375,,
0.7944599999999628,1000,,,,-0.0625,0.046875,-0.955078125,-0.00024409760898169396,-0.014974496218716877,23.071118028097207,0.07907764605638978,0,0,1.8244097055510644,0,0,0,0,0.05859375,,
0.8023600000012666,1000,,,,-0.0625,0.046875,-0.953125,-0.00024409760898169396,-0.014974496218716877,23.07085904128445,0.0794167510796199,0,0,1.8322126696746854,0,0,0,0,0.05859375,,
0.810625,1000,,,,-0.0625,0.048828125,-0.955078125,-0.00024409760898169396,-0.014974496218716877,23.071056690861408,0.07902561506802522,0,0,1.8232044452646012,0,0,0,0,0.05859375,,
0.8188450000006705,1000,,,,-0.0625,0.05078125,-0.95703125,-0.00024409760898169396,-0.014974496218716877,23.071103175374944,0.079208150401581,0,0,1.8274194102454915,0,0,0,0,0.05859375,,
0.8275350000010804,1000,,,,-0.0625,0.048828125,-0.95703125,-0.00024409760898169396,-0.014974496218716877,23.07115201797075,0.07928182235923958,0,0,1.8291229759117689,0,0,0,0,0.05859375,,
0.835640000000596,1000,,,,-0.0625,0.05078125,-0.95703125,-0.00024409760898169396,-0.014974496218716877,23.071259471812386,0.07977238890656345,0,0,1.8404494831496532,0,0,0,0,0.05859375,,
0.843535000000149,1000,,,,-0.0625,0.05078125,-0.95703125,-0.00024409760898169396,-0.014974496218716877,23.07129581413654,0.08023681560185589,0,0,1.8511673079347433,0,0,0,0,0.05859375,,
0.8515750000011176,1000,,,,-0.0625,0.05078125,-0.95703125,-0.00024409760898169396,-0.014974496218716877,23.07146084367571,0.08025270710565369,0,0,1.8515471895870643,0,0,0,0,0.05859375,,
0.8591500000003726,1000,,,,-0.0625,0.05078125,-0.95703125,-0.00024409760898169396,-0.014974496218716877,23.071682518606032,0.07878322816554466,0,0,1.8176616280263471,0,0,0,0,0.05859375,,
0.8664400000013411,1000,,,,-0.0625,0.048828125,-0.95703125,-0.00024409760898169396,-0.014974496218716877,23.07163848301403,0.07886022044403974,0,0,1.8194344967756773,0,0,0,0,0.05859375,,
0.8744599999999627,1000,,,,-0.0625,0.05078125,-0.955078125,-0.00024409760898169396,-0.014974496218716877,23.071559091013143,0.0796785821318144,0,0,1.8383091159423,0,0,0,0,0.05859375,,
0.883855000000447,1000,,,,-0.0625,0.05078125,-0.953125,-0.00029182885363971864,-0.014974496218716877,23.071287905342942,0.07948691462468326,0,0,1.8338654920134818,0,0,0,0,0.05859375,,
0.8914150000000373,1000,,,,-0.0625,0.048828125,-0.955078125,-0.00029182885363971864,-0.014974496218716877,23.071224958588992,0.07964537378994506,0,0,1.83751633561873,0,0,0,0,0.05859375,,
0.8991850000005216,1000,,,,-0.0625,0.05078125,-0.95703125,-0.00029182885363971864,-0.014974496218716877,23.071197130110544,0.08033845627697041,0,0,1.853504361894751,0,0,0,0,0.05859375,,
0.9065300000002607,1000,,,,-0.0625,0.046875,-0.953125,-0.00029182885363971864,-0.017611733368266838,23.071231475795503,0.0809979033528438,0,0,1.8687213773075722,0,0,0,0,0.05859375,,
0.9142200000006706,1000,,,,-0.0625,0.05078125,-0.95703125,-0.00029182885363971864,-0.017611733368266838,23.07117113927427,0.081720195446442,0,0,1.8853806146798053,0,0,0,0,0.05859375,,
0.9212900000009686,1000,,,,-0.0625,0.0546875,-0.95703125,-0.00029182885363971864,-0.017611733368266838,23.07132153831409,0.08204380916578452,0,0,1.8928591014918954,0,0,0,0,0.05859375,,
0.9287800000002607,1000,,,,-0.0625,0.048828125,-0.955078125,-0.00029182885363971864,-0.017611733368266838,23.07116215148626,0.0817643474187594,0,0,1.886398517508655,0,0,0,0,0.05859375,,
0.9374450000012293,1000,,,,-0.0625,0.05078125,-0.953125,-0.00029182885363971864,-0.017611733368266838,23.071203441869695,0.08127757864602211,0,0,1.8751715522049401,0,0,0,0,0.05859375,,
0.9473100000005216,1000,,,,-0.0625,0.046875,-0.95703125,-0.00029182885363971864,-0.017611733368266838,23.071041597675453,0.08102191468879213,0,0,1.869259964108435,0,0,0,0,0.05859375,,
0.9672800000002608,1000,,,,-0.0625,0.044921875,-0.955078125,-0.00029182885363971864,-0.017611733368266838,23.070894357223168,0.08178834223137263,0,0,1.886930203272412,0,0,0,0,0.05859375,,
0.9762450000010431,1000,,,,-0.0625,0.05078125,-0.95703125,-0.00029182885363971864,-0.017611733368266838,23.070882341018926,0.08195439643226402,0,0,1.8907602374179844,0,0,0,0,0.05859375,,
0.9908000000007451,1000,,,,-0.0625,0.05078125,-0.95703125,-0.00029182885363971864,-0.017611733368266838,23.070816780609277,0.08167365952576461,0,0,1.8842780347207788,0,0,0,0,0.05859375,,
0.9987200000006705,1000,,,,-0.0625,0.05078125,-0.95703125,-0.00029182885363971864,-0.017611733368266838,23.070874621711337,0.08098265399651146,0,0,1.8683406568869463,0,0,0,0,0.05859375,,
1.0059950000010431,1000,,,,-0.0625,0.05078125,-0.95703125,-0.00029182885363971864,-0.017611733368266838,23.07092502021882,0.08076952155836982,0,0,1.8634275757920975,0,0,0,0,0.05859375,,
1.0137250000005589,1000,,,,-0.0625,0.046875,-0.955078125,-0.00029182885363971864,-0.017611733368266838,23.07079035246198,0.08085982944745973,0,0,1.865500173118175,0,0,0,0,0.05859375,,
1.022550000000745,1000,,,,-0.0625,0.05078125,-0.95703125,-0.00029182885363971864,-0.017611733368266838,23.070856832846953,0.08012814108327931,0,0,1.8486248712144993,0,0,0,0,0.05859375,,
1.0302050000000744,1000,,,,-0.0625,0.05078125,-0.95703125,-0.0003336608051665705,-0.017611733368266838,23.07091056306542,0.08035255858102094,0,0,1.853806692536209,0,0,0,0,0.05859375,,
1.0448650000002235,1000,,,,-0.0625,0.046875,-0.95703125,-0.0003336608051665705,-0.017611733368266838,23.0710070194815,0.08053026701821961,0,0,1.857914355658064,0,0,0,0,0.05859375,,
1.0594350000005215,1000,,,,-0.0625,0.046875,-0.953125,-0.0003336608051665705,-0.017611733368266838,23.070981111601366,0.0815311838927068,0,0,1.8810044035951363,0,0,0,0,0.05859375,,
1.0758750000009314,1000,,,,-0.0625,0.05078125,-0.95703125,-0.0003336608051665705,-0.018836182586522646,23.07134884086996,0.08319952476753417,0,0,1.919525259306381,0,0,0,0,0.05859375,,
1.0889900000002235,1000,,,,-0.0625,0.048828125,-0.95703125,-0.0003336608051665705,-0.018836182586522646,23.071396488050137,0.08284798031395944,0,0,1.9114186020575308,0,0,0,0,0.05859375,,
1.1000650000004097,1000,,,,-0.0625,0.048828125,-0.95703125,-0.0003336608051665705,-0.018836182586522646,23.07147428087333,0.08320247451819232,0,0,1.9196037509514927,0,0,0,0,0.05859375,,
1.1161350000007078,1000,,,,-0.0625,0.046875,-0.95703125,-0.0003336608051665705,-0.018836182586522646,23.07144306469015,0.08306023711448937,0,0,1.9163195315266053,0,0,0,0,0.05859375,,
1.1235650000004098,1000,,,,-0.0625,0.05078125,-0.95703125,-0.0003336608051665705,-0.018836182586522646,23.071564170851943,0.0821206824222897,0,0,1.89465259426001,0,0,0,0,0.05859375,,
1.1316200000001118,1000,,,,-0.0625,0.05078125,-0.953125,-0.0003336608051665705,-0.018836182586522646,23.071585804283337,0.0818280173917863,0,0,1.8879021244489869,0,0,0,0,0.05859375,,
1.1397100000008942,1000,,,,-0.0625,0.05078125,-0.95703125,-0.0003336608051665705,-0.018836182586522646,23.07160615470709,0.08070161218792181,0,0,1.8619158124496415,0,0,0,0,0.05859375,,
1.148015000000596,1000,,,,-0.0625,0.048828125,-0.955078125,-0.0003336608051665705,-0.018836182586522646,23.071625541798603,0.08112174195449358,0,0,1.8716104536724893,0,0,0,0,0.05859375,,
1.1553600000012667,1000,,,,-0.0625,0.046875,-0.95703125,-0.0003336608051665705,-0.018836182586522646,23.07170747967352,0.08109487528538589,0,0,1.870997240685029,0,0,0,0,0.05859375,,
1.1636450000004843,1000,,,,-0.0625,0.05078125,-0.95703125,-0.0003336608051665705,-0.018836182586522646,23.071855536239838,0.08150246603492438,0,0,1.8804131222050693,0,0,0,0,0.05859375,,
1.1715100000007077,1000,,,,-0.0625,0.046875,-0.955078125,-0.0003336608051665705,-0.018836182586522646,23.07186258524428,0.08061308481622993,0,0,1.859894015452699,0,0,0,0,0.05859375,,
1.1797550000008195,1000,,,,-0.0625,0.046875,-0.953125,-0.0003411786316877669,-0.018836182586522646,23.071803593834698,0.07975184676256669,0,0,1.8400189447515403,0,0,0,0,0.05859375,,
1.1878600000003352,1000,,,,-0.0625,0.048828125,-0.95703125,-0.0003411786316877669,-0.018836182586522646,23.071715394757014,0.08085249931159492,0,0,1.8654058530719055,0,0,0,0,0.05859375,,
1.1970850000008941,1000,,,,-0.0625,0.05078125,-0.95703125,-0.0003411786316877669,-0.018836182586522646,23.071729402846223,0.0810514573694578,0,0,1.8699972921344568,0,0,0,0,0.05859375,,
1.2060300000002608,1000,,,,-0.0625,0.048828125,-0.95703125,-0.0003411786316877669,-0.018836182586522646,23.071664248437003,0.0810214644262404,0,0,1.8693000241589013,0,0,0,0,0.05859375,,
1.2135900000007822,1000,,,,-0.0625,0.05078125,-0.95703125,-0.0003411786316877669,-0.019649306947381012,23.071544478657433,0.08032857875142435,0,0,1.8533043775708233,0,0,0,0,0.05859375,,
1.220980000000447,1000,,,,-0.0625,0.052734375,-0.958984375,-0.0003411786316877669,-0.019649306947381012,23.07138138947632,0.0807388056711508,0,0,1.8627557785699336,0,0,0,0,0.05859375,,
1.2294000000003726,1000,,,,-0.0625,0.05078125,-0.953125,-0.0003411786316877669,-0.019649306947381012,23.071477313226165,0.08073010106710622,0,0,1.8625626952641965,0,0,0,0,0.05859375,,
1.2365450000008569,1000,,,,-0.0625,0.048828125,-0.955078125,-0.0003411786316877669,-0.019649306947381012,23.071499994995232,0.08081687936466422,0,0,1.864566631857381,0,0,0,0,0.05859375,,
1.2447900000009686,1000,,,,-0.0625,0.046875,-0.953125,-0.0003411786316877669,-0.019649306947381012,23.07145934838443,0.08059218814512199,0,0,1.8593793925875317,0,0,0,0,0.05859375,,
1.2556450000004842,1000,,,,-0.0625,0.046875,-0.953125,-0.0003411786316877669,-0.019649306947381012,23.0714890770718,0.08070972779190112,0,0,1.862093603164285,0,0,0,0,0.05859375,,
1.2637000000011176,1000,,,,-0.0625,0.048828125,-0.955078125,-0.0003411786316877669,-0.019649306947381012,23.07158117422723,0.08202251134330939,0,0,1.8923890285711362,0,0,0,0,0.05859375,,
1.2796850000005215,1000,,,,-0.0625,0.05078125,-0.95703125,-0.0003411786316877669,-0.019649306947381012,23.071461285194903,0.08395970812581284,0,0,1.9370731555409548,0,0,0,0,0.05859375,,
1.286585000000894,1000,,,,-0.0625,0.05078125,-0.955078125,-0.0003411786316877669,-0.019649306947381012,23.071398667737373,0.08390710112356554,0,0,1.935854181075935,0,0,0,0,0.05859375,,
1.2948450000006706,1000,,,,-0.0625,0.052734375,-0.95703125,-0.0003411786316877669,-0.019649306947381012,23.07142859661843,0.0825536190204341,0,0,1.904629926622386,0,0,0,0,0.05859375,,
1.303,1000,,,,-0.0625,0.05078125,-0.95703125,-0.0003411786316877669,-0.019649306947381012,23.071326748765088,0.08245681893831303,0,0,1.902388212389581,0,0,0,0,0.05859375,,
1.3111850000005216,1000,,,,-0.0625,0.05078125,-0.95703125,-0.0003411786316877669,-0.019649306947381012,23.071218874404753,0.08164890891707166,0,0,1.8837398484820982,0,0,0,0,0.05859375,,
1.318960000000894,1000,,,,-0.0625,0.046875,-0.95703125,-0.0003411786316877669,-0.019649306947381012,23.0712532061971,0.08112455339526922,0,0,1.8716451126219127,0,0,0,0,0.05859375,,
1.326890000000596,1000,,,,-0.0625,0.04296875,-0.95703125,-0.0003006037188208929,-0.019649306947381012,23.071158548276923,0.08152533121380506,0,0,1.8808838421344862,0,0,0,0,0.05859375,,
1.336105000000447,1000,,,,-0.0625,0.046875,-0.955078125,-0.0003006037188208929,-0.019649306947381012,23.071208091647605,0.08083013476838813,0,0,1.8648488593174026,0,0,0,0,0.05859375,,
1.3447300000013784,1000,,,,-0.0625,0.046875,-0.955078125,-0.0003006037188208929,-0.019649306947381012,23.071180215576184,0.08126500682422816,0,0,1.8748796176617963,0,0,0,0,0.05859375,,
1.3529050000011922,1000,,,,-0.0625,0.048828125,-0.95703125,-0.0003006037188208929,-0.019649306947381012,23.070896740826747,0.080599720558475,0,0,1.8595078303440675,0,0,0,0,0.05859375,,
1.3609550000000745,1000,,,,-0.0625,0.05078125,-0.95703125,-0.0003006037188208929,-0.02002201830220668,23.071146115476132,0.08038564701004725,0,0,1.854589007755887,0,0,0,0,0.05859375,,
1.3682550000008196,1000,,,,-0.0625,0.05078125,-0.95703125,-0.0003006037188208929,-0.02002201830220668,23.071187481253062,0.08060430557681598,0,0,1.8596370457589333,0,0,0,0,0.05859375,,
1.3771150000002235,1000,,,,-0.0625,0.05078125,-0.95703125,-0.0003006037188208929,-0.02002201830220668,23.071228203307296,0.07994999100711733,0,0,1.84454448737757,0,0,0,0,0.05859375,,
1.3846250000009312,1000,,,,-0.0625,0.05078125,-0.95703125,-0.0003006037188208929,-0.02002201830220668,23.071364287327935,0.07976712840124997,0,0,1.8403364774993003,0,0,0,0,0.05859375,,
1.3915750000011176,1000,,,,-0.0625,0.05078125,-0.95703125,-0.0003006037188208929,-0.02002201830220668,23.071334946170335,0.079067343947924,0,0,1.8241891755266086,0,0,0,0,0.05859375,,
1.3995250000013038,1000,,,,-0.0625,0.046875,-0.953125,-0.0003006037188208929,-0.02002201830220668,23.071465951233,0.07988713225815347,0,0,1.8431132518356355,0,0,0,0,0.05859375,,
1.4113550000004471,1000,,,,-0.0625,0.044921875,-0.955078125,-0.0003006037188208929,-0.02002201830220668,23.07149240655201,0.07970582052216363,0,0,1.8389322329350957,0,0,0,0,0.05859375,,
1.429945000000298,1000,,,,-0.0625,0.046875,-0.95703125,-0.0003006037188208929,-0.02002201830220668,23.071816587199805,0.08184975375329867,0,0,1.8884225063035758,0,0,0,0,0.05859375,,
1.4380550000006334,1000,,,,-0.0625,0.05078125,-0.95703125,-0.0003006037188208929,-0.02002201830220668,23.071727644324607,0.08093625577234581,0,0,1.867339249730958,0,0,0,0,0.05859375,,
1.4455400000009686,1000,,,,-0.0625,0.05078125,-0.95703125,-0.0003006037188208929,-0.02002201830220668,23.071870217542088,0.08112861166647255,0,0,1.8717887992982256,0,0,0,0,0.05859375,,
1.4530400000009687,1000,,,,-0.0625,0.048828125,-0.95703125,-0.0003006037188208929,-0.02002201830220668,23.071875920585217,0.08148376986073219,0,0,1.8799834277683345,0,0,0,0,0.05859375,,
1.4609200000008569,1000,,,,-0.0625,0.05078125,-0.95703125,-0.0003006037188208929,-0.02002201830220668,23.072012468660095,0.08101426034755715,0,0,1.8691620248781138,0,0,0,0,0.05859375,,
1.4698450000006706,1000,,,,-0.0625,0.046875,-0.955078125,-0.0003006037188208929,-0.02002201830220668,23.072158374433563,0.08027368852593934,0,0,1.8520872549704228,0,0,0,0,0.05859375,,
1.4799200000008568,1000,,,,-0.0625,0.046875,-0.953125,-0.0002120796188644546,-0.02002201830220668,23.072041195442146,0.08076052364214442,0,0,1.8633101284370355,0,0,0,0,0.05859375,,
1.489260000000708,1000,,,,-0.0625,0.048828125,-0.955078125,-0.0002120796188644546,-0.02002201830220668,23.072160641386546,0.08048378171715913,0,0,1.8569347408045849,0,0,0,0,0.05859375,,
1.4979900000002235,1000,,,,-0.0625,0.048828125,-0.955078125,-0.0002120796188644546,-0.02002201830220668,23.072225642966508,0.08024772687822833,0,0,1.8514936618696323,0,0,0,0,0.05859375,,
1.5062250000005588,1000,,,,-0.0625,0.048828125,-0.953125,-0.0002120796188644546,-0.02002201830220668,23.07211621025941,0.08133004983289244,0,0,1.8764563611306833,0,0,0,0,0.05859375,,
1.513820000000298,1000,,,,-0.0625,0.05078125,-0.95703125,-0.0002120796188644546,-0.020408730439874567,23.072110511490273,0.08086438897336416,0,0,1.8657121188375934,0,0,0,0,0.05859375,,
1.5219250000007452,1000,,,,-0.0625,0.05078125,-0.95703125,-0.0002120796188644546,-0.020408730439874567,23.072105155805247,0.08063834546994597,0,0,1.860496386272745,0,0,0,0,0.05859375,,
1.5282999999998137,1000,,,,-0.0625,0.05078125,-0.95703125,-0.0002120796188644546,-0.020408730439874567,23.07210070689805,0.0804505736788457,0,0,1.8561637378460494,0,0,0,0,0.05859375,,
1.5371150000002236,1000,,,,-0.0625,0.048828125,-0.95703125,-0.0002120796188644546,-0.020408730439874567,23.0721957896364,0.0802389964086448,0,0,1.8512898351041849,0,0,0,0,0.05859375,,
1.5449050000011921,1000,,,,-0.0625,0.046875,-0.95703125,-0.0002120796188644546,-0.020408730439874567,23.07212101119186,0.08046740128114906,0,0,1.856553619814806,0,0,0,0,0.05859375,,
1.5538650000002234,1000,,,,-0.0625,0.046875,-0.953125,-0.0002120796188644546,-0.020408730439874567,23.072114387455798,0.08059179617013075,0,0,1.8594231399277787,0,0,0,0,0.05859375,,
1.5631900000004098,1000,,,,-0.0625,0.048828125,-0.955078125,-0.0002120796188644546,-0.020408730439874567,23.07205225446014,0.08096369693590114,0,0,1.8679986464193852,0,0,0,0,0.05859375,,
1.570945000000298,1000,,,,-0.0625,0.046875,-0.95703125,-0.0002120796188644546,-0.020408730439874567,23.072130232555786,0.08067498732286862,0,0,1.8613438140230119,0,0,0,0,0.05859375,,
1.5793600000012666,1000,,,,-0.0625,0.046875,-0.95703125,-0.0002120796188644546,-0.020408730439874567,23.071993182244867,0.08045670178643416,0,0,1.8562964750825173,0,0,0,0,0.05859375,,
1.5880700000012293,1000,,,,-0.0625,0.048828125,-0.95703125,-0.0002120796188644546,-0.020408730439874567,23.071771963394035,0.08058269661257111,0,0,1.8591856004406058,0,0,0,0,0.05859375,,
1.5957850000010803,1000,,,,-0.0625,0.048828125,-0.958984375,-0.0002120796188644546,-0.020408730439874567,23.07171858480454,0.0805816802656165,0,0,1.8591578501790016,0,0,0,0,0.05859375,,
1.6040650000004097,1000,,,,-0.0625,0.05078125,-0.953125,-0.0002120796188644546,-0.020408730439874567,23.07173253713434,0.08079549171314043,0,0,1.86409197501183,0,0,0,0,0.05859375,,
1.612175000000745,1000,,,,-0.0625,0.05078125,-0.95703125,-0.0002120796188644546,-0.020408730439874567,23.071745590955512,0.08120671567327825,0,0,1.8735806842909353,0,0,0,0,0.05859375,,
1.620070000000298,1000,,,,-0.0625,0.048828125,-0.95703125,-0.0002120796188644546,-0.020408730439874567,23.07188947459777,0.08117492522977837,0,0,1.8728589030101848,0,0,0,0,0.05859375,,
1.6275350000010804,1000,,,,-0.0625,0.05078125,-0.95703125,-0.000176072729334319,-0.020408730439874567,23.072090586087857,0.08156936312343491,0,0,1.8819757350333846,0,0,0,0,0.05859375,,
1.6354650000007822,1000,,,,-0.0625,0.046875,-0.955078125,-0.000176072729334319,-0.020408730439874567,23.071999437675874,0.08133622728823485,0,0,1.8765893902568316,0,0,0,0,0.05859375,,
1.6437949999999255,1000,,,,-0.0625,0.048828125,-0.955078125,-0.000176072729334319,-0.020408730439874567,23.072071867242244,0.08176538451046156,0,0,1.886496827678065,0,0,0,0,0.05859375,,
1.6509750000005587,1000,,,,-0.0625,0.05078125,-0.953125,-0.000176072729334319,-0.020408730439874567,23.072184684333486,0.08190183332277678,0,0,1.8896542244086045,0,0,0,0,0.05859375,,
1.659050000000745,1000,,,,-0.0625,0.046875,-0.955078125,-0.000176072729334319,-0.020562068135454664,23.07198136849464,0.08289067606036592,0,0,1.912452133686687,0,0,0,0,0.05859375,,
1.6669500000011175,1000,,,,-0.0625,0.046875,-0.953125,-0.000176072729334319,-0.020562068135454664,23.071718543294764,0.08320482689446407,0,0,1.9196783475526376,0,0,0,0,0.05859375,,
1.6741950000012293,1000,,,,-0.0625,0.048828125,-0.95703125,-0.000176072729334319,-0.020562068135454664,23.071904422952766,0.08403219867731518,0,0,1.9387828563335936,0,0,0,0,0.05859375,,
1.6821850000005216,1000,,,,-0.0625,0.046875,-0.95703125,-0.000176072729334319,-0.020562068135454664,23.07190912354552,0.08407477455706343,0,0,1.9397655581631446,0,0,0,0,0.05859375,,
1.6900800000010059,1000,,,,-0.0625,0.046875,-0.95703125,-0.000176072729334319,-0.020562068135454664,23.07162294444817,0.08369431170745954,0,0,1.9309636023096206,0,0,0,0,0.05859375,,
1.6977000000011175,1000,,,,-0.0625,0.0546875,-0.95703125,-0.000176072729334319,-0.020562068135454664,23.07170700001368,0.08396689257329383,0,0,1.93725954315266,0,0,0,0,0.05859375,,
1.7058700000010432,1000,,,,-0.0625,0.05078125,-0.95703125,-0.000176072729334319,-0.020562068135454664,23.071525236999978,0.08326774016880772,0,0,1.9211137687326043,0,0,0,0,0.05859375,,
1.7171200000001117,1000,,,,-0.0625,0.048828125,-0.95703125,-0.000176072729334319,-0.020562068135454664,23.071548928391717,0.08389009452026464,0,0,1.9354744203316914,0,0,0,0,0.05859375,,
1.737785000000149,1000,,,,-0.0625,0.05078125,-0.953125,-0.000176072729334319,-0.020562068135454664,23.071348935272646,0.08574920384628126,0,0,1.9783498028593782,0,0,0,0,0.05859375,,
1.7445900000007823,1000,,,,-0.0625,0.046875,-0.95703125,-0.000176072729334319,-0.020562068135454664,23.071444259900968,0.08591696228233933,0,0,1.9822284062770057,0,0,0,0,0.05859375,,
1.7532050000000745,1000,,,,-0.0625,0.05078125,-0.95703125,-0.000176072729334319,-0.020562068135454664,23.071468207506527,0.08690030133559545,0,0,2.0049175394869274,0,0,0,0,0.05859375,,
1.7612750000003725,1000,,,,-0.0625,0.05078125,-0.95703125,-0.000176072729334319,-0.020562068135454664,23.071500362189667,0.08730415194506073,0,0,2.0142377732211303,0,0,0,0,0.05859375,,
1.76822500000149,1000,,,,-0.0625,0.05078125,-0.95703125,-0.000176072729334319,-0.020562068135454664,23.07152217991654,0.08682068611482219,0,0,2.003085385373692,0,0,0,0,0.05859375,,
1.7758750000009313,1000,,,,-0.0625,0.05078125,-0.95703125,-0.00031570486799342837,-0.020562068135454664,23.071362966112453,0.08663593530212559,0,0,1.9988091092639748,0,0,0,0,0.05859375,,
1.783070000000298,1000,,,,-0.0625,0.05078125,-0.953125,-0.00031570486799342837,-0.020562068135454664,23.07130685744345,0.08674320228647917,0,0,2.001279037748651,0,0,0,0,0.05859375,,
1.7911800000006333,1000,,,,-0.0625,0.048828125,-0.955078125,-0.00031570486799342837,-0.020562068135454664,23.071143632987038,0.086866580847516,0,0,2.0041113636395225,0,0,0,0,0.05859375,,
1.799155000001192,1000,,,,-0.0625,0.046875,-0.953125,-0.00031570486799342837,-0.020562068135454664,23.07098959294542,0.08655736841777363,0,0,1.996964145959198,0,0,0,0,0.05859375,,
1.808205000001006,1000,,,,-0.0625,0.048828125,-0.95703125,-0.00031570486799342837,-0.0206283950302659,23.07082469218568,0.0859874075202144,0,0,1.983800404634395,0,0,0,0,0.05859375,,
1.8161500000013038,1000,,,,-0.0625,0.046875,-0.95703125,-0.00031570486799342837,-0.0206283950302659,23.070817134801466,0.08614567144381924,0,0,1.9874510328350423,0,0,0,0,0.05859375,,
1.8237900000009686,1000,,,,-0.0625,0.05078125,-0.953125,-0.00031570486799342837,-0.0206283950302659,23.070875594493508,0.08651305757797546,0,0,1.9959319886807256,0,0,0,0,0.05859375,,
1.8309500000011176,1000,,,,-0.0625,0.05078125,-0.958984375,-0.00031570486799342837,-0.0206283950302659,23.070924092093417,0.08606935729159225,0,0,1.985699608729592,0,0,0,0,0.05859375,,
1.8383650000011549,1000,,,,-0.0625,0.046875,-0.953125,-0.00031570486799342837,-0.0206283950302659,23.070970531184667,0.08564449012031153,0,0,1.9759015077240436,0,0,0,0,0.05859375,,
1.8460800000010058,1000,,,,-0.0625,0.052734375,-0.955078125,-0.00031570486799342837,-0.0206283950302659,23.070955783444376,0.08393061708816389,0,0,1.93635955571823,0,0,0,0,0.05859375,,
1.854945000000298,1000,,,,-0.0625,0.046875,-0.95703125,-0.00031570486799342837,-0.0206283950302659,23.07100742492286,0.08354977164150554,0,0,1.9275774018917837,0,0,0,0,0.05859375,,
1.8663850000007078,1000,,,,-0.0625,0.046875,-0.955078125,-0.00031570486799342837,-0.0206283950302659,23.070986428894216,0.08283320226337056,0,0,1.9110436852800716,0,0,0,0,0.05859375,,
1.8752250000005588,1000,,,,-0.0625,0.046875,-0.955078125,-0.00031570486799342837,-0.0206283950302659,23.070921321459654,0.08368693301296146,0,0,1.9307346471762983,0,0,0,0,0.05859375,,
1.8836300000008195,1000,,,,-0.0625,0.046875,-0.95703125,-0.00031570486799342837,-0.0206283950302659,23.070843286584743,0.0843867988084282,0,0,1.946874610765803,0,0,0,0,0.05859375,,
1.8907000000001863,1000,,,,-0.0625,0.048828125,-0.955078125,-0.00031570486799342837,-0.0206283950302659,23.071096658975538,0.08334523320834288,0,0,1.9228659314145364,0,0,0,0,0.05859375,,
1.8982949999999255,1000,,,,-0.0625,0.046875,-0.95703125,-0.00031570486799342837,-0.0206283950302659,23.071135381486133,0.08322597848267561,0,0,1.920117816830461,0,0,0,0,0.05859375,,
1.906365000001155,1000,,,,-0.0625,0.05078125,-0.95703125,-0.00031570486799342837,-0.0206283950302659,23.07117786121333,0.08224267712441753,0,0,1.8974354317197777,0,0,0,0,0.05859375,,
1.9143450000006705,1000,,,,-0.0625,0.046875,-0.95703125,-0.00031570486799342837,-0.0206283950302659,23.071086663916212,0.08194503803058993,0,0,1.89056107408165,0,0,0,0,0.05859375,,
1.9232900000009685,1000,,,,-0.0625,0.046875,-0.95703125,-0.00031570486799342837,-0.0206283950302659,23.071063581799816,0.08115544246873162,0,0,1.8723423732052042,0,0,0,0,0.05859375,,
1.9310300000011922,1000,,,,-0.0625,0.046875,-0.955078125,-0.000424408633940061,-0.0206283950302659,23.071109782853593,0.08155421289731897,0,0,1.8815461990082605,0,0,0,0,0.05859375,,
1.939275000001304,1000,,,,-0.0625,0.046875,-0.95703125,-0.000424408633940061,-0.0206283950302659,23.071088026864267,0.08086862909203377,0,0,1.8657272603941475,0,0,0,0,0.05859375,,
1.9470250000003726,1000,,,,-0.0625,0.048828125,-0.955078125,-0.000424408633940061,-0.0206283950302659,23.071132041455254,0.08190125754325003,0,0,1.8895547271415547,0,0,0,0,0.05859375,,
1.9549900000002236,1000,,,,-0.0625,0.052734375,-0.953125,-0.000424408633940061,-0.018571291191592922,23.07117517765673,0.08161913923093708,0,0,1.8830494590465043,0,0,0,0,0.05859375,,
1.962660000000149,1000,,,,-0.0625,0.046875,-0.953125,-0.000424408633940061,-0.018571291191592922,23.071123934727297,0.08195145197486242,0,0,1.890712105142903,0,0,0,0,0.05859375,,
1.9719199999999255,1000,,,,-0.0625,0.046875,-0.953125,-0.000424408633940061,-0.018571291191592922,23.07117123095807,0.08211064787764051,0,0,1.8943888170699479,0,0,0,0,0.05859375,,
1.9802950000008568,1000,,,,-0.0625,0.048828125,-0.95703125,-0.000424408633940061,-0.018571291191592922,23.071292530144106,0.0822672157207913,0,0,1.8980109995348462,0,0,0,0,0.05859375,,
1.988320000000298,1000,,,,-0.0625,0.05078125,-0.95703125,-0.000424408633940061,-0.018571291191592922,23.071229782154624,0.08197377921631624,0,0,1.891235896411243,0,0,0,0,0.05859375,,
1.997230000000447,1000,,,,-0.0625,0.05078125,-0.95703125,-0.000424408633940061,-0.018571291191592922,23.07119911788245,0.0823713486352744,0,0,1.9004057859729304,0,0,0,0,0.05859375,,
2.0054100000010804,1000,,,,-0.0625,0.05078125,-0.955078125,-0.000424408633940061,-0.018571291191592922,23.071370537355538,0.08228194705371113,0,0,1.8983572890112392,0,0,0,0,0.05859375,,
2.01731500000041,1000,,,,-0.0625,0.052734375,-0.955078125,-0.000424408633940061,-0.018571291191592922,23.07118471872874,0.08338376916371891,0,0,1.9237623409199964,0,0,0,0,0.05859375,,
2.0245000000009314,1000,,,,-0.0625,0.048828125,-0.955078125,-0.000424408633940061,-0.018571291191592922,23.071185813622893,0.08411345259450223,0,0,1.9405970942331217,0,0,0,0,0.05859375,,
2.0315600000005216,1000,,,,-0.0625,0.046875,-0.953125,-0.000424408633940061,-0.018571291191592922,23.07122056963984,0.08322064402471388,0,0,1.9200018342416538,0,0,0,0,0.05859375,,
2.0391699999999253,1000,,,,-0.0625,0.046875,-0.955078125,-0.000424408633940061,-0.018571291191592922,23.07116584567041,0.08465783236117207,0,0,1.9531548905395641,0,0,0,0,0.05859375,,
2.0469400000004097,1000,,,,-0.0625,0.048828125,-0.95703125,-0.000424408633940061,-0.018571291191592922,23.071012985790368,0.08393640187067168,0,0,1.9364978175387852,0,0,0,0,0.05859375,,
2.0544150000009687,1000,,,,-0.0625,0.05078125,-0.953125,-0.000424408633940061,-0.018571291191592922,23.071055886445915,0.08454443016639396,0,0,1.9505292732565989,0,0,0,0,0.05859375,,
2.0622750000003727,1000,,,,-0.0625,0.05078125,-0.95703125,-0.000424408633940061,-0.018571291191592922,23.07090760697072,0.08477229687639322,0,0,1.9557738288659605,0,0,0,0,0.05859375,,
2.070135000000708,1000,,,,-0.0625,0.05078125,-0.95703125,-0.000424408633940061,-0.018571291191592922,23.070830434244222,0.08413969005707966,0,0,1.9411725220967495,0,0,0,0,0.05859375,,
2.0790500000007452,1000,,,,-0.0625,0.048828125,-0.955078125,-0.0004673624079658957,-0.018571291191592922,23.071004252056788,0.08370563166323405,0,0,1.931172984023572,0,0,0,0,0.05859375,,
2.087105000000447,1000,,,,-0.0625,0.046875,-0.95703125,-0.0004673624079658957,-0.018571291191592922,23.07098935657693,0.08394898229843596,0,0,1.9367860771026812,0,0,0,0,0.05859375,,
2.0955400000009687,1000,,,,-0.0625,0.05078125,-0.95703125,-0.0004673624079658957,-0.018571291191592922,23.07097177666195,0.08400130441010491,0,0,1.9379917232483193,0,0,0,0,0.05859375,,
2.1031200000010433,1000,,,,-0.0625,0.044921875,-0.953125,-0.0004673624079658957,-0.018571291191592922,23.071021644638208,0.08267738272269666,0,0,1.9074516863173716,0,0,0,0,0.05859375,,
2.111260000000708,1000,,,,-0.0625,0.046875,-0.95703125,-0.0004673624079658957,-0.01767624711828993,23.071069592237897,0.08268004553108818,0,0,1.9075170843371334,0,0,0,0,0.05859375,,
2.1182000000001864,1000,,,,-0.0625,0.046875,-0.95703125,-0.0004673624079658957,-0.01767624711828993,23.071109754087757,0.082588588531326,0,0,1.9054103904414157,0,0,0,0,0.05859375,,
2.1262600000007077,1000,,,,-0.0625,0.048828125,-0.95703125,-0.0004673624079658957,-0.01767624711828993,23.0711534921864,0.0816371634939551,0,0,1.8834635296357543,0,0,0,0,0.05859375,,
2.1335500000007452,1000,,,,-0.0625,0.05078125,-0.95703125,-0.0004673624079658957,-0.01767624711828993,23.071247291511575,0.08140400047859642,0,0,1.8780918255600245,0,0,0,0,0.05859375,,
2.1414400000004097,1000,,,,-0.0625,0.052734375,-0.955078125,-0.0004673624079658957,-0.01767624711828993,23.071087589319742,0.08114921017440774,0,0,1.8722005357378777,0,0,0,0,0.05859375,,
2.1493150000013412,1000,,,,-0.0625,0.05078125,-0.95703125,-0.0004673624079658957,-0.01767624711828993,23.071327985113733,0.08112042910918275,0,0,1.8715560262711228,0,0,0,0,0.05859375,,
2.1582550000008194,1000,,,,-0.0625,0.048828125,-0.95703125,-0.0004673624079658957,-0.01767624711828993,23.071255172311805,0.0808520227038654,0,0,1.8653576469984263,0,0,0,0,0.05859375,,
2.1674850000003354,1000,,,,-0.0625,0.046875,-0.95703125,-0.0004673624079658957,-0.01767624711828993,23.071461227905626,0.08065085333823335,0,0,1.8607330357905538,0,0,0,0,0.05859375,,
2.174925000000745,1000,,,,-0.0625,0.046875,-0.95703125,-0.0004673624079658957,-0.01767624711828993,23.071494058590968,0.08196658631748334,0,0,1.8910916092268006,0,0,0,0,0.05859375,,
2.182920000000857,1000,,,,-0.0625,0.05078125,-0.94921875,-0.0004673624079658957,-0.01767624711828993,23.07151853307168,0.08137395367968858,0,0,1.8774206804302513,0,0,0,0,0.05859375,,
2.1907750000003725,1000,,,,-0.0625,0.046875,-0.955078125,-0.0004673624079658957,-0.01767624711828993,23.071277876289646,0.08154887086244132,0,0,1.8814366601650439,0,0,0,0,0.05859375,,
2.199370000001043,1000,,,,-0.0625,0.046875,-0.953125,-0.0004673624079658957,-0.01767624711828993,23.071313402299772,0.08171381468301375,0,0,1.8852450278492552,0,0,0,0,0.05859375,,
2.207385000000708,1000,,,,-0.0625,0.048828125,-0.95703125,-0.0004673624079658957,-0.01767624711828993,23.0713469150624,0.08081084528161746,0,0,1.8644150459916298,0,0,0,0,0.05859375,,
2.2146500000003724,1000,,,,-0.0625,0.046875,-0.9609375,-0.0004673624079658957,-0.01767624711828993,23.07137521069017,0.08117560797553208,0,0,1.8728329095593943,0,0,0,0,0.05859375,,
2.236070000000298,1000,,,,-0.0625,0.046875,-0.955078125,-0.00032342644147781375,-0.01767624711828993,23.071456150869135,0.07950693370572555,0,0,1.8343407346817062,0,0,0,0,0.05859375,,
2.244500000000931,1000,,,,-0.0625,0.046875,-0.955078125,-0.00032342644147781375,-0.01767624711828993,23.071679276086257,0.08030463890264455,0,0,1.8527628731437347,0,0,0,0,0.05859375,,
2.2524050000002607,1000,,,,-0.0625,0.046875,-0.953125,-0.00032342644147781375,-0.01767624711828993,23.071759773474696,0.07989479387394649,0,0,1.8433134914109712,0,0,0,0,0.05859375,,
2.260745000001043,1000,,,,-0.0625,0.048828125,-0.95703125,-0.00032342644147781375,-0.017967705580514796,23.071361912547186,0.08037384474674604,0,0,1.8543340604550573,0,0,0,0,0.05859375,,undefined,0,
2.2695400000009687,1000,,,,-0.0625,0.046875,-0.953125,-0.00032342644147781375,-0.017967705580514796,23.071324970857862,0.08107475749000026,0,0,1.8705020769852885,0,0,0,0,0.05859375,,
2.290035000000149,1200,,,,-0.0625,0.048828125,-0.95703125,-0.00032342644147781375,-0.017967705580514796,23.071322991729964,0.0810352992722541,0,0,1.8695915632416744,0,0,0,0,0.05859375,,
2.3078350000008943,1200,,,,-0.0625,0.05078125,-0.95703125,-0.00032342644147781375,-0.017967705580514796,23.07146531298422,0.08262855727347554,0,0,1.9063618929969208,0,0,0,0,0.05859375,,
2.3190150000005962,1200,,,,-0.0625,0.046875,-0.953125,-0.00032342644147781375,-0.017967705580514796,23.071493123722075,0.08342285270918352,0,0,1.924689772641207,0,0,0,0,0.05859375,,
2.32656500000041,1200,,,,-0.1875,0.068359375,-0.92578125,-0.00032342644147781375,-0.017967705580514796,23.070576410307595,0.12049044013186044,0,0,2.7797839057736793,0,0,0,0,0.05859375,,
2.334920000000857,1200,,,,0.0625,0.046875,-1.083984375,-0.00032342644147781375,-0.017967705580514796,23.06928337457381,0.16239218224504276,0,0,3.7462712700263254,0,0,0,0,0.064453125,,
2.3422450000010433,1200,,,,0.03125,-0.02734375,-0.869140625,-0.00032342644147781375,-0.017967705580514796,23.068188392270255,0.18888387932761574,0,0,4.357208912592281,0,0,0,0,0.06640625,,
2.350795000000857,1200,,,,-0.1875,0.1015625,-1.0234375,-0.00032342644147781375,-0.017967705580514796,23.06752120429525,0.20784573953859947,0,0,4.794486004029071,0,0,0,0,0.06640625,,
2.359315000001341,1200,,,,-0.09375,0.091796875,-0.908203125,-0.00032342644147781375,-0.017967705580514796,23.066961009110372,0.21886710367643494,0,0,5.048598946681242,0,0,0,0,0.068359375,,
2.367695000000298,1200,,,,0,0.064453125,-0.97265625,-0.00032342644147781375,-0.017967705580514796,23.066718609187006,0.22812683930771108,2,0,5.262137609514193,0.000074578209760383,0.0014172607273808667,240.92433484585328,0.0034145259804738547,0.0703125,,
2.3753100000005216,1200,,,,-0.1875,0.0390625,-1.07421875,-0.00032342644147781375,-0.017967705580514796,23.065862364090087,0.2469271148094764,2,0,5.695586844157254,0.000074578209760383,0.0013094034346414736,240.92433484585328,0.0031546715153587274,0.0703125,,
2.3836500000013037,1200,,,,-0.28125,0.1015625,-0.958984375,-0.00024180395231982528,-0.017967705580514796,23.064891885242822,0.28601002111857415,2,0,6.596790215195929,0.000055757054972373436,0.0008452149174599364,322.2499034322644,0.0027237042553097386,0.072265625,,
2.3912750000003724,1200,,,,0.25,-0.01953125,-1.0546875,-0.00024180395231982528,-0.017967705580514796,23.064589907081892,0.2909951345309291,2,0,6.711683442912006,0.000055757054972373436,0.0008307461972339694,322.2499034322644,0.002677078818353675,0.076171875,,
2.397870000001043,1200,,,,-0.125,0.13671875,-0.966796875,-0.00024180395231982528,-0.017967705580514796,23.06447880638365,0.2898816755953089,2,0,6.685969763126983,0.000055757054972373436,0.0008339411775367682,322.2499034322644,0.0026873746392941243,0.078125,,
2.4057900000009687,1200,,,,-0.03125,0.052734375,-0.966796875,-0.00024180395231982528,-0.018087153920122608,23.06455327549404,0.28675445456458165,2,0,6.6138633942900285,0.000055757054972373436,0.0008430330602308838,324.3922034455452,0.002734733519857374,0.078125,,
2.413745000001043,1200,,,,0.0625,0.015625,-1.046875,-0.00024180395231982528,-0.018087153920122608,23.06452882246132,0.2840641268013268,2,0,6.55180524003651,0.000055757054972373436,0.000851018199253779,324.3922034455452,0.0027606366882819335,0.078125,,
2.421740000001155,1200,,,,-0.1875,0.04296875,-0.96875,-0.00024180395231982528,-0.018087153920122608,23.064695779053544,0.2801197610992297,136,0,6.46087707145489,0.003447886649168442,0.053365612919671776,5.245866746949135,0.0027994889424586534,0.080078125,,
2.430655000000261,1200,,,,0,0.017578125,-0.966796875,-0.00024180395231982528,-0.018087153920122608,23.065029598906417,0.2740612018626843,483,0,6.32122973287468,0.012232099964092639,0.19350823306543388,1.4786630237831195,0.002861334690314631,0.080078125,,
2.4385400000000375,1200,,,,-0.0625,0,-0.953125,-0.00024180395231982528,-0.018087153920122608,23.06537188832761,0.26946160707737965,598,0,6.215232176866173,0.015142622096909695,0.24363727156118675,1.194453233024539,0.002910133267015371,0.080078125,,
2.446605000000447,1200,,,,-0.0625,0.08203125,-0.931640625,-0.00024180395231982528,-0.018087153920122608,23.065762360411423,0.26445460410303306,643,0,6.099847053357244,0.016287979461715188,0.267022751869665,1.1104602607485092,0.0029651815466697267,0.080078125,,
2.454650000001304,1200,,,,0,0,-0.94140625,-0.00024180395231982528,-0.018087153920122608,23.065870401254173,0.259454322095391,661,0,5.984539768497545,0.01673597769528183,0.27965354634920403,1.0807348246658872,0.003022313263809006,0.080078125,,
2.4633100000005217,1200,,,,-0.0625,0.064453125,-0.9765625,-0.00024180395231982528,-0.018087153920122608,23.066062116034384,0.25267918739361644,669,0,5.82831383185025,0.016927895692514846,0.2904424192123666,1.068482122566502,0.003103325325633792,0.080078125,,
2.4740950000006707,1200,,,,-0.03125,0.0234375,-0.921875,-0.00024180395231982528,-0.018087153920122608,23.066288884616934,0.246770864299415,671,0,5.69208804423691,0.016992376791243387,0.2985262465932466,1.0644275455004852,0.0031775955992872206,0.080078125,,
2.482360000000335,1200,,,,-0.0625,0.046875,-0.982421875,-0.00024180395231982528,-0.018087153920122608,23.066492163372622,0.23827945917298818,742,0,5.4962712777063985,0.018798056145031192,0.3420147077033586,0.9621821416308254,0.0032908044392725836,0.080078125,,
2.4911100000003352,1200,,,,-0.0625,0.046875,-0.953125,-0.00024180395231982528,-0.018087153920122608,23.06656862605015,0.23336549299807835,782,0,5.3829411591922,0.01979834194278058,0.3677978517185139,0.9135691247477443,0.0033600876147858337,0.080078125,,
2.4994500000001865,1200,,,,-0.0625,0.03125,-0.958984375,-0.00024180395231982528,-0.018087153920122608,23.066645176961167,0.22774987890372625,797,0,5.253425645768127,0.02019289473347469,0.3843757596482018,0.8957187247719716,0.003442925652653452,0.080078125,,
2.5071000000014902,1200,,,,0,0.005859375,-0.95703125,-0.00024180395231982528,-0.018087153920122608,23.06670362092752,0.22346554031873178,803,0,5.154613388022615,0.020321855232285937,0.3942459638099395,0.8900345816550749,0.003508925414687813,0.080078125,,
2.515550000000745,1200,,,,-0.0625,0.05078125,-0.96875,-0.00024180395231982528,-0.018087153920122608,23.067062143833535,0.21878656115770684,805,0,5.04676320246046,0.020385493341054474,0.40393203570787484,0.8872561295191603,0.003583911745909643,0.078125,,
2.5241650000009686,1200,,,,-0.0625,0.044921875,-0.96484375,-0.00024180395231982528,-0.018087153920122608,23.06721146695825,0.21319759554937842,806,0,4.917874020784549,0.02040787126819876,0.4149734454755937,0.88628322290074,0.003677840026743338,0.078125,,
2.532635000000708,1200,,,,-0.0625,0.07421875,-0.97265625,0.001300278472757362,-0.018087153920122608,23.067399468633564,0.20716259373861926,822,0,4.778702304726977,0.11195988320971187,2.342893029744997,0.16155031071480838,0.0037849509692686307,0.078125,,
2.540765000000596,1200,,,,0,0.013671875,-0.94921875,0.001300278472757362,-0.018087153920122608,23.067429372103977,0.20194601074148621,828,0,4.658375339757384,0.11272643327460666,2.4198658341789527,0.16045175381413415,0.003882717170889158,0.078125,,
2.5485600000005215,1200,,,,-0.0625,-0.03125,-1.0546875,0.001300278472757362,-0.018087153920122608,23.06468461396401,0.2592142738381601,830,0,5.978695473514864,0.11302100026227069,1.890395668468892,0.1600335679046416,0.0030252676357655672,0.078125,,
2.557790000000037,1200,,,,-0.125,-0.0078125,-1.00390625,0.001300278472757362,0.02789924064606473,23.06218256669162,0.3306807027707522,831,0,7.626218738580975,0.11314582897046845,1.4836425868309373,0.24657772098118222,0.003658332078113982,0.08203125,,
2.5656800000006332,1200,,,,-0.1875,0.056640625,-0.84765625,0.001300278472757362,0.02789924064606473,23.06070240027406,0.3725059565076551,831,0,8.590249005352467,0.11318868678875678,1.317641510953064,0.24648435667544125,0.003247780201561223,0.083984375,,
2.572890000000596,1200,,,,0.0625,-0.078125,-1.33203125,0.001300278472757362,0.02789924064606473,23.059701979418897,0.40380798280052865,952,0,9.311691740290502,0.12963470061595944,1.392171307121848,0.21521429457931754,0.0029961516579579493,0.0859375,,
2.579945000000298,1200,,,,-0.0625,0.02734375,-0.98046875,0.001300278472757362,0.02789924064606473,23.059111726837852,0.42081666732530254,997,0,9.703658548369708,0.13578967873411255,1.399365796490503,0.20545921388247598,0.0028751259648096363,0.087890625,,
2.587695000000298,1200,,,,0.0625,0.00390625,-0.9921875,0.001300278472757362,0.02789924064606473,23.05861900801554,0.4355703533751539,1017,0,10.043650829664369,0.13852542993758363,1.3792338292809088,0.2014015813460062,0.002777798742630826,0.087890625,,
2.5961150000002235,1200,,,,-0.0625,0.06640625,-0.998046875,0.001300278472757362,0.02789924064606473,23.058295081350863,0.4449628435481334,1026,0,10.260084546769818,0.13975833030894605,1.3621557373320687,0.199624885217156,0.002719201827128047,0.087890625,,
2.606405000001192,1200,,,,0,0.021484375,-1.021484375,0.001300278472757362,0.02789924064606473,23.05813755636352,0.44959613466977133,1200,0,10.366849518024924,0.16340470403350188,1.5762233622605288,0.17073707156156728,0.0026911976099929006,0.087890625,,
2.614840000000782,1200,,,,-0.0625,-0.033203125,-0.96484375,0.001300278472757362,0.02789924064606473,23.058038489683007,0.45099925563138576,1313,0,10.399158195166878,0.17874031985508673,1.7187960458006901,0.15608812084863657,0.002682836449110968,0.08984375,,
2.6250049999998883,1200,,,,0,0.04296875,-1.03125,0.001300278472757362,0.02789924064606473,23.058069481773423,0.4495405284933739,1361,0,10.36553674087336,0.1852683758641582,1.7873495651567022,0.15058825077908014,0.0026915384454769733,0.08984375,,
2.632665000000037,1200,,,,-0.0625,0.072265625,-0.9296875,0.001300278472757362,0.02789924064606473,23.058271722786177,0.4448302481227107,1459,0,10.257016731727859,0.19865305628790134,1.9367527760134304,0.1404420408495064,0.0027200151248427304,0.08984375,,
2.6421800000006335,1200,,,,-0.0625,0.060546875,-1.017578125,0.001300278472757362,0.02789924064606473,23.058509834256903,0.4393257809513202,1525,0,10.130197840508611,0.2076381378657983,2.0496947950561775,0.13436472188021983,0.0027540667107705747,0.08984375,,
2.6497500000009313,1200,,,,-0.03125,0.072265625,-0.9609375,0.001300278472757362,0.02789924064606473,23.058781599517733,0.43327708956650374,1548,0,9.990841780388694,0.21075563994686347,2.1094883151944384,0.13237719594644679,0.00279248148047234,0.08984375,,
2.6588700000001118,1200,,,,-0.0625,0.04296875,-1.015625,0.001300278472757362,0.02789924064606473,23.05907065712134,0.4261185902755208,1582,0,9.825898681476172,0.21547603872762439,2.1929397576003993,0.12947723009392786,0.0028393576557694923,0.08984375,,
2.667620000000112,1200,,,,-0.0625,0.03515625,-0.9765625,0.001300278472757362,0.02789924064606473,23.059482811928145,0.41832058441463776,1607,0,9.646256326185076,0.21883562307557472,2.2686067597181543,0.1274894839055968,0.002892235049812157,0.08984375,,
2.6746500000003723,1200,,,,-0.03125,0.07421875,-1.017578125,0.001300278472757362,0.02789924064606473,23.05985106678423,0.4125375322743833,1615,0,9.513054053705972,0.21991402840102375,2.3117079663323525,0.12686430624238818,0.0029327322738375602,0.087890625,,
2.682975000000559,1200,,,,-0.0625,0.01171875,-0.96875,0.008842730589272325,0.02789924064606473,23.060248562581705,0.4064577761660721,1632,0,9.37301734858382,1.5108006979360062,16.11861625503419,0.0184665261832216,0.002976548491108902,0.087890625,,
2.691480000000447,1200,,,,-0.03125,0.060546875,-0.943359375,0.008842730589272325,0.02789924064606473,23.060235124255215,0.4046527989919365,1645,0,9.33138868844204,1.5235038663351146,16.326657448340388,0.018312549946576853,0.0029898272998338435,0.087890625,,
2.6997400000002236,1200,,,,-0.0625,0.078125,-1,0.008842730589272325,0.02789924064606473,23.06042206573569,0.40256926319750685,1650,0,9.283417120026746,1.5278456967913452,16.457794334107692,0.018260509359457177,0.0030052770747399475,0.087890625,,
2.7164000000003727,1200,,,,-0.09375,0.083984375,-1.0625,0.008842730589272325,0.053257368452197744,23.061186621085945,0.38402705791546554,1672,0,8.856119650135131,1.5481098521919876,17.480679048508176,0.034401543518885296,0.006013623410269205,0.087890625,,
2.7320600000005215,1200,,,,-0.03125,0.06640625,-0.943359375,0.008842730589272325,0.053257368452197744,23.061527375992604,0.36690153889969696,1682,0,8.461309883629177,1.557123271555163,18.402863066956847,0.03420240993444753,0.006294222665835623,0.087890625,,
2.747660000000149,1200,,,,-0.03125,0.064453125,-1.015625,0.008842730589272325,0.053257368452197744,23.061926688277982,0.3527123704327829,1691,0,8.134226828969586,1.5656901210098466,19.248173845284597,0.034015267604708105,0.006547317842492989,0.087890625,,
2.755730000000447,1200,,,,0,-0.03515625,-0.94140625,0.008842730589272325,0.053257368452197744,23.062305649734665,0.3450064629014784,1692,0,7.956644498567738,1.5667366826500313,19.69092225915154,0.033992545806814475,0.006693445768726316,0.087890625,,
2.7629700000006707,1200,,,,-0.125,0.08984375,-1.00390625,0.008842730589272325,0.053257368452197744,23.062469443423662,0.33973470444818143,1694,0,7.835121240206753,1.5682412933731325,20.015533203564694,0.033959932490775314,0.006797261563599288,0.087890625,,
2.770195000000298,1200,,,,0,0.0390625,-0.91015625,0.008842730589272325,0.053257368452197744,23.0625961399783,0.33345133949348643,1694,0,7.690253575073074,1.568883827100915,20.4009375215694,0.03394602425764701,0.00692530719985936,0.087890625,,
2.7801699999999254,1200,,,,-0.0625,0.0703125,-0.9609375,0.008842730589272325,0.053257368452197744,23.06285861723355,0.3290215105228808,1695,0,7.588176579217821,1.569173115379298,20.67918555924072,0.03393976606546975,0.007018467203050702,0.087890625,,
2.805520000000484,1200,,,,-0.03125,0.0078125,-1.0078125,0.008842730589272325,0.053257368452197744,23.063731556412954,0.30972636999072134,1694,0,7.143445853408234,1.5686600439862621,21.959430731008247,0.03395086695576225,0.007455417111727381,0.087890625,,
2.8268300000000743,1200,,,,-0.041015625,0.0390625,-0.927734375,0.008842730589272325,0.053257368452197744,23.063914203691297,0.29843339092859344,1693,0,6.883042123893744,1.5678566179614843,22.778541664285882,0.03396826459899285,0.007737475304316458,0.087890625,,
2.835605000000447,1200,,,,0,0.0390625,-0.91015625,0.009945916499908357,0.053257368452197744,23.063993333416,0.29305782816062365,1693,0,6.759083795001995,1.7631106764165185,26.085054274963284,0.03020648060531407,0.007879376860452434,0.087890625,,
2.8510250000003725,1200,,,,-0.03125,0.033203125,-0.994140625,0.009945916499908357,0.053257368452197744,23.06443982067654,0.28664746552343084,1692,0,6.611363218314624,1.76271903415508,26.661960263687256,0.030213191904247788,0.00805542921990212,0.087890625,,
2.858530000001192,1200,,,,-0.125,0.1015625,-1.0546875,0.009945916499908357,0.24040499892416206,23.064595375293532,0.2820089061820391,1692,0,6.504421313317847,1.7625967734530552,27.098441022633736,0.13639251049642578,0.03696024401616346,0.087890625,,
2.8659599999999625,1200,,,,-0.03125,0.02734375,-0.939453125,0.009945916499908357,0.24040499892416206,23.06474372572413,0.27899798437615736,1692,0,6.435017009629655,1.7624651195332883,27.38866294985475,0.13640269884479916,0.037358875441107456,0.087890625,,
2.8740900000007823,1200,,,,-0.0625,0.12109375,-0.98046875,0.009945916499908357,0.24040499892416206,23.064707016227395,0.2766995202219735,1692,0,6.381993365450507,1.7624039982907869,27.61525901659063,0.13640742937335107,0.03766926493932383,0.087890625,,
2.882050000000745,1200,,,,0,0,-0.927734375,0.009945916499908357,0.24040499892416206,23.064769979293498,0.27264704210598245,1692,0,6.288541311709234,1.7624360937473473,28.026151159501804,0.13640494527833083,0.03822905615274071,0.087890625,,
2.890480000000447,1200,,,,0,0.01953125,-0.986328125,0.009945916499908357,0.24040499892416206,23.06487450531364,0.269477689689901,1692,0,6.215469094679418,1.7625689142553622,28.35777778646122,0.13639466631903394,0.038678496387336905,0.087890625,,
2.897440000001341,1200,,,,-0.0625,0.0703125,-1.0625,0.009945916499908357,0.24040499892416206,23.06483740124442,0.26679933127441946,1692,0,6.153683194605231,1.76261024084794,28.643174910160685,0.1363914683761909,0.03906684684952886,0.087890625,,
2.905714999999851,1200,,,,-0.0625,0.033203125,-1.00390625,0.009945916499908357,0.24040499892416206,23.064795711934075,0.2647635941196408,1692,0,6.106718210326944,1.762630192647609,28.863787912579,0.1363899245156211,0.03936729854631546,0.087890625,,
2.9137350000003353,1200,,,,-0.0625,0.046875,-0.95703125,0.009945916499908357,0.24040499892416206,23.06501448845477,0.26195152014159007,1692,0,6.0419156073385265,1.762470843107062,29.170729246306585,0.1364022558809267,0.039789532748879426,0.087890625,,
2.921955000001006,1200,,,,-0.03125,0.056640625,-0.935546875,0.009945916499908357,0.24040499892416206,23.065229682887985,0.2600515377516309,1692,0,5.998148447629583,1.7624059959394507,29.38250047205715,0.13640727475851222,0.04007986814984015,0.0859375,,
2.932770000000484,1200,,,,-0.03125,0.01171875,-0.990234375,0.009945916499908357,0.24040499892416206,23.065267162197323,0.25744899239429114,1692,0,5.938129790212832,1.762381067560266,29.679059397876507,0.13640920420063535,0.040484968738877226,0.0859375,,
2.9417550000008195,1200,,,,-0.03125,0.025390625,-0.97265625,0.009945916499908357,0.24040499892416206,23.065545546963417,0.2563329509933254,1692,0,5.9124593563240895,1.7625659627508599,29.811045734556853,0.13639489471869684,0.04066074444419138,0.0859375,,
2.949750000000931,1200,,,,-0.09375,0.080078125,-1.041015625,0.009945916499908357,0.24040499892416206,23.065681665332786,0.2530850767395861,1692,0,5.837579814321612,1.7626155285393874,30.19428572462648,0.1363910592137904,0.04118230612185637,0.0859375,,
2.9575400000009684,1200,,,,-0.03125,0.009765625,-0.9453125,0.009945916499908357,0.24040499892416206,23.06585325525009,0.25068927554649745,1693,0,5.782362042420465,1.7631265739733715,30.491459390448966,0.13635152601800266,0.041575570184036736,0.0859375,,
2.9656250000009314,1200,,,,-0.0625,0.04296875,-0.94140625,0.009945916499908357,0.24040499892416206,23.065892972094854,0.2495896936983916,1694,0,5.757009161785038,1.7643495565142606,30.64698191251793,0.1362570121303618,0.041758661862129336,0.0859375,,
2.974070000000298,1200,,,,0,0.017578125,-0.9140625,0.009945916499908357,0.24040499892416206,23.06599766682885,0.24809179360460695,1694,0,5.722484732443249,1.7648390153253208,30.840432047283283,0.13621922273734816,0.04201059682364931,0.0859375,,
2.9830449999999256,1200,,,,-0.0625,0.0234375,-1.00390625,0.010505501595251057,0.24040499892416206,23.066180655027885,0.2465209174203762,1695,0,5.6862960164616085,1.8643457853452499,32.786646701966276,0.12894871799741942,0.042277960596528705,0.0859375,,
2.9919650000007825,1200,,,,-0.03125,0.03515625,-0.9609375,0.010505501595251057,0.24040499892416206,23.066060918934383,0.24527289995840115,1697,0,5.65747965220418,1.8665063072198211,32.991834208234785,0.1287994570359891,0.04249330332642013,0.0859375,,
3.0000750000001863,1200,,,,-0.09375,0.052734375,-1.009765625,0.010505501595251057,0.24040499892416206,23.066156750828114,0.24335284469851878,1697,0,5.6132148615759645,1.867240501524794,33.265081554361664,0.12874881341093802,0.04282839778142147,0.0859375,,
3.007640000000596,1200,,,,0,-0.02734375,-0.8984375,0.010505501595251057,0.3220615919394506,23.066310011348158,0.24303732158024108,1698,0,5.605974203897556,1.867524964319126,33.313120902709976,0.17245370107106966,0.05744970993900349,0.0859375,,
3.0148050000006332,1200,,,,-0.0625,0.05078125,-0.9609375,0.010505501595251057,0.3220615919394506,23.066121489519738,0.24300231274358505,1696,0,5.605120867977803,1.8659531547615966,33.29015018073623,0.17259896965666258,0.05745845620910632,0.0859375,,
3.0230099999997764,1200,,,,0,0.05078125,-0.8984375,0.010505501595251057,0.3220615919394506,23.06631134046249,0.24057455016877036,1695,0,5.5491674747845705,1.8652311544626845,33.61281062318445,0.17266577987875537,0.058037821601690555,0.083984375,,
3.0309400000004096,1200,,,,-0.0625,0.04296875,-1.01953125,0.010505501595251057,0.3220615919394506,23.066394750840452,0.23974591664252645,1695,0,5.530073953178604,1.8649447122706249,33.723684855944505,0.17269230010970738,0.05823820705947963,0.083984375,,
3.038765000000596,1200,,,,0,-0.009765625,-0.95703125,0.010505501595251057,0.3220615919394506,23.06647294026561,0.24002550078544774,1697,0,5.536541718841232,1.8664367702967157,33.71123826169508,0.172554247250632,0.05817017342133499,0.083984375,,
3.0472150000007825,1200,,,,-0.125,0.083984375,-1.02734375,0.010505501595251057,0.3220615919394506,23.0664825254867,0.23858461298426495,1697,0,5.503307806251554,1.867032460271665,33.925641196205405,0.17249919259174992,0.058521457145028405,0.083984375,,
3.0562050000000744,1200,,,,0,0,-0.9765625,0.010505501595251057,0.3220615919394506,23.066565211610076,0.2368324755166222,1697,0,5.462911740731212,1.8672790829087043,34.181022347228485,0.17247640959902347,0.05895420010873955,0.083984375,,
3.063725000000559,1200,,,,-0.0625,0.080078125,-0.95703125,0.010505501595251057,0.3220615919394506,23.06644060800577,0.23598780188689797,1356,0,5.443398616437964,1.492168089158663,27.41243466265022,0.21583465983449643,0.059165535106484694,0.083984375,,
3.0708250000011175,1200,,,,0,0.03515625,-0.8984375,0.010505501595251057,0.3220615919394506,23.06645049458774,0.23507893895138124,1550,0,5.422436707642249,1.704699454946168,31.437885711853614,0.18892573174995286,0.05939425562783331,0.083984375,,
3.0787950000008566,1200,,,,0,0,-0.90234375,0.010505501595251057,0.3220615919394506,23.066526710829656,0.23399054396598462,1639,0,5.397349132472946,1.8031751130469214,33.408532018026904,0.17860805065973093,0.059670327791429924,0.0859375,,
3.0898350000008943,1200,,,,-0.03125,0.037109375,-1,0.010505501595251057,0.3220615919394506,23.066598828021206,0.23327876293073807,1673,0,5.380947639620399,1.8405952419767864,34.20578242435066,0.17497686867513507,0.059852206991958486,0.0859375,,
3.0984900000002233,1200,,,,-0.0625,0.072265625,-1.048828125,0.010505501595251057,0.3220615919394506,23.066627477724474,0.23438501292093192,1689,0,5.406471779408774,1.8581569486015412,34.369123236314024,0.17332313730647772,0.059569642657909094,0.0859375,,
3.105390000000596,1200,,,,0,0.0234375,-0.9765625,0.010505501595251057,0.3220615919394506,23.066747658366797,0.23314453547920408,1693,0,5.377886167825945,1.8621112849791317,34.62533841120526,0.1729550723081837,0.059886279086053366,0.0859375,,
3.112370000001043,1200,,,,-0.0625,0.04296875,-0.943359375,0.010505501595251057,0.3220615919394506,23.066885124457077,0.23201527936781646,1694,0,5.3518697962962385,1.8636690752455625,34.82276561614624,0.17281050386963945,0.06017739672260587,0.083984375,,
3.120209999999963,1200,,,,0,0.072265625,-0.9375,0.010505501595251057,0.3220615919394506,23.06693937362724,0.2307704224239504,1695,0,5.323167343279612,1.8643266188342937,35.02288202883509,0.17274955401367698,0.06050187250754885,0.083984375,,
3.1285000000009315,1200,,,,-0.0625,0.08984375,-0.98046875,0.010621226435924615,0.3220615919394506,23.06659651614969,0.23021087031220422,1695,0,5.310181259123278,1.8851295504693832,35.50028630812918,0.17084321438771127,0.060649830245648455,0.083984375,,
3.136725000000559,1200,,,,0,0.00390625,-1.0234375,0.010621226435924615,0.3220615919394506,23.066663791758668,0.23031916555436563,1694,0,5.312694756640956,1.8839264833507268,35.460845571746574,0.1709523141086886,0.0606211361074092,0.083984375,,
3.145010000000708,1200,,,,-0.0625,0,-0.982421875,0.010621226435924615,0.3220615919394506,23.0665933054587,0.22928121282290806,1693,0,5.288736488768342,1.8827277386449466,35.598819163013395,0.17106116053256198,0.06089575319613879,0.083984375,,
3.152100000000559,1200,,,,-0.0625,0.044921875,-1.001953125,0.010621226435924615,0.3555873495279729,23.066657575539754,0.22794045968026244,1692,0,5.257824531055739,1.882319042562316,35.800339692666725,0.1889091814339443,0.06763012866398817,0.0859375,,
3.159085000000894,1200,,,,-0.0625,0.05078125,-0.94921875,0.010621226435924615,0.3555873495279729,23.066457487570425,0.22729601187458648,1693,0,5.242913794999452,1.8829914658998541,35.91498047699736,0.18884172125445237,0.06782246732096232,0.083984375,,
3.1662000000011177,1200,,,,-0.03125,0.06640625,-0.943359375,0.010621226435924615,0.3555873495279729,23.06643766780404,0.22638889156660183,1694,0,5.2219852560042685,1.8841306881806288,36.080735502158774,0.18872753984562415,0.06809428447143095,0.083984375,,
3.1754150000009687,1200,,,,0,0.0078125,-0.984375,0.010621226435924615,0.3555873495279729,23.066449333087373,0.22603681807746973,1694,0,5.213866811596244,1.8846681840432071,36.14722531560428,0.18867371590320264,0.06820031319885377,0.083984375,,
3.1837750000003724,1200,,,,-0.09375,0.083984375,-1.017578125,0.010621226435924615,0.3555873495279729,23.0663893403674,0.22568164316040937,1695,0,5.205660648111866,1.8848809536352875,36.20829479768238,0.1886524179907315,0.06830782364904005,0.083984375,,
3.190945000000298,1200,,,,-0.09375,0.064453125,-1.03125,0.010621226435924615,0.3555873495279729,23.066287238008407,0.22374662028556677,1693,0,5.161003812040482,1.8832796293675929,36.4905684621653,0.18881282629674034,0.06889887364516128,0.0859375,,
3.198355000000447,1200,,,,-0.0625,0.01953125,-1.01171875,0.010621226435924615,0.3555873495279729,23.06617429950368,0.22385607734533294,1693,0,5.163503298050626,1.8825173728882632,36.45814216094272,0.18888927913712208,0.06886552191459189,0.0859375,,
3.20616000000108,1200,,,,-0.03125,0.05078125,-0.986328125,0.010621226435924615,0.3555873495279729,23.066342897952886,0.2236620417161232,1692,0,5.1590653474803405,1.8822369816026507,36.48406939683222,0.18891741741531623,0.06892476167250718,0.083984375,,
3.2142900000000374,1200,,,,-0.0625,0.109375,-0.93359375,0.010621226435924615,0.3555873495279729,23.066294069093896,0.2234576358612277,1692,0,5.15433954075958,1.8821099370438379,36.515055365686614,0.1889301695556005,0.06898795601571313,0.083984375,,
3.2232000000011176,1200,,,,0,-0.001953125,-0.92578125,0.010621226435924615,0.3555873495279729,23.0662410972837,0.22251967023071967,1692,0,5.132692362429842,1.882056043189406,36.66800794385486,0.1889355796894234,0.06927891336928599,0.0859375,,
3.2310900000007825,1200,,,,0,0.0234375,-1.015625,0.010621226435924615,0.3555873495279729,23.06622941597213,0.2226877218753469,1692,0,5.136566080896948,1.882037893570005,36.64000158723478,0.18893740170845627,0.06922666698485852,0.083984375,,
3.241180000000633,1200,,,,-0.0625,0.0625,-1.0078125,0.010621226435924615,0.3555873495279729,23.066251191340882,0.22360483215372484,1693,0,5.157725226055434,1.883300718657676,36.514173130894015,0.18881071196182522,0.06894267025541448,0.083984375,,
3.249155000001192,1200,,,,-0.041015625,0.06640625,-0.974609375,0.010621226435924615,0.3555873495279729,23.066356932059307,0.22151654686278455,1694,0,5.109579736294231,1.8838426586597163,36.86883767129526,0.18875639528248073,0.06959228897088625,0.083984375,,
3.2591450000004842,1200,,,,-0.0625,0.0390625,-0.98046875,0.010621226435924615,0.3555873495279729,23.066299859559965,0.22164317141868903,1694,0,5.112487853767332,1.8840145059374054,36.85122703126027,0.18873917817901711,0.06955270304768445,0.083984375,,
3.2683250000001864,1200,,,,0,0.033203125,-0.94140625,0.010621226435924615,0.3555873495279729,23.066161199571514,0.2225585676534434,1692,0,5.133571797840068,1.8819867200490534,36.660375936319674,0.1889425391475157,0.06926704515510722,0.083984375,,
3.276015000000596,1200,,,,-0.03125,0.044921875,-1.001953125,0.010621226435924615,0.3555873495279729,23.06625229708861,0.22154492714149993,1691,0,5.1102111845859515,1.880746098018171,36.80368638562549,0.18906717387459782,0.06958368973097222,0.083984375,,
3.284085000000894,1200,,,,-0.09375,0.044921875,-1.029296875,0.009811857684483945,0.3555873495279729,23.066433282023365,0.22144383897956615,1691,0,5.1079195375372874,1.7369846423135702,34.00571660435813,0.20471531000662713,0.06961490816658682,0.083984375,,
3.292580000001006,1200,,,,0,0.015625,-0.9765625,0.009811857684483945,0.3555873495279729,23.066379217316424,0.22006222905698555,1692,0,5.076038826836378,1.7389723986830314,34.258453451721124,0.20448130734982814,0.07005213349591169,0.083984375,,
3.3001700000008567,1200,,,,-0.09375,0.107421875,-0.955078125,0.009811857684483945,0.3555873495279729,23.06636065588047,0.2200321388850617,1693,0,5.075340671407615,1.7397526965002175,34.27854028205968,0.20438959528172712,0.07006176975098559,0.083984375,,
3.30825,1200,,,,0,0.033203125,-0.904296875,0.009811857684483945,0.3642226555776481,23.066537712078226,0.21968686734201215,1693,0,5.06741541039285,1.7400579661955184,34.33817489339444,0.20931639212800965,0.07187542880945927,0.083984375,,
3.3163400000007823,1200,,,,-0.0625,0.03125,-1.0078125,0.009811857684483945,0.3642226555776481,23.06654413429581,0.22053336174046628,1692,0,5.086942521671089,1.7380095193043024,34.166093127652566,0.2095630959049296,0.07159952250807013,0.083984375,,
3.325230000000447,1200,,,,-0.03125,0.041015625,-0.98828125,0.009811857684483945,0.3642226555776481,23.066623724544367,0.2205928034996631,1691,0,5.088331194669083,1.7371651438318216,34.140174398470876,0.20966495722695044,0.07157998204976025,0.083984375,,
3.3330700000012294,1200,,,,-0.09375,0.06640625,-1.02734375,0.009811857684483945,0.3642226555776481,23.066494789499757,0.22117678106777677,1690,0,5.101773068058201,1.7368770506178839,34.04457680590174,0.20969973404166867,0.07139138701758756,0.083984375,,
3.341370000000112,1200,,,,0,0.00390625,-0.88671875,0.009811857684483945,0.3642226555776481,23.066372490989465,0.2208792610334335,1693,0,5.094883310531672,1.7392573759222625,34.137334849789994,0.20941274167919777,0.07148792884515347,0.083984375,,
3.349540000000037,1200,,,,-0.03125,0.068359375,-0.974609375,0.009811857684483945,0.3642226555776481,23.06635432681997,0.22208561607734062,1694,0,5.122705511330044,1.7401968566697332,33.97026928096661,0.2092996859416652,0.07109966691860108,0.083984375,,
3.359015000000596,1200,,,,0.0625,-0.05078125,-0.828125,0.009811857684483945,0.3642226555776481,23.066544409569318,0.22164064197438177,1694,0,5.11248371106753,1.7406172625491778,34.04641189919258,0.20924913443879953,0.07124182220652892,0.083984375,,
3.36625,1200,,,,-0.0625,0.076171875,-1.015625,0.009811857684483945,0.3642226555776481,23.066549281298077,0.22318517386082565,1693,0,5.148111811715814,1.7399834393103573,33.79847802354624,0.20932535755743045,0.07074878497175771,0.083984375,,
3.3742250000005587,1200,,,,-0.03125,0.03125,-0.97265625,0.009811857684483945,0.3642226555776481,23.06652209267167,0.22445484062948926,1693,0,5.1773925401872125,1.7396486928584676,33.60086528798457,0.2093656363338412,0.07034866542386566,0.083984375,,
3.3830400000009684,1200,,,,-0.0625,0.0625,-1.064453125,0.009811857684483945,0.3642226555776481,23.066690255331967,0.2262580498788801,1693,0,5.2190243543315775,1.7395197453791909,33.33036267469149,0.20938115623301115,0.06978749874492503,0.083984375,,
3.394530000001192,1200,,,,0,0.0078125,-0.921875,0.009811857684483945,0.3642226555776481,23.066952566306014,0.22465534294002296,1696,0,5.18211413936472,1.7430519155483943,33.635922881507135,0.20895686027977967,0.0702845683793253,0.083984375,,
3.4020900000007823,1200,,,,-0.01953125,0.029296875,-0.94140625,0.009811857684483945,0.3642226555776481,23.067261219700143,0.22354040878282003,1699,0,5.156465002551862,1.7460104563175474,33.86060906945885,0.20860279173002091,0.07063417581567982,0.083984375,,
3.410155000001192,1200,,,,0.0625,0.04296875,-0.9375,0.009811857684483945,0.3642226555776481,23.067490533742415,0.22250248566985487,1700,0,5.132573981923534,1.746870513570174,34.03497971432064,0.2085000878704321,0.07096296261104228,0.083984375,,
3.418230000000447,1200,,,,-0.03125,0.060546875,-1.00390625,0.009811857684483945,0.3642226555776481,23.067516076033062,0.22267560821796667,1702,0,5.136573172308386,1.7484089962590237,34.03843258156654,0.20831662177268342,0.07090771285829182,0.083984375,,
3.426065000001341,1200,,,,0,0.00390625,-0.99609375,0.009811857684483945,0.3642226555776481,23.06780139099376,0.22251744100178086,1702,0,5.132988135061253,1.749000077739478,34.07372142150114,0.20824622034802495,0.07095723699219145,0.083984375,,
3.434105000000447,1200,,,,-0.0625,0.04296875,-0.97265625,0.009490690582678048,0.3642226555776481,23.067811074983947,0.22236858782050084,1702,0,5.129556572854289,1.6919749617427973,32.98481920828714,0.21526480226544562,0.07100470584633403,0.083984375,,
3.442430000000633,1200,,,,-0.0625,0.056640625,-1.033203125,0.009490690582678048,0.3642226555776481,23.067918084439697,0.2215892785215768,1701,0,5.111603325325826,1.6905506889436641,33.07280673693325,0.21544616080410559,0.07125409238488428,0.083984375,,
3.451475000000559,1200,,,,-0.03125,0.048828125,-0.97265625,0.009490690582678048,0.3642226555776481,23.06807068586844,0.22002529219333986,1700,0,5.0755589929948215,1.6891434500993818,33.279949113599145,0.21562565071440135,0.0717601068336198,0.083984375,,
3.459405000001192,1200,,,,-0.0625,0.11328125,-0.99609375,0.009490690582678048,0.36765927019719946,23.068002333283818,0.2197858589612474,1699,0,5.070020707340843,1.688674782478876,33.30705888506248,0.2177205901408068,0.07251632516310406,0.083984375,,
3.467160000000149,1200,,,,0,0.009765625,-0.9140625,0.009490690582678048,0.36765927019719946,23.06780454780811,0.21976928322230257,1699,0,5.06959487098396,1.6888132622322807,33.31258818921162,0.21770273743067708,0.07252241639692213,0.083984375,,
3.474195000001229,1200,,,,-0.0625,0.0859375,-1.0390625,0.009490690582678048,0.36765927019719946,23.067813102762432,0.22032262435985095,1699,0,5.082361121043175,1.6890158420323393,33.232897108375134,0.217676626262313,0.07234024923473677,0.083984375,,
3.48131500000041,1200,,,,-0.03125,0.060546875,-1.0234375,0.009490690582678048,0.36765927019719946,23.067991744193154,0.22028539369210892,1700,0,5.081541643055908,1.6891024121932758,33.2399600523099,0.21766546986325064,0.07235191523021715,0.083984375,,
3.4903100000005214,1200,,,,-0.0625,0.048828125,-1.037109375,0.009490690582678048,0.36765927019719946,23.067882548525706,0.219525045636445,1699,0,5.063977969201259,1.688402898069419,33.341434507380576,0.2177556498023039,0.07260285736495617,0.083984375,,
3.4987200000006706,1200,,,,0,-0.03125,-0.8828125,0.009490690582678048,0.36765927019719946,23.067816739762662,0.21928592290994914,1697,0,5.05844748329643,1.6866773978432303,33.34377599871959,0.21797841760809072,0.07268223529279533,0.0859375,,
3.506055000000633,1200,,,,-0.0625,0.05859375,-0.96484375,0.009490690582678048,0.36765927019719946,23.067736480775558,0.21929320231164548,1697,0,5.058597802950439,1.686115008610296,33.331667673339545,0.21805112244402944,0.07268007549103059,0.0859375,,
3.514355000000447,1200,,,,0.0625,0.00390625,-0.90625,0.009490690582678048,0.36765927019719946,23.06774932502894,0.21803612779025647,1696,0,5.029602739665613,1.6855402305053142,33.51239288169656,0.21812547902637572,0.07309906750640167,0.0859375,,
3.5224500000011174,1200,,,,-0.03125,0.07421875,-0.986328125,0.009490690582678048,0.36765927019719946,23.0678600927143,0.21746448979702807,1695,0,5.01644042577134,1.684986471533065,33.589285001306024,0.21819716443342657,0.073290867426312,0.0859375,,
3.5303850000007078,1200,,,,0,0.0234375,-0.98828125,0.009490690582678048,0.36765927019719946,23.0678018209753,0.2171373716671718,1695,0,5.008881857545777,1.6847695103262177,33.63564081249286,0.21822526342253815,0.07340146576692128,0.083984375,,
3.5384900000002237,1200,,,,-0.03125,-0.013671875,-0.984375,0.009490690582678048,0.36765927019719946,23.067811602918063,0.2172510233862471,1695,0,5.011505678015094,1.6846295607273871,33.61523799359672,0.21824339235650836,0.07336303574593936,0.083984375,,
3.5498250000001863,1200,,,,-0.0625,0.078125,-0.982421875,0.009490690582678048,0.36765927019719946,23.067755017518614,0.21607106000964998,1695,0,4.984274278678169,1.684466206415804,33.79561621682114,0.21826455692423913,0.07376385199546097,0.0859375,,
3.5584300000006333,1200,,,,-0.03125,0.0703125,-0.994140625,0.009490690582678048,0.36765927019719946,23.067629539464335,0.21607995515305156,1695,0,4.9844523563746606,1.6843906380899818,33.79289273245434,0.21827434912254523,0.07376121666144461,0.083984375,,
3.566335000000894,1200,,,,0,0.029296875,-0.931640625,0.009490690582678048,0.36765927019719946,23.06777978404538,0.21517275230045257,1695,0,4.963557665593784,1.6844536836693944,33.936418133018414,0.21826617957004005,0.0740717233418536,0.083984375,,
3.574640000000596,1200,,,,-0.0625,0.04296875,-1.021484375,0.009490690582678048,0.36765927019719946,23.067691742035638,0.2134501978167174,1695,0,4.9238033655125655,1.6845594153616181,34.21256476569828,0.21825248005175016,0.07466977109044773,0.083984375,,
3.583265000000596,1200,,,,0,0,-0.98046875,0.009699326338748145,0.36765927019719946,23.067708582403455,0.21283114347307175,1695,0,4.909526794896518,1.7216358527833888,35.06724628884885,0.21355228494039574,0.07488690571551283,0.083984375,,
3.591300000000745,1200,,,,-0.09375,0.099609375,-1.041015625,0.009699326338748145,0.36765927019719946,23.06762493236519,0.21283648478347136,1695,0,4.909632202908169,1.7215410994827889,35.064563460844425,0.21356403881827574,0.07488529792097672,0.083984375,,
3.5987450000001115,1200,,,,0,0.015625,-0.8984375,0.009699326338748145,0.36765927019719946,23.067774315958506,0.21294820194541872,1695,0,4.912241063466075,1.7214487210463736,35.0440603139236,0.2135754993466896,0.07484552680681741,0.083984375,,
3.6055300000011923,1200,,,,-0.0625,0.05078125,-0.9765625,0.009699326338748145,0.3820545843476546,23.06769902114975,0.21267128770149285,1695,0,4.905837255138383,1.7214151300967184,35.08912017604548,0.22194215542080703,0.07787754963691262,0.083984375,,
3.6134300000006334,1200,,,,0,0.01953125,-0.90625,0.009699326338748145,0.3820545843476546,23.06762427372353,0.2123963865846858,1695,0,4.899480042832065,1.7212965078819171,35.132228171848,0.2219574504440138,0.07797859793440738,0.083984375,,
3.6226450000004844,1200,,,,-0.0625,0.072265625,-1.013671875,0.009699326338748145,0.3820545843476546,23.06735331293697,0.21230752208441733,1694,0,4.897372622915423,1.7210071017797612,35.14143673133942,0.221994775008515,0.0780121534064966,0.083984375,,
3.631160000000149,1200,,,,-0.03125,0.009765625,-0.958984375,0.009699326338748145,0.3820545843476546,23.06716349281594,0.21295810420448694,1694,0,4.9123394068050334,1.7209011160404362,35.032211203820374,0.22200844707841857,0.07777446807083337,0.083984375,,
3.639430000000633,1200,,,,-0.09375,0.064453125,-1.01171875,0.009699326338748145,0.3820545843476546,23.067108225295396,0.2138859376855374,1694,0,4.933730072461079,1.720867231686994,34.87963886173,0.22201281848636303,0.07743726931479156,0.083984375,,
3.6483150000004096,1200,,,,-0.0625,0.056640625,-0.931640625,0.009699326338748145,0.3820545843476546,23.06701066995225,0.21323753903320383,1693,0,4.918752588113272,1.7199804642161165,34.96781823043196,0.22212728126640469,0.07767306395343672,0.083984375,,
3.6555750000011176,1200,,,,0,0.05078125,-0.921875,0.009699326338748145,0.3820545843476546,23.067058341181145,0.21332770405089196,1693,0,4.92084259513215,1.7196831233469958,34.94692402980253,0.22216568806238385,0.07764007422744934,0.083984375,,
3.663710000000894,1200,,,,0,0.0234375,-0.935546875,0.009699326338748145,0.3820545843476546,23.067300571459903,0.21394652101819012,1693,0,4.935168706544755,1.719563058571061,34.8430451078738,0.2221812003016266,0.0774146958423112,0.083984375,,
3.6703650000002237,1200,,,,-0.0625,0.03125,-1.0078125,0.009699326338748145,0.3820545843476546,23.067244816343692,0.21418298598113236,1694,0,4.940611373122289,1.7205899461968452,34.8254460076971,0.2220485974546927,0.07732941441743268,0.083984375,,
3.67825,1200,,,,-0.03125,0.021484375,-0.998046875,0.009699326338748145,0.3820545843476546,23.067102535398465,0.2135577604082658,1694,0,4.926158756567526,1.7210444531496107,34.93684507944703,0.22198995711497904,0.07755628740919113,0.08203125,,
3.6863200000012295,1200,,,,-0.0625,0,-1.00390625,0.009699326338748145,0.3820545843476546,23.067081189810263,0.21256839716140266,1695,0,4.903332475709909,1.7212529258665308,35.10373678295854,0.2219630703926425,0.0779173319860062,0.08203125,,
3.693340000000782,1200,,,,-0.03125,0.060546875,-0.96484375,0.009699326338748145,0.3820545843476546,23.067292682263872,0.21286427619712742,1694,0,4.910202560637393,1.7204112211691012,35.03747961358593,0.22207166498718273,0.07780831434743501,0.08203125,,
3.7034900000002233,1200,,,,-0.0625,0.1171875,-0.98046875,0.009699326338748145,0.3820545843476546,23.067393161474424,0.21308151463592845,1693,0,4.915235073549428,1.7195195736542594,34.98346565167526,0.22218681904023127,0.07772864952148918,0.08203125,,
3.71244000000041,1200,,,,-0.01953125,0.03125,-0.9140625,0.009699326338748145,0.3820545843476546,23.0668035714545,0.21321860771927886,1693,0,4.918271742039618,1.7191134250236328,34.95360799870551,0.2222393117210416,0.07768065783799408,0.08203125,,
3.720215000000782,1200,,,,0,0,-0.96484375,0.009699326338748145,0.3820545843476546,23.066861643070045,0.21246779472356075,1692,0,4.900965224496583,1.718683127353227,35.06825795789577,0.22229495261061816,0.07795496740887373,0.08203125,,
3.727890000000596,1200,,,,-0.09375,0.0390625,-0.98046875,0.009785016825445657,0.3820545843476546,23.06701460508311,0.2118565013112974,1692,0,4.886897009929506,1.7336940280136581,35.476377433185704,0.22037024882953846,0.07817938122521755,0.08203125,,
3.736735000000335,1200,,,,-0.03125,0.056640625,-0.982421875,0.009785016825445657,0.3820545843476546,23.06686546405967,0.21191016263909693,1692,0,4.8881032120630525,1.7336247588384222,35.466206085013,0.22037905400222943,0.07816008946063277,0.08203125,,
3.7447050000000743,1200,,,,-0.125,0.109375,-0.99609375,0.009785016825445657,0.3820545843476546,23.066657971958687,0.21206825047898173,1693,0,4.891705800510335,1.7349313042575107,35.46679573568204,0.22021309051839402,0.07810252699739141,0.083984375,,
3.7536900000004096,1200,,,,-0.03125,0.046875,-0.91796875,0.009785016825445657,0.3881259014092713,23.06680426823754,0.21104761432557922,1694,0,4.868194010926621,1.7361730279693406,35.663595659345425,0.2235525464090583,0.0797268762374971,0.083984375,,
3.7614000000003727,1200,,,,-0.0625,0.099609375,-1.060546875,0.009785016825445657,0.3881259014092713,23.066863163593002,0.21178123393998116,1695,0,4.885128743910424,1.7365965185526773,35.5486336100648,0.22349803035004648,0.07945049593484946,0.083984375,,
3.7694700000006707,1200,,,,-0.0625,0.05078125,-0.97265625,0.009785016825445657,0.3881259014092713,23.066788962252993,0.21215392264499278,1694,0,4.893709761166194,1.7359355744044795,35.472793833829606,0.22358312550995427,0.07931118115937857,0.083984375,,
3.788610000001267,1200,,,,-0.03125,0.001953125,-0.927734375,0.009785016825445657,0.3881259014092713,23.066781623988426,0.2164298974640852,1693,0,4.9923411817062595,1.734341476008785,34.74004305563166,0.22378862915880893,0.07774426612337809,0.083984375,,
3.7964350000005216,1200,,,,-0.0625,0.099609375,-0.990234375,0.009785016825445657,0.3881259014092713,23.066455471360605,0.21918574847768907,1695,0,5.055838307217461,1.7364093025420027,34.34463677493784,0.22352212743912248,0.07676786278058027,0.083984375,,
3.8056100000003354,1200,,,,0,0.0390625,-0.890625,0.009785016825445657,0.3881259014092713,23.066540777106276,0.21955995870418693,1697,0,5.064488740469898,1.7384761212000155,34.32678420840392,0.22325638913082116,0.07663673892841152,0.083984375,,
3.8144400000004097,1200,,,,-0.0625,0.044921875,-0.9609375,0.009785016825445657,0.3881259014092713,23.06674539750891,0.21912415092566315,1697,0,5.054480999847589,1.7391745752492815,34.40856885804347,0.2231667291672775,0.07678847767376606,0.083984375,,
3.823160000000149,1200,,,,-0.0625,0.05078125,-1.0078125,0.009785016825445657,0.3881259014092713,23.066502571519308,0.2175919966499344,1701,0,5.019086350267733,1.7429150915296836,34.725744286840396,0.22268778513394444,0.07732999082364214,0.083984375,,
3.8312750000003724,1200,,,,-0.09375,0.068359375,-1.015625,0.009785016825445657,0.3881259014092713,23.06647773282857,0.21542332784271997,1704,0,4.96905739481593,1.7456351930152578,35.1301072681597,0.22234078630074852,0.07810855672832268,0.083984375,,
3.8388950000004844,1200,,,,-0.125,0.1171875,-1.1015625,0.009785016825445657,0.3881259014092713,23.066544264961028,0.21408247221199336,1705,0,4.938142821630234,1.7466234297964252,35.3700468553846,0.22221498623461652,0.07859754475087032,0.0859375,,
3.847195000000298,1200,,,,-0.03125,0.05859375,-0.96484375,0.009785016825445657,0.3881259014092713,23.06651480738728,0.21295963925189174,1703,0,4.912236672179614,1.7446255384471125,35.51590965329044,0.22246945998207807,0.07901205241339798,0.0859375,,
3.858245000001043,1200,,,,-0.0625,0.05859375,-0.9609375,0.009785016825445657,0.3881259014092713,23.06658866011984,0.2115565573420579,1702,0,4.879888086560305,1.7439338787281937,35.73716953737444,0.22255769335264108,0.07953582019190326,0.0859375,,
3.8761250000009313,1200,,,,-0.03125,0.0078125,-1.00390625,0.009785016825445657,0.3881259014092713,23.066686303573242,0.21092344449087208,1701,0,4.86530492814009,1.742868866865388,35.82239741614001,0.22269369129722857,0.07977421911716522,0.0859375,,
3.884790000000037,1200,,,,-0.03125,0.013671875,-1.00390625,0.00973451391616349,0.3881259014092713,23.066685247586584,0.21115928259829264,1701,0,4.870744708801003,1.7335606079256904,35.591284527667824,0.22388943290173585,0.07968512509143874,0.083984375,,
3.8921650000009684,1200,,,,-0.0625,0.00390625,-1.02734375,0.00973451391616349,0.3881259014092713,23.066557458121046,0.21134738293819946,1700,0,4.875056552167489,1.7328052125124838,35.54430997814917,0.22398703478419685,0.07961464595455973,0.083984375,,
3.900600000000559,1200,,,,-0.03125,0.03515625,-0.9375,0.00973451391616349,0.3881259014092713,23.066730896709352,0.21044407804294007,1698,0,4.8542569170225995,1.7311416215020776,35.66234031477444,0.2242022816553287,0.07995578067741245,0.083984375,,
3.908600000000559,1200,,,,-0.125,0.1171875,-1.01953125,0.00973451391616349,0.3757852085392476,23.06666308120873,0.21088201475554738,1698,0,4.8643443842527,1.7305116629076818,35.575434759715044,0.21715265871588335,0.07725300243045576,0.083984375,,
3.9164150000009688,1200,,,,0,0.03125,-0.939453125,0.00973451391616349,0.3757852085392476,23.06653133731579,0.21001725822992082,1697,0,4.844369668337611,1.7302589801064998,35.71690639992496,0.21718437116050543,0.07757153856266333,0.083984375,,
3.923780000000261,1200,,,,0,0.00390625,-0.96875,0.00973451391616349,0.3757852085392476,23.066592479786813,0.21041005081474576,1697,0,4.853442895794975,1.7294135027231452,35.632715576431515,0.21729054847064275,0.0774265231110122,0.083984375,,
3.9318550000013786,1200,,,,-0.03125,0.0234375,-0.998046875,0.00973451391616349,0.3757852085392476,23.066596595276486,0.2104297709116373,1696,0,4.853898637255184,1.7289737497315818,35.62031016595958,0.21734581487867422,0.07741925339251608,0.083984375,,
3.9406699999999253,1200,,,,-0.09375,0.046875,-1.06640625,0.00973451391616349,0.3757852085392476,23.066666969584485,0.21022929975885413,1696,0,4.849289244786436,1.7288228955518952,35.65105747013515,0.21736478010911872,0.07749284267653482,0.083984375,,
3.9493400000007823,1200,,,,-0.03125,0.025390625,-0.953125,0.00973451391616349,0.3757852085392476,23.06666700164983,0.21025884249048182,1697,0,4.849970703880286,1.7299883742519941,35.670078849505074,0.2172183432745484,0.07748195432162001,0.0859375,,
3.957565000001341,1200,,,,-0.125,0.12109375,-0.98828125,0.00973451391616349,0.3757852085392476,23.066732534091244,0.21007082166677926,1697,0,4.845647456604377,1.7303860604310053,35.71011048425686,0.21716842104336348,0.07755108309150123,0.0859375,,
3.9654700000006704,1200,,,,0,0.0234375,-0.935546875,0.00973451391616349,0.3757852085392476,23.06666468068131,0.21137108939057586,1698,0,4.875626042162728,1.7305419236339996,35.49373780246622,0.21714886152548604,0.07707424755089645,0.083984375,,
3.9735250000003726,1200,,,,-0.0625,0.03125,-0.98046875,0.00973451391616349,0.3757852085392476,23.06673096519407,0.21209489261722395,1696,0,4.8923358270932304,1.728769585155045,35.336282018525885,0.21737148302822853,0.07681100027070698,0.083984375,,
3.981785000000149,1200,,,,0,0,-0.95703125,0.00973451391616349,0.3757852085392476,23.066727883866474,0.2120305486703095,1695,0,4.890850969244935,1.7280852843113295,35.333018633731065,0.2174575595029178,0.07683432001962277,0.083984375,,
3.989695000000298,1200,,,,-0.09375,0.0546875,-1.01953125,0.00973451391616349,0.3757852085392476,23.06679084295016,0.21271955769275927,1695,0,4.906757545503748,1.7278105258644727,35.212877543699555,0.2174921398578884,0.07658524087533002,0.083984375,,
3.9976350000007077,1200,,,,-0.0625,0.04296875,-1.04296875,0.00973451391616349,0.3757852085392476,23.06678481872881,0.21326054065120573,1697,0,4.91923500152713,1.729523329621379,35.15837989208617,0.2172767502485862,0.0763909852695772,0.083984375,,
4.008280000000261,1200,,,,-0.0625,0.01953125,-0.923828125,0.00973451391616349,0.3757852085392476,23.06684478031514,0.2129234974604184,1697,0,4.911473266001296,1.7302042348399584,35.22780520494646,0.21719124307542065,0.07651170803281096,0.083984375,,
4.015450000000186,1200,,,,-0.03125,0.08984375,-0.9453125,0.00973451391616349,0.3757852085392476,23.066914953049395,0.21233170998528245,1698,0,4.897837496066059,1.7305001158751092,35.331921838261195,0.21715410770094867,0.07672471960147272,0.083984375,,
4.0242700000004845,1200,,,,-0.03125,0.046875,-1.015625,0.00973451391616349,0.3757852085392476,23.06677074386577,0.21236182060983294,1696,0,4.898501430756966,1.7287571301989069,35.29155099035588,0.21737304909684485,0.07671432046130432,0.083984375,,
4.0327949999999255,1200,,,,0,-0.00390625,-0.94140625,0.009658603714514387,0.3757852085392476,23.06683879167269,0.2129940863780091,1695,0,4.913100254061144,1.714558540000951,34.897690894536616,0.2191731572717483,0.07648637094849131,0.083984375,,
4.041275000000373,1200,,,,-0.125,0.078125,-1.02734375,0.009658603714514387,0.3757852085392476,23.06682962371623,0.21217786881704384,1695,0,4.894270749925963,1.7143069192181675,35.026810056311255,0.21920532684464078,0.0767806334671886,0.083984375,,
4.050570000000298,1200,,,,-0.03125,0.044921875,-0.98828125,0.009658603714514387,0.37103006990144444,23.066598278702653,0.2125819268623139,1693,0,4.9035419082455425,1.7128159003218197,34.93017766283668,0.2166199355294004,0.07566572833354182,0.083984375,,
4.059490000001155,1200,,,,-0.0625,0.111328125,-0.958984375,0.009658603714514387,0.37103006990144444,23.066878357710852,0.2129380303083182,1693,0,4.911815642852523,1.7123042324561946,34.86092225281035,0.21668466553354526,0.07553827278541134,0.083984375,,
4.067630000000819,1200,,,,0,0.005859375,-0.9140625,0.009658603714514387,0.37103006990144444,23.066798268074162,0.2130509079977325,1693,0,4.9144023156137235,1.7121112336755429,34.83864616122154,0.21670909144432215,0.07549851356748542,0.0859375,,
4.075385000000708,1200,,,,-0.0625,0.09375,-1.0546875,0.009658603714514387,0.37103006990144444,23.066791881033655,0.2129394538789181,1694,0,4.911830065885969,1.713350207992457,34.8821149146049,0.21655238267731775,0.07553805097581691,0.0859375,,
4.082515000000596,1200,,,,-0.03125,0.029296875,-0.984375,0.009658603714514387,0.37103006990144444,23.06684454495625,0.21336461011727648,1694,0,4.921648292970416,1.713809998075809,34.821870561609245,0.2164942848495579,0.07538735964359465,0.0859375,,
4.089635000000708,1200,,,,-0.0625,0.0234375,-1.06640625,0.009658603714514387,0.37103006990144444,23.066808368044864,0.21362589236663146,1695,0,4.927667521673666,1.7140075724789334,34.78334455277487,0.21646932945858074,0.07529527271665953,0.0859375,,
4.0974900000002235,1200,,,,-0.03125,0.03125,-0.95703125,0.009658603714514387,0.37103006990144444,23.066866954810834,0.21263258083915654,1694,0,4.904767452474883,1.713225408773997,34.929798922669114,0.21656815734886725,0.075646821892489,0.0859375,,
4.1056349999997765,1200,,,,-0.0625,0.03515625,-0.9453125,0.009658603714514387,0.37103006990144444,23.06698765262086,0.21317848020488045,1693,0,4.917385370690457,1.712481302870305,34.82503757133546,0.21666226035843877,0.07545271357273095,0.0859375,,
4.113645000000484,1200,,,,0.03125,0.005859375,-0.90625,0.009658603714514387,0.37103006990144444,23.066939278662623,0.21316678326170554,1693,0,4.9171052457255975,1.712186700938957,34.82103016662798,0.21669953965766287,0.07545701207513875,0.0859375,,
4.121725000000559,1200,,,,-0.03125,0.048828125,-0.998046875,0.009658603714514387,0.37103006990144444,23.06689299873144,0.21347720774535192,1693,0,4.924255908729996,1.7125089858152411,34.777010325137844,0.2166587579829926,0.07534743863406076,0.0859375,,
4.129875000000931,1200,,,,0,0.0078125,-0.9765625,0.009658603714514387,0.37103006990144444,23.066881942409825,0.2133444380243382,1694,0,4.921190964977179,1.7135098524344725,34.81900752539519,0.21653220690520264,0.0753943654172268,0.0859375,,
4.13981500000041,1200,,,,-0.09375,0.056640625,-1.044921875,0.009658603714514387,0.37103006990144444,23.066870165004,0.21367987976600472,1695,0,4.928926043436096,1.713927643488904,34.77284155584683,0.21647942450252364,0.07527604728327161,0.0859375,,
4.14731500000041,1200,,,,-0.03125,0.05078125,-0.95703125,0.009658603714514387,0.37103006990144444,23.066787308613936,0.21422602708027885,1695,0,4.941506202630162,1.7141338704047067,34.68848970567604,0.21645337992991429,0.07508440841457617,0.0859375,,
4.15828500000108,1200,,,,-0.0625,0.083984375,-0.958984375,0.009658603714514387,0.37103006990144444,23.066847943971297,0.21481204788135388,1695,0,4.9550368450122715,1.7143164699187943,34.59745151329038,0.21643032451238123,0.07487937658322813,0.0859375,,
4.174825000000186,1200,,,,0,0.00390625,-1.046875,0.009658603714514387,0.37103006990144444,23.066654577738486,0.21576375359695185,1696,0,4.976947974617168,1.715299181295628,34.46488068679421,0.21630632950060172,0.07454971838036632,0.0859375,,
4.184875,1200,,,,-0.09375,0.083984375,-1.00390625,0.010211543899798841,0.37103006990144444,23.066496008844503,0.21559493416033237,1697,0,4.9730196883364,1.8144185790759781,36.48524825533009,0.2044897876268427,0.07460860667245083,0.0859375,,
4.1919550000010055,1200,,,,-0.0625,0.05078125,-1.005859375,0.010211543899798841,0.37103006990144444,23.066504232428052,0.21598782462084853,1697,0,4.982084070769731,1.8146934672936357,36.42438468552912,0.20445881168833682,0.07447286409282138,0.087890625,,
4.198920000000856,1200,,,,-0.09375,0.064453125,-0.943359375,0.010211543899798841,0.37103006990144444,23.066313169453917,0.2161347170229306,1696,0,4.98543106964222,1.813674165966627,36.3794853570563,0.20457371939446356,0.07442286629149432,0.087890625,,
4.206,1200,,,,0,0.03515625,-0.8984375,0.010211543899798841,0.3919223281254588,23.06621397607977,0.21571835127009972,1696,0,4.975805648963259,1.813221015379637,36.44075237861095,0.21614702499099447,0.07876560215070263,0.087890625,,
4.214440000001341,1200,,,,0,0.01953125,-0.90625,0.010211543899798841,0.3919223281254588,23.066036677474564,0.21547094419390056,1695,0,4.970060701706585,1.813005022639329,36.47852876357812,0.21617277571294738,0.07885664816747273,0.087890625,,
4.2215000000009315,1200,,,,-0.0625,0.037109375,-0.98046875,0.010211543899798841,0.3919223281254588,23.066035162116815,0.2150773514458404,1695,0,4.96098175102471,1.812656499616911,36.53826179147907,0.21621433967676068,0.07900096146181261,0.0859375,,
4.229879999999889,1200,,,,-0.03125,0.05078125,-1.005859375,0.010211543899798841,0.3919223281254588,23.066326472730335,0.21624469670791985,1694,0,4.987970772261434,1.8119184888278999,36.32576395403409,0.21630240573293497,0.07857350133344307,0.0859375,,
4.238800000000745,1200,,,,-0.125,0.06640625,-1.01953125,0.010211543899798841,0.3919223281254588,23.066345139549853,0.21665790417456937,1694,0,4.997505994902136,1.8116088809709112,36.25025928570971,0.21633937227963493,0.07842358338844448,0.087890625,,
4.246840000000782,1200,,,,-0.0625,0.052734375,-0.943359375,0.010211543899798841,0.3919223281254588,23.06649234791946,0.21700921335435133,1695,0,5.005641359266167,1.8124326230725554,36.20780021959584,0.21624104705257746,0.07829612630955948,0.0859375,,
4.254100000000559,1200,,,,-0.03125,0.052734375,-0.966796875,0.010211543899798841,0.3919223281254588,23.06646879269839,0.21712646356150514,1697,0,5.0083407958104225,1.814586593800498,36.23129231378256,0.2159843622037407,0.0782539256220962,0.0859375,,
4.262180000000633,1200,,,,0,0.03515625,-0.9140625,0.010211543899798841,0.3919223281254588,23.066537324593902,0.21824899464671846,1698,0,5.034248581073626,1.8154165316530395,36.06132081912165,0.21588562255109098,0.07785120695050694,0.0859375,,
4.269745000001043,1200,,,,-0.03125,0.017578125,-0.9921875,0.010211543899798841,0.3919223281254588,23.06654368044346,0.2178839893856169,1698,0,5.025830558432611,1.8157862706810743,36.12907855865633,0.21584166289485965,0.07798160394959402,0.0859375,,
4.282195000001229,1200,,,,0,0.00390625,-0.984375,0.010211543899798841,0.3919223281254588,23.066652335889735,0.2160581940159713,1694,0,4.983739245686622,1.8119884140147926,36.35801001392782,0.21629405855696562,0.07864021546967245,0.0859375,,
4.296385000000708,1200,,,,0,0,-0.96875,0.010211543899798841,0.3919223281254588,23.066773905848795,0.21478209128160716,1694,0,4.95432993861821,1.8112890267514345,36.55971744297298,0.21637757549294911,0.07910703021017775,0.0859375,,
4.303214999999851,1200,,,,-0.03125,0.0546875,-0.958984375,0.010211543899798841,0.3919223281254588,23.066825435210827,0.21415785210750407,1694,0,4.939941790143494,1.8118471378558598,36.677499752547284,0.21631092377321617,0.07933743853165412,0.0859375,,
4.311880000000819,1200,,,,0.0625,-0.04296875,-0.8359375,0.010211543899798841,0.3919223281254588,23.066875153857847,0.21438173738335473,1695,0,4.945116771488983,1.8120964971713192,36.64415990374467,0.21628115761895084,0.07925441323955841,0.0859375,,
4.319050000000745,1200,,,,-0.03125,0.056640625,-1.009765625,0.010211543899798841,0.3919223281254588,23.06693672436965,0.21465899131769373,1695,0,4.951525370042256,1.812223221248844,36.599291850813614,0.2162660336376091,0.07915183682520731,0.0859375,,
4.327610000000336,1200,,,,0,-0.03125,-0.96875,0.010211543899798841,0.3919223281254588,23.066988972910003,0.21297722237411323,1695,0,4.912743239984672,1.8120927214117009,36.88555727201723,0.216281608272304,0.07977667648812065,0.0859375,,
4.335715000000782,1200,,,,-0.09375,0.0859375,-1.0390625,0.0100599208242093,0.3919223281254588,23.06704245431822,0.21435250830751895,1695,0,4.944478409319139,1.7851337164126504,36.103579966050766,0.21954788289644422,0.07926464546528925,0.0859375,,
4.344120000001043,1200,,,,-0.03125,0.015625,-0.9375,0.0100599208242093,0.3919223281254588,23.06734122147199,0.2139764986241937,1695,0,4.935868907140109,1.7851152643314756,36.16618062422952,0.2195501522823141,0.07940290463519269,0.0859375,,
4.352155000001192,1200,,,,-0.0625,0.05078125,-0.9453125,0.0100599208242093,0.4000590870361158,23.067447265490788,0.2135746838708613,1693,0,4.926622757434958,1.7836829825078544,36.20498402919178,0.22428822327700498,0.08120351541679766,0.0859375,,
4.369430000000634,1200,,,,-0.0625,0.06640625,-1.0390625,0.0100599208242093,0.4000590870361158,23.06727090290468,0.21228053009249823,1692,0,4.896732495055866,1.7829654629788447,36.411330714493175,0.2243784836795028,0.08169919174470887,0.083984375,,
4.390879999999888,1200,,,,-0.08203125,0.052734375,-0.986328125,0.0100599208242093,0.4000590870361158,23.067371058793842,0.21273288876313773,1695,0,4.907188481508413,1.7853909205126912,36.383173934331595,0.22407366501070547,0.08152511128187646,0.0859375,,
4.412375,1200,,,,-0.01953125,0.05859375,-0.96875,0.0100599208242093,0.4000590870361158,23.067201285084607,0.2145542652249889,1695,0,4.949166422518248,1.7854445129744905,36.07566124369719,0.2240669391453845,0.08083362992521005,0.083984375,,
4.419825000000186,1200,,,,0,0.015625,-0.99609375,0.0100599208242093,0.4000590870361158,23.0672920150409,0.21476255970408906,1695,0,4.953990678591878,1.785411335796575,36.03986062210477,0.22407110284063836,0.08075491315817909,0.083984375,,
4.426900000000373,1200,,,,-0.09375,0.06640625,-0.9921875,0.0100599208242093,0.4000590870361158,23.067064829172818,0.21412530547629297,1696,0,4.939242302988084,1.7869876781085718,36.17938883110677,0.22387344464487655,0.08099604402766249,0.083984375,,
4.434020000000484,1200,,,,-0.125,0.10546875,-1.046875,0.0100599208242093,0.4000590870361158,23.067277173325778,0.21379445391103027,1697,0,4.931655926485559,1.7876775301106027,36.24903190244567,0.22378705348014546,0.08112064040956109,0.0859375,,
4.4414400000004095,1200,,,,0,0.001953125,-0.92578125,0.0100599208242093,0.4000590870361158,23.06711640665527,0.2134328261668992,1697,0,4.9232798461932825,1.7880024076848107,36.31730195201696,0.22374639168083174,0.08125865267347022,0.0859375,,
4.44969000000041,1200,,,,-0.125,0.109375,-0.9765625,0.0100599208242093,0.4000590870361158,23.06728929174364,0.21435970798494833,1697,0,4.944697396582493,1.7874472431268378,36.14876907052441,0.2238158852376979,0.08090668749772534,0.0859375,,
4.457730000000447,1200,,,,0.03125,-0.017578125,-0.90234375,0.0100599208242093,0.4000590870361158,23.06722538547444,0.21461256717613203,1696,0,4.950516457607112,1.7865345943471118,36.08784274622236,0.22393022127977164,0.08081158611671174,0.0859375,,
4.4718750000009315,1200,,,,-0.0625,0.0078125,-0.94921875,0.0100599208242093,0.4000590870361158,23.067145245256537,0.21389770892648222,1696,0,4.934009519434771,1.786208365330721,36.20196431107301,0.22397111938396047,0.08108194470649212,0.0859375,,
4.482860000000335,1200,,,,-0.0625,0.0625,-1.013671875,0.009726452310008215,0.4000590870361158,23.06691099295017,0.21601499151439413,1695,0,4.982798582405415,1.7266566724393462,34.65234734826093,0.2316957930443286,0.08028803099702854,0.0859375,,
4.490395000001415,1200,,,,-0.03125,0.03125,-0.986328125,0.009726452310008215,0.4000590870361158,23.066971669738216,0.21717350352114592,1695,0,5.009535053140065,1.7265399199837514,34.46507313890389,0.23171146082731803,0.0798595244453578,0.0859375,,
4.498895000000484,1200,,,,-0.0625,0.08203125,-0.98046875,0.009726452310008215,0.3868363612430064,23.067089712059612,0.21685372404890974,1695,0,5.0021843070304195,1.7264173568559404,34.51326962162335,0.2240688554866549,0.0773334882321948,0.0859375,,
4.507195000000298,1200,,,,0,0.04296875,-0.908203125,0.009726452310008215,0.3868363612430064,23.06713469327185,0.21698200968102624,1695,0,5.005153243329048,1.7262869505021214,34.49019173994214,0.2240857819903511,0.07728761587042084,0.083984375,,
4.515040000000969,1200,,,,0,0.0625,-0.9921875,0.009726452310008215,0.3868363612430064,23.067242226721984,0.2168904927243014,1695,0,5.003065532344542,1.7262360737111395,34.50356711402476,0.2240923863972836,0.07731986693800645,0.083984375,,
4.522794999999926,1200,,,,-0.03125,0.0078125,-0.986328125,0.009726452310008215,0.3868363612430064,23.06727954224419,0.21877786465967217,1695,0,5.046610161759924,1.726824119470265,34.21750569431863,0.22401607487488395,0.07665271317650252,0.083984375,,
4.530790000000969,1200,,,,-0.09375,0.072265625,-1,0.009726452310008215,0.3868363612430064,23.067184816799475,0.22399396338897432,1697,0,5.166910151340886,1.728265014351185,33.44871429402882,0.22382930744462834,0.07486802555345712,0.083984375,,
4.53894000000041,1200,,,,-0.0625,0.02734375,-0.94140625,0.009726452310008215,0.3868363612430064,23.067029152679634,0.2275894321040297,1697,0,5.249812065185456,1.7288369277025617,32.93140604341783,0.22375526288478254,0.07368575416410472,0.083984375,,
4.546980000000447,1200,,,,0,0.01171875,-0.935546875,0.009726452310008215,0.3868363612430064,23.067077007778302,0.22462337616699615,1698,0,5.1814047157912535,1.729064166645472,33.37056766432163,0.22372585627837113,0.0746585882519568,0.083984375,,
4.555040000000969,1200,,,,-0.09375,0.060546875,-0.919921875,0.009726452310008215,0.3868363612430064,23.067220955500805,0.22404760558030098,1705,0,5.168155622471698,1.7365214374599696,33.600409204192445,0.2227650939966722,0.0748499831469858,0.083984375,,
4.562875000000932,1200,,,,-0.0625,0.1015625,-1,0.009726452310008215,0.3868363612430064,23.067193947433932,0.22297595864675313,1708,0,5.1434296837196625,1.7394398428704916,33.81867644416888,0.22239134214876555,0.07520980844113559,0.083984375,,
4.572035000000149,1200,,,,0.03125,0.01953125,-0.91015625,0.009726452310008215,0.3868363612430064,23.06723820019851,0.22064015524330777,1709,0,5.089559017526159,1.7406651290801474,34.200706251486174,0.22223479679140218,0.07600587003921469,0.083984375,,
4.580710000000894,1200,,,,-0.03125,0.05078125,-0.94140625,0.009726452310008215,0.3868363612430064,23.06728065907903,0.21984896013715532,1711,0,5.07131766609044,1.7429058274801863,34.36790874163125,0.22194908935629457,0.07627926048285291,0.083984375,,
4.587775000000373,1200,,,,-0.0625,0.03515625,-1.015625,0.009726452310008215,0.3868363612430064,23.06708539449793,0.21909771671350978,1712,0,5.053945741170047,1.7435910803070716,34.49960030444272,0.22186186062323682,0.0765414551430165,0.083984375,,
4.595680000000633,1200,,,,-0.03125,0.0078125,-0.951171875,0.009726452310008215,0.3868363612430064,23.06695232957544,0.21798866359955563,1712,0,5.028334111638807,1.7438979929875225,34.681426378390775,0.22182281463625392,0.07693131614854665,0.083984375,,
4.604844999999739,1200,,,,-0.09375,0.05859375,-0.986328125,0.009726452310008215,0.3868363612430064,23.066935009613374,0.21675828713492468,1711,0,4.999949322136422,1.7423125922226972,34.84660503475317,0.22202466019574182,0.07736805641816297,0.083984375,,
4.612840000000782,1200,,,,-0.0625,0.0703125,-1.0546875,0.009726452310008215,0.3868363612430064,23.067182982250714,0.21646496144591199,1709,0,4.993236874918698,1.7410596735029311,34.8683572823947,0.22218443579518998,0.0774720628989397,0.083984375,,
4.622505000000819,1200,,,,0,0.001953125,-0.947265625,0.009726452310008215,0.3868363612430064,23.067218534921945,0.2160286989251661,1709,0,4.983181207921664,1.7405960373588816,34.92941486036853,0.2222436182435404,0.0776283954169799,0.083984375,,
4.631465000000782,1200,,,,-0.0625,0.0703125,-0.984375,0.00955631639435168,0.3868363612430064,23.06737019565977,0.2159628571796445,1706,0,4.981695175075259,1.7069696658385562,34.26483568041211,0.22662169632227847,0.07765155186099126,0.083984375,,
4.638760000000707,1200,,,,0,0.017578125,-0.908203125,0.00955631639435168,0.3868363612430064,23.06745604116673,0.21516722438832422,1704,0,4.963360490077527,1.7054899175160045,34.36159676343326,0.22681832197895493,0.07793839718399422,0.083984375,,
4.645730000000447,1200,,,,-0.0625,0.078125,-1.0546875,0.00955631639435168,0.3868363612430064,23.067308439248084,0.21507207857952218,1704,0,4.961133973264039,1.7048593593694295,34.364308010165765,0.22690221285237525,0.07797337530647218,0.083984375,,
4.653420000000857,1200,,,,-0.0625,0.0546875,-1.0078125,0.00955631639435168,0.3810638694514781,23.067338704272103,0.21526347463502687,1701,0,4.965555480064651,1.7021231217099715,34.27860444905975,0.22387562015411505,0.07674143829050857,0.083984375,,
4.661075000000186,1200,,,,-0.0625,0.029296875,-0.96484375,0.00955631639435168,0.3810638694514781,23.067272823906208,0.2141857904690647,1700,0,4.9406820637539255,1.7008586667370371,34.42558425718101,0.22404205411289052,0.07712778611015218,0.083984375,,
4.669035000000149,1200,,,,-0.09375,0.06640625,-1.029296875,0.00955631639435168,0.3810638694514781,23.067243320606718,0.21317303415504985,1699,0,4.917314248246541,1.700365512688777,34.57915087072396,0.2241070326396495,0.07749430892836699,0.083984375,,
4.677155000000261,1200,,,,0,0.0078125,-0.921875,0.00955631639435168,0.3810638694514781,23.067215049114957,0.21220256196096007,1698,0,4.8949221307266075,1.699734062845816,34.72443518919688,0.22419028822277867,0.07784881133439248,0.083984375,,
4.685530000001192,1200,,,,-0.0625,0.08984375,-0.97265625,0.00955631639435168,0.3810638694514781,23.067252974073696,0.21255217845763505,1698,0,4.9029948706727255,1.6992716540748027,34.65783054840624,0.2242512952756543,0.0777206339192424,0.083984375,,
4.694285000001081,1200,,,,0,-0.00390625,-0.935546875,0.00955631639435168,0.3810638694514781,23.06707240066786,0.21317624602872948,1698,0,4.9173519012472875,1.6990732903518295,34.55260726654237,0.22427747620738045,0.07749371554124918,0.083984375,,
4.701790000000037,1200,,,,-0.0625,0.078125,-1.05859375,0.00955631639435168,0.3810638694514781,23.06711815343512,0.21284356415173722,1698,0,4.909687642486371,1.69906144083972,34.606304200225644,0.22427904035250573,0.07761468696173494,0.083984375,,
4.710170000000857,1200,,,,-0.0625,0.041015625,-0.958984375,0.00955631639435168,0.3810638694514781,23.06716136157577,0.21316680025392296,1698,0,4.917152978388032,1.699165321270916,34.555876718481635,0.22426532879476124,0.07749685054061518,0.083984375,,
4.719330000000075,1200,,,,-0.09375,0.078125,-1.05859375,0.00955631639435168,0.3810638694514781,23.0669882185799,0.2132733342922446,1698,0,4.919573489456459,1.6992088164357493,34.53975878350965,0.2242595882069371,0.07745872081556811,0.083984375,,
4.727490000000223,1200,,,,-0.0625,0.03125,-0.953125,0.00955631639435168,0.3810638694514781,23.067044115311806,0.21313514327655633,1698,0,4.916397752483627,1.69910905515232,34.56004051531383,0.22427275535725802,0.07750875511627903,0.083984375,,
4.73609500000067,1200,,,,-0.0625,0.09765625,-0.98828125,0.00955631639435168,0.3810638694514781,23.06702569277258,0.21259507849140213,1698,0,4.903936137718176,1.6990213303320736,34.64607373787367,0.22428433513368495,0.0777057161329162,0.083984375,,
4.757235000000335,1200,,,,-0.041015625,0.072265625,-1.03125,0.00955631639435168,0.3810638694514781,23.06694121915351,0.2107647410301504,1696,0,4.861697892412591,1.6976219140383018,34.9182929833566,0.22446922150351112,0.07838082042205571,0.083984375,,
4.766169999999925,1200,,,,-0.125,0.0390625,-1.01953125,0.00955631639435168,0.3810638694514781,23.06699444830543,0.21054709359078405,1696,0,4.856688638965459,1.6967969887752241,34.937322832716426,0.22457835084121422,0.07846166344578553,0.0859375,,
4.777270000000485,1200,,,,-0.0625,0.056640625,-1.017578125,0.00955631639435168,0.3810638694514781,23.067043682171104,0.20992059188757314,1695,0,4.842247462857863,1.6964819826422743,35.03501206113538,0.22462005099398125,0.07869566195746978,0.0859375,,
4.794290000000968,1200,,,,0.03125,0,-0.91015625,0.009590549527463915,0.3810638694514781,23.067088499177146,0.2101588847105445,1695,0,4.847753592506497,1.7021355488011738,35.111841316198095,0.22387398566457536,0.07860627859479377,0.0859375,,
4.803170000000857,1200,,,,-0.0625,0.041015625,-0.98828125,0.009590549527463915,0.38348811227553337,23.067027806949582,0.21104150678364825,1695,0,4.868100305398953,1.7022179471476009,34.966780476149204,0.2252873158329359,0.07877572116791164,0.083984375,,
4.811660000000149,1200,,,,0,0.00390625,-0.98828125,0.009590549527463915,0.38348811227553337,23.06707508915024,0.21123922710279716,1695,0,4.872671113354283,1.7022991673949592,34.93564674885514,0.2252765669047398,0.0787018256217882,0.083984375,,
4.820205000000074,1200,,,,-0.0625,0.04296875,-1.03125,0.009590549527463915,0.38348811227553337,23.06712687648476,0.21072735310921892,1695,0,4.8608745905161586,1.7023338394515561,35.021142960011886,0.22527197861441936,0.0788928216794032,0.083984375,,
