Time (s),ESC signal (µs),Servo 1 (µs),Servo 2 (µs),Servo 3 (µs),AccX (g),AccY (g),AccZ (g),Torque (N·m),Thrust (N),Voltage (V),Current (A),Motor Electrical Speed (RPM),Motor Optical Speed (RPM),Electrical Power (W),Mechanical Power (W),Motor Efficiency (%),Propeller Mech. Efficiency (N/W),Overall Efficiency (N/W),Vibration (g),App message,90% settling time (s),Max acceleration (RPM/s),
0,1000,,,,-0.0625,0.01171875,-1.05078125,-0.0004395448221962465,-0.013745744897085235,23.07854546633523,0.08517440022941977,0,0,1.965701268262498,0,0,0,0,0.099609375,,
0,1000,,,,-0.0625,0.080078125,-0.9765625,-0.0004395448221962465,-0.013745744897085235,23.07899294001312,0.0853521695962777,0,0,1.9698421195272955,0,0,0,0,0.099609375,,
0.008235000000335276,1000,,,,-0.03125,0.09375,-0.953125,-0.0004395448221962465,-0.013745744897085235,23.07899344236616,0.08590530328679909,0,0,1.982607931220512,0,0,0,0,0.09765625,,
0.01610499999951571,1000,,,,0,0.078125,-0.90234375,-0.0002857125611186233,-0.013745744897085235,23.079042384688393,0.0860673597981236,0,0,1.9863522447191204,0,0,0,0,0.09765625,,
0.024115000000223517,1000,,,,0,0.0859375,-0.888671875,-0.0002857125611186233,-0.013745744897085235,23.078957655500123,0.08708553530600033,0,0,2.0098433817337424,0,0,0,0,0.09765625,,
0.03261500000022352,1000,,,,0,0.16015625,-0.900390625,-0.0002857125611186233,-0.013745744897085235,23.07910726012888,0.08719149745941285,0,0,2.012301922037044,0,0,0,0,0.09765625,,
0.04014999999944121,1000,,,,0,0.16796875,-0.85546875,-0.0002857125611186233,-0.013745744897085235,23.079020161485932,0.08707900509263981,0,0,2.0096981141751704,0,0,0,0,0.09765625,,
0.048054999999701975,1000,,,,0,0.169921875,-0.84765625,-0.0002857125611186233,-0.013745744897085235,23.078873046554733,0.08655008165371839,0,0,1.9974783466551125,0,0,0,0,0.099609375,,
0.056234999999403956,1000,,,,0,0.169921875,-0.83984375,-0.0002857125611186233,-0.013745744897085235,23.078993791145,0.08625639125338685,0,0,1.990710718183489,0,0,0,0,0.099609375,,
0.06425499999988823,1000,,,,0,0.16796875,-0.84375,-0.0002857125611186233,-0.013745744897085235,23.078912065861115,0.08683063311613966,0,0,2.003956546310435,0,0,0,0,0.1015625,,
0.07195999999996275,1000,,,,0,0.158203125,-0.818359375,-0.0002857125611186233,-0.013745744897085235,23.079258735217337,0.08822181372642512,0,0,2.0360940650823136,0,0,0,0,0.1015625,,
0.07908499999903143,1000,,,,0,0.15234375,-0.796875,-0.0002857125611186233,-0.013745744897085235,23.079116309311075,0.08788719295390644,0,0,2.0283587482820717,0,0,0,0,0.103515625,,
0.08834499999973923,1000,,,,0,0.107421875,-0.783203125,-0.0002857125611186233,-0.013745744897085235,23.079357353425664,0.08763297148369588,0,0,2.0225126648147778,0,0,0,0,0.103515625,,
0.0960699999993667,1000,,,,0,0.06640625,-0.833984375,-0.0002857125611186233,-0.013745744897085235,23.0795338320926,0.08818205454772371,0,0,2.0352007113176245,0,0,0,0,0.103515625,,
0.10347499999962748,1000,,,,0,0.0625,-0.84765625,-0.0002857125611186233,-0.012816654194158667,23.079359595399044,0.08908988560530501,0,0,2.0561375061977993,0,0,0,0,0.10546875,,
0.11288999999966473,1000,,,,-0.0625,0.1171875,-0.859375,-0.0002857125611186233,-0.012816654194158667,23.079199157500558,0.08785423149930487,0,0,2.027605305601616,0,0,0,0,0.10546875,,
0.11949000000022351,1000,,,,-0.0625,0.0546875,-0.81640625,-0.0002857125611186233,-0.012816654194158667,23.07918934255798,0.0882484266938467,0,0,2.036702148850136,0,0,0,0,0.10546875,,
0.12689499999955298,1000,,,,-0.0625,0.052734375,-0.830078125,-0.0002857125611186233,-0.012816654194158667,23.079310970834207,0.08829141996270212,0,0,2.0377051373757213,0,0,0,0,0.10546875,,
0.13568499999959022,1000,,,,-0.0625,0.0546875,-0.841796875,-0.0002857125611186233,-0.012816654194158667,23.079349108091414,0.08858349979915273,0,0,2.0444495170811914,0,0,0,0,0.10546875,,
0.14568499999959023,1000,,,,0,0,-0.8515625,-0.0002857125611186233,-0.012816654194158667,23.079290057503968,0.08918229767978952,0,0,2.0582641161465256,0,0,0,0,0.10546875,,
0.1540449999999255,1000,,,,0,0.00390625,-0.884765625,-0.0002857125611186233,-0.012816654194158667,23.07927119080053,0.08833190186568418,0,0,2.0386359179573046,0,0,0,0,0.10546875,,
0.1617299999995157,1000,,,,0,0.017578125,-0.9140625,-0.0002514716337984197,-0.012816654194158667,23.07949030992989,0.08897721934867087,0,0,2.0535488717621555,0,0,0,0,0.10546875,,
0.17003000000026078,1000,,,,0,0.029296875,-0.912109375,-0.0002514716337984197,-0.012816654194158667,23.07951684503097,0.08809035941222382,0,0,2.033082933939252,0,0,0,0,0.103515625,,
0.17742999999970197,1000,,,,0,0.03515625,-0.90234375,-0.0002514716337984197,-0.012816654194158667,23.079449582546427,0.08843036140915901,0,0,2.0409240677090446,0,0,0,0,0.103515625,,
0.1854899999992922,1000,,,,0,0.04296875,-0.904296875,-0.0002514716337984197,-0.012816654194158667,23.079670240689776,0.08846971559531619,0,0,2.041851862227507,0,0,0,0,0.103515625,,
0.19351999999955297,1000,,,,0,0.046875,-0.8984375,-0.0002514716337984197,-0.012816654194158667,23.079686512733502,0.089146591406424,0,0,2.0574753833390083,0,0,0,0,0.103515625,,
0.20120999999996275,1000,,,,0,0.02734375,-0.927734375,-0.0002514716337984197,-0.012816654194158667,23.07957005824243,0.08786250491734317,0,0,2.027828837732492,0,0,0,0,0.1015625,,
0.20975,1000,,,,-0.03125,0.029296875,-0.95703125,-0.0002514716337984197,-0.012816654194158667,23.079687813598376,0.08792930375207496,0,0,2.0293808802649544,0,0,0,0,0.1015625,,
0.21707499999925495,1000,,,,-0.0625,0.05078125,-0.94140625,-0.0002514716337984197,-0.012816654194158667,23.079963913886825,0.08735686065317191,0,0,2.0161931915056477,0,0,0,0,0.1015625,,
0.22551499999966473,1000,,,,-0.0625,0.05078125,-0.94921875,-0.0002514716337984197,-0.012816654194158667,23.080064778057313,0.08648250061606282,0,0,1.9960217163871112,0,0,0,0,0.099609375,,
0.23295999999903141,1000,,,,-0.0625,0.05078125,-0.953125,-0.0002514716337984197,-0.012816654194158667,23.07999743118041,0.08536015775495198,0,0,1.9701122217094462,0,0,0,0,0.099609375,,
0.24151999999955295,1000,,,,-0.0625,0.05078125,-0.955078125,-0.0002514716337984197,-0.012816654194158667,23.07969710204555,0.08522850940878086,0,0,1.9670481816135017,0,0,0,0,0.099609375,,
0.249464999999851,1000,,,,-0.0625,0.048828125,-0.955078125,-0.0002514716337984197,-0.012816654194158667,23.07951625468457,0.08521253168369955,0,0,1.9666640100967676,0,0,0,0,0.099609375,,
0.2568849999997765,1000,,,,-0.0625,0.05078125,-0.95703125,-0.0002514716337984197,-0.010772422208638084,23.079636319664125,0.08414943632912396,0,0,1.942138386980913,0,0,0,0,0.09765625,,
0.26546499999891965,1000,,,,-0.0625,0.05078125,-0.95703125,-0.0002514716337984197,-0.010772422208638084,23.079654507199074,0.0837547056683296,0,0,1.933029670177195,0,0,0,0,0.09765625,,
0.2733899999987334,1000,,,,-0.0625,0.046875,-0.953125,-0.0002514716337984197,-0.010772422208638084,23.079865231532093,0.08402071390902752,0,0,1.9391867536774692,0,0,0,0,0.09765625,,
0.28151999999955296,1000,,,,-0.0625,0.048828125,-0.95703125,-0.0002514716337984197,-0.010772422208638084,23.079772970684544,0.0839569236663467,0,0,1.9377067375363741,0,0,0,0,0.09765625,,
0.2894150000000372,1000,,,,-0.0625,0.046875,-0.955078125,-0.0002514716337984197,-0.010772422208638084,23.079978962933264,0.08358009053331412,0,0,1.9290267312289477,0,0,0,0,0.095703125,,
0.301484999999404,1000,,,,-0.0625,0.046875,-0.95703125,-0.0002514716337984197,-0.010772422208638084,23.08020019874932,0.08269753556005573,0,0,1.9086756766692772,0,0,0,0,0.095703125,,
0.3093349999999627,1000,,,,-0.0625,0.05078125,-0.95703125,-0.0002514716337984197,-0.010772422208638084,23.080186852178944,0.08160523071269654,0,0,1.883463972964208,0,0,0,0,0.095703125,,
0.3283499999996275,1000,,,,-0.0625,0.05078125,-0.95703125,-0.00037766219939405836,-0.010772422208638084,23.079934358391196,0.08099311016749673,0,0,1.869315666147771,0,0,0,0,0.09375,,
0.33624499999918045,1000,,,,-0.0625,0.05078125,-0.95703125,-0.00037766219939405836,-0.010772422208638084,23.079937580761577,0.08014390109465598,0,0,1.8497162347433895,0,0,0,0,0.09375,,
0.344839999999851,1000,,,,-0.0625,0.046875,-0.95703125,-0.00037766219939405836,-0.010772422208638084,23.080202919326727,0.07952430433837203,0,0,1.8354370811479213,0,0,0,0,0.09375,,
0.35236999999918045,1000,,,,-0.0625,0.046875,-0.953125,-0.00037766219939405836,-0.010772422208638084,23.080193075392476,0.07936261448451373,0,0,1.8317044652705166,0,0,0,0,0.09375,,
0.36057499999925496,1000,,,,-0.0625,0.05078125,-0.953125,-0.00037766219939405836,-0.010772422208638084,23.080183730483316,0.07963328569225427,0,0,1.8379508648392968,0,0,0,0,0.091796875,,
0.36832499999925494,1000,,,,-0.0625,0.05078125,-0.953125,-0.00037766219939405836,-0.010772422208638084,23.08017484763313,0.07883081077862666,0,0,1.8194288961513858,0,0,0,0,0.091796875,,
0.37649499999918046,1000,,,,-0.0625,0.048828125,-0.95703125,-0.00037766219939405836,-0.010772422208638084,23.08006804229967,0.078702524371555,0,0,1.8164596175962375,0,0,0,0,0.091796875,,
0.3845,1000,,,,-0.0625,0.05078125,-0.95703125,-0.00037766219939405836,-0.010772422208638084,23.079998824532304,0.07879442214972879,0,0,1.8185751705954425,0,0,0,0,0.091796875,,
0.3917000000001863,1000,,,,-0.0625,0.05078125,-0.95703125,-0.00037766219939405836,-0.010772422208638084,23.080189747568337,0.07867161452375034,0,0,1.8157557909557107,0,0,0,0,0.091796875,,
0.400804999999702,1000,,,,-0.0625,0.05078125,-0.955078125,-0.00037766219939405836,-0.010772422208638084,23.079982905110462,0.07919318183535706,0,0,1.8277772829613455,0,0,0,0,0.08984375,,
0.4077149999989197,1000,,,,-0.09375,0.08203125,-0.982421875,-0.00037766219939405836,-0.011436396459024775,23.079918015967767,0.07926078512161848,0,0,1.8293324224881922,0,0,0,0,0.08984375,,
0.41633000000007453,1000,,,,-0.03125,0.025390625,-0.98046875,-0.00037766219939405836,-0.011436396459024775,23.08011901521337,0.07943153067463969,0,0,1.8332891815312555,0,0,0,0,0.08984375,,
0.4229900000002235,1000,,,,0,0.04296875,-1,-0.00037766219939405836,-0.011436396459024775,23.08017125952582,0.07985331324470438,0,0,1.8430281453283384,0,0,0,0,0.08984375,,
0.431410000000149,1000,,,,-0.03125,0.037109375,-0.984375,-0.00037766219939405836,-0.011436396459024775,23.080555031027732,0.07935620540304547,0,0,1.8315852658585312,0,0,0,0,0.08984375,,
0.43927999999932943,1000,,,,-0.0625,0.0625,-0.97265625,-0.00037766219939405836,-0.011436396459024775,23.08079614563107,0.07941701359729196,0,0,1.8330079013339065,0,0,0,0,0.08984375,,
0.44792999999877064,1000,,,,-0.0625,0.083984375,-1.013671875,-0.00037766219939405836,-0.011436396459024775,23.080660817843295,0.08115353179007839,0,0,1.8730771414168625,0,0,0,0,0.08984375,,
0.4582299999995157,1000,,,,-0.0625,0.033203125,-0.96484375,-0.00037766219939405836,-0.011436396459024775,23.080624909320832,0.08265773522787126,0,0,1.9077921826484514,0,0,0,0,0.08984375,,
0.46642499999981374,1000,,,,-0.03125,0.060546875,-0.98828125,-0.0003959772924753853,-0.011436396459024775,23.080225966324647,0.08383915177455654,0,0,1.935026567781753,0,0,0,0,0.08984375,,
0.474464999999851,1000,,,,-0.0625,0.03125,-1.0390625,-0.0003959772924753853,-0.011436396459024775,23.080015097100482,0.08454120046917346,0,0,1.9512121831555218,0,0,0,0,0.08984375,,
0.4825,1000,,,,0,0.015625,-0.9765625,-0.0003959772924753853,-0.011436396459024775,23.079818675193447,0.08349650413511786,0,0,1.9270841754510601,0,0,0,0,0.08984375,,
0.4905049999998882,1000,,,,-0.09375,0.0859375,-0.974609375,-0.0003959772924753853,-0.011436396459024775,23.079827608460544,0.08420013210714576,0,0,1.9433245336425278,0,0,0,0,0.08984375,,
0.4985749999992549,1000,,,,0,0.0078125,-0.9453125,-0.0003959772924753853,-0.011436396459024775,23.07996776295654,0.0846633499644401,0,0,1.954027387883185,0,0,0,0,0.08984375,,
0.5061849999995902,1000,,,,-0.03125,0.0390625,-1.001953125,-0.0003959772924753853,-0.011436396459024775,23.07964498684527,0.08509730696586101,0,0,1.9640156341086672,0,0,0,0,0.08984375,,
0.514589999999851,1000,,,,-0.03125,0.0234375,-0.9765625,-0.0003959772924753853,-0.011436396459024775,23.079563478871343,0.08594838599541245,0,0,1.9836512304876583,0,0,0,0,0.087890625,,
0.5226149999992922,1000,,,,-0.0625,0,-0.9609375,-0.0003959772924753853,-0.011436396459024775,23.07965041557014,0.08653564363396041,0,0,1.9972124035581638,0,0,0,0,0.087890625,,
0.5314049999993294,1000,,,,-0.0625,0.046875,-0.953125,-0.0003959772924753853,-0.011436396459024775,23.079523612881946,0.08692151117177688,0,0,2.0061070695564065,0,0,0,0,0.087890625,,
0.5409599999990314,1000,,,,-0.03125,0.04296875,-1.00390625,-0.0003959772924753853,-0.011436396459024775,23.079351130865533,0.08607899739186345,0,0,1.986647405799675,0,0,0,0,0.087890625,,
0.5496149999992922,1000,,,,-0.0625,0.021484375,-0.978515625,-0.0003959772924753853,-0.011436396459024775,23.07939206685895,0.08737019646121068,0,0,2.0164510190867735,0,0,0,0,0.087890625,,
0.5571699999999254,1000,,,,0.0625,0,-0.984375,-0.0003959772924753853,-0.01170849037654314,23.079357861313408,0.08745870379378533,0,0,2.01849072294338,0,0,0,0,0.087890625,,
0.5644799999995157,1000,,,,-0.0625,0.060546875,-1,-0.0003959772924753853,-0.01170849037654314,23.07938560508559,0.08753548749462008,0,0,2.020265270017484,0,0,0,0,0.087890625,,
0.5725400000000372,1000,,,,-0.0625,0.046875,-0.96875,-0.0003959772924753853,-0.01170849037654314,23.079350269584044,0.08826172554334301,0,0,2.0370232792127063,0,0,0,0,0.087890625,,
0.5804349999995903,1000,,,,-0.0625,0.056640625,-1.015625,-0.0003959772924753853,-0.01170849037654314,23.07938197108501,0.08830940086975947,0,0,2.0381263943108454,0,0,0,0,0.087890625,,
0.5887649999996647,1000,,,,-0.03125,0.0546875,-0.986328125,-0.0003959772924753853,-0.01170849037654314,23.079281750404117,0.08814269533909863,0,0,2.034270099971089,0,0,0,0,0.087890625,,
0.5963549999995157,1000,,,,0,0.01171875,-1.03515625,-0.0003959772924753853,-0.01170849037654314,23.07918561857538,0.08841126398717428,0,0,2.040459972332864,0,0,0,0,0.087890625,,
0.6037549999998882,1000,,,,-0.03125,0.013671875,-0.94921875,-0.0003959772924753853,-0.01170849037654314,23.079047618015583,0.08901094493513717,0,0,2.054287836682594,0,0,0,0,0.087890625,,
0.613125,1000,,,,-0.125,0.078125,-0.96875,-0.0005445135137453683,-0.01170849037654314,23.078897345812308,0.08902235534271104,0,0,2.054537800436854,0,0,0,0,0.087890625,,
0.6341949999993667,1000,,,,-0.041015625,0.044921875,-0.99609375,-0.0005445135137453683,-0.01170849037654314,23.079266439774837,0.09081135050522829,0,0,2.095859354065945,0,0,0,0,0.087890625,,
0.6418199999993667,1000,,,,-0.0625,0.0546875,-0.9765625,-0.0005445135137453683,-0.01170849037654314,23.079092434320668,0.09049671446041062,0,0,2.0885820380341404,0,0,0,0,0.087890625,,
0.6492799999993294,1000,,,,-0.0625,0.11328125,-0.98828125,-0.0005445135137453683,-0.01170849037654314,23.07901490979045,0.0908240060146542,0,0,2.0961285889791013,0,0,0,0,0.087890625,,
0.6573300000000745,1000,,,,-0.03125,0.04296875,-1.001953125,-0.0005445135137453683,-0.01170849037654314,23.078867420486283,0.09011003056366575,0,0,2.079637448634809,0,0,0,0,0.087890625,,
0.6656999999992549,1000,,,,0,-0.04296875,-0.96484375,-0.0005445135137453683,-0.01170849037654314,23.07880225549243,0.09081118220921858,0,0,2.0958133167940476,0,0,0,0,0.087890625,,
0.6737050000000745,1000,,,,-0.0625,0.048828125,-0.97265625,-0.0005445135137453683,-0.01170849037654314,23.079116024783723,0.09071654310066861,0,0,2.093657623587624,0,0,0,0,0.087890625,,
0.680719999998808,1000,,,,-0.0625,0.037109375,-0.923828125,-0.0005445135137453683,-0.01170849037654314,23.078981320031584,0.09121607535325522,0,0,2.105174099164371,0,0,0,0,0.087890625,,
0.6884699999997392,1000,,,,0,0.08984375,-1.0546875,-0.0005445135137453683,-0.01170849037654314,23.079204838365257,0.09083857839110386,0,0,2.096482157914186,0,0,0,0,0.087890625,,
0.6965149999996647,1000,,,,-0.0625,-0.00390625,-0.89453125,-0.0005445135137453683,-0.01170849037654314,23.078918305346637,0.09139647864196927,0,0,2.1093318639743677,0,0,0,0,0.087890625,,
0.7048199999993667,1000,,,,-0.0625,0.052734375,-0.974609375,-0.0005445135137453683,-0.012532466730426036,23.07867628114922,0.09097024344155612,0,0,2.0994727996050115,0,0,0,0,0.087890625,,
0.7134449999993667,1000,,,,-0.0625,0.08203125,-0.98046875,-0.0005445135137453683,-0.012532466730426036,23.078603109619955,0.09111266280742741,0,0,2.1027529831932488,0,0,0,0,0.087890625,,
0.7217199999997392,1000,,,,0,0.01953125,-1.01171875,-0.0005445135137453683,-0.012532466730426036,23.078473919443038,0.09145071465821526,0,0,2.110542933154048,0,0,0,0,0.087890625,,
0.7297299999995157,1000,,,,-0.03125,0.041015625,-0.9765625,-0.0005445135137453683,-0.012532466730426036,23.078743854515167,0.0916607933187049,0,0,2.1154159705040456,0,0,0,0,0.0859375,,
0.7375400000000373,1000,,,,-0.03125,0.037109375,-1.021484375,-0.0005445135137453683,-0.012532466730426036,23.078871321843334,0.09196901974314539,0,0,2.1225411722481216,0,0,0,0,0.087890625,,
0.7457649999996647,1000,,,,-0.125,0.11328125,-0.9765625,-0.0005445135137453683,-0.012532466730426036,23.078861371517743,0.0926801719515997,0,0,2.1389528403593965,0,0,0,0,0.087890625,,
0.7536349999997765,1000,,,,-0.03125,0.029296875,-0.990234375,-0.0005445135137453683,-0.012532466730426036,23.079313709726907,0.09283222931809376,0,0,2.1425041428055933,0,0,0,0,0.087890625,,
0.7652649999996647,1000,,,,-0.0625,0.025390625,-0.958984375,-0.0005445135137453683,-0.012532466730426036,23.079566786024177,0.09263831168197159,0,0,2.138052101408587,0,0,0,0,0.087890625,,
0.7816649999991059,1000,,,,-0.0625,0.083984375,-1.009765625,-0.000843744748457894,-0.012532466730426036,23.079615981029637,0.09224571065696369,0,0,2.128995577859895,0,0,0,0,0.087890625,,
0.789679999999702,1000,,,,0,-0.0234375,-0.96875,-0.000843744748457894,-0.012532466730426036,23.079569348770033,0.09145743869902988,0,0,2.110798298915144,0,0,0,0,0.0859375,,
0.7976650000000373,1000,,,,-0.0625,0.056640625,-0.978515625,-0.000843744748457894,-0.012532466730426036,23.07959037813004,0.09166641932112517,0,0,2.115623409361474,0,0,0,0,0.087890625,,
0.8067599999988452,1000,,,,-0.0625,0.064453125,-1.013671875,-0.000843744748457894,-0.012532466730426036,23.07961300595838,0.09105604206093278,0,0,2.1015382126205973,0,0,0,0,0.0859375,,
0.8149150000000372,1000,,,,0,0.013671875,-0.9765625,-0.000843744748457894,-0.012532466730426036,23.07963222594173,0.09203969565490593,0,0,2.1242423259028356,0,0,0,0,0.0859375,,
0.8237349999994039,1000,,,,-0.0625,0.07421875,-0.97265625,-0.000843744748457894,-0.012532466730426036,23.07965272773314,0.09332903721135521,0,0,2.1540017682517623,0,0,0,0,0.0859375,,
0.8317699999995529,1000,,,,-0.03125,0.025390625,-0.962890625,-0.000843744748457894,-0.012532466730426036,23.079474999669642,0.09376398467022196,0,0,2.1640235400657954,0,0,0,0,0.0859375,,
0.8398300000000745,1000,,,,-0.0625,0.068359375,-0.970703125,-0.000843744748457894,-0.012532466730426036,23.079501057153617,0.09482837473036587,0,0,2.1885915748376386,0,0,0,0,0.0859375,,
0.8479199999999255,1000,,,,0,-0.05859375,-0.8984375,-0.000843744748457894,-0.012532466730426036,23.07939475148904,0.09391583345624471,0,0,2.167520593751773,0,0,0,0,0.0859375,,
0.8555949999997392,1000,,,,-0.09375,0.078125,-0.970703125,-0.000843744748457894,-0.014402525338986739,23.07922999699709,0.09242506068769776,0,0,2.1330992330977905,0,0,0,0,0.0859375,,
0.8636399999996647,1000,,,,0,0.05078125,-0.97265625,-0.000843744748457894,-0.014402525338986739,23.079366460822243,0.09130634884424996,0,0,2.1072926851761182,0,0,0,0,0.0859375,,
0.870484999999404,1000,,,,-0.0625,0.064453125,-1.001953125,-0.000843744748457894,-0.014402525338986739,23.079394921328888,0.09179713803218202,0,0,2.118622401292469,0,0,0,0,0.0859375,,
0.8787999999988824,1000,,,,-0.03125,0.037109375,-0.9453125,-0.000843744748457894,-0.014402525338986739,23.07923574102175,0.09228789153595617,0,0,2.1299340048001785,0,0,0,0,0.0859375,,
0.8867999999998137,1000,,,,-0.125,0.08203125,-1.05859375,-0.000843744748457894,-0.014402525338986739,23.079471887801894,0.0923520385399995,0,0,2.1314362772651156,0,0,0,0,0.0859375,,
0.8950399999991059,1000,,,,-0.03125,0.0546875,-0.982421875,-0.000843744748457894,-0.014402525338986739,23.079301118581036,0.09155949916679959,0,0,2.1131292515370372,0,0,0,0,0.0859375,,
0.9037249999996275,1000,,,,0,0.01953125,-1.0234375,-0.000843744748457894,-0.014402525338986739,23.07933965422052,0.0911931686897105,0,0,2.1046781143344564,0,0,0,0,0.0859375,,
0.911914999999106,1000,,,,-0.03125,-0.005859375,-0.962890625,-0.000843744748457894,-0.014402525338986739,23.079371911763968,0.09173243052507063,0,0,2.1171268804581547,0,0,0,0,0.0859375,,
0.921574999999255,1000,,,,-0.0625,0.044921875,-0.95703125,-0.0007380630390352884,-0.014402525338986739,23.079402635526968,0.09192851179601204,0,0,2.1216551374249524,0,0,0,0,0.0859375,,
0.9296499999994412,1000,,,,-0.0625,0.046875,-0.955078125,-0.0007380630390352884,-0.014402525338986739,23.07952045137522,0.09044236979009762,0,0,2.0873665232413985,0,0,0,0,0.0859375,,
0.9440399999991059,1000,,,,-0.0625,0.046875,-0.95703125,-0.0007380630390352884,-0.014402525338986739,23.07935272022262,0.0873621070266734,0,0,2.016260882450434,0,0,0,0,0.083984375,,
0.9516499999994412,1000,,,,-0.0625,0.05078125,-0.953125,-0.0007380630390352884,-0.014402525338986739,23.07932250682003,0.08763663365870206,0,0,2.0225941316212244,0,0,0,0,0.083984375,,
0.958375,1000,,,,-0.0625,0.048828125,-0.955078125,-0.0007380630390352884,-0.014402525338986739,23.07935156959393,0.08742679465175648,0,0,2.017753730370582,0,0,0,0,0.083984375,,
0.9656450000004843,1000,,,,-0.0625,0.0546875,-0.95703125,-0.0007380630390352884,-0.014402525338986739,23.079206278903,0.08722325248013074,0,0,2.013043436305775,0,0,0,0,0.083984375,,
0.9736299999989569,1000,,,,-0.0625,0.0546875,-0.95703125,-0.0007380630390352884,-0.014402525338986739,23.079051342452388,0.08732088051267971,0,0,2.015283084620285,0,0,0,0,0.083984375,,
0.9817750000003725,1000,,,,-0.0625,0.05078125,-0.95703125,-0.0007380630390352884,-0.014402525338986739,23.07883161086893,0.08633015114452917,0,0,1.9923990212054525,0,0,0,0,0.083984375,,
0.9897849999992177,1000,,,,-0.0625,0.05078125,-0.955078125,-0.0007380630390352884,-0.014402525338986739,23.078888512579006,0.0852047875677597,0,0,1.966431793014304,0,0,0,0,0.08203125,,
0.9982999999998138,1000,,,,-0.0625,0.048828125,-0.955078125,-0.0007380630390352884,-0.014402525338986739,23.079041888037985,0.08412103721789027,0,0,1.9414329416168918,0,0,0,0,0.08203125,,
1.0070699999993666,1000,,,,-0.0625,0.04296875,-0.95703125,-0.0007380630390352884,-0.01656937596193455,23.079095050158156,0.08440464929628375,0,0,1.9479829237841972,0,0,0,0,0.08203125,,
1.0148950000004844,1000,,,,-0.0625,0.046875,-0.95703125,-0.0007380630390352884,-0.01656937596193455,23.078944841722972,0.08432345617419719,0,0,1.9460963939077414,0,0,0,0,0.08203125,,
1.0226899999994785,1000,,,,-0.0625,0.05078125,-0.95703125,-0.0007380630390352884,-0.01656937596193455,23.078931326751967,0.08477671570567726,0,0,1.9565559998789002,0,0,0,0,0.08203125,,
1.0308399999989197,1000,,,,-0.0625,0.046875,-0.95703125,-0.0007380630390352884,-0.01656937596193455,23.0792461350681,0.08499624873329936,0,0,1.9616493450732861,0,0,0,0,0.08203125,,
1.0390499999988825,1000,,,,-0.0625,0.05078125,-0.955078125,-0.0007380630390352884,-0.01656937596193455,23.079184625156323,0.08649248993407684,0,0,1.996176143878034,0,0,0,0,0.08203125,,
1.0470099999997764,1000,,,,-0.0625,0.048828125,-0.95703125,-0.0007380630390352884,-0.01656937596193455,23.07909494396667,0.08641548156354141,0,0,1.9943911036335735,0,0,0,0,0.080078125,,
1.0551100000003353,1000,,,,-0.0625,0.046875,-0.95703125,-0.0007380630390352884,-0.01656937596193455,23.079007714008423,0.08591066424496341,0,0,1.982732882825098,0,0,0,0,0.080078125,,
1.0639399999994785,1000,,,,-0.0625,0.048828125,-0.958984375,-0.0007380630390352884,-0.01656937596193455,23.07906253285221,0.08645367361362695,0,0,1.9952697395236914,0,0,0,0,0.080078125,,
1.0743499999996275,1000,,,,-0.0625,0.048828125,-0.955078125,-0.0008015811966503683,-0.01656937596193455,23.079108374352966,0.08553121527328428,0,0,1.9739841866822414,0,0,0,0,0.080078125,,
1.0847599999997766,1000,,,,-0.0625,0.046875,-0.9609375,-0.0008015811966503683,-0.01656937596193455,23.079167310342427,0.08606230918888803,0,0,1.9862464328847673,0,0,0,0,0.080078125,,
1.0927099999999628,1000,,,,-0.0625,0.046875,-0.953125,-0.0008015811966503683,-0.01656937596193455,23.079218852868777,0.08605765493172247,0,0,1.986143452133885,0,0,0,0,0.080078125,,
1.1013999999994413,1000,,,,-0.0625,0.05078125,-0.958984375,-0.0008015811966503683,-0.01656937596193455,23.07925734586907,0.08621411935247561,0,0,1.9897578473832556,0,0,0,0,0.078125,,
1.1091650000000373,1000,,,,-0.0625,0.0546875,-0.95703125,-0.0008015811966503683,-0.01656937596193455,23.079293724182342,0.08572583615609695,0,0,1.9784917523976921,0,0,0,0,0.078125,,
1.1217849999992178,1000,,,,-0.0625,0.05078125,-0.95703125,-0.0008015811966503683,-0.01656937596193455,23.079350624833527,0.08565962978116536,0,0,1.9769686301129472,0,0,0,0,0.078125,,
1.1302399999992923,1000,,,,-0.0625,0.05078125,-0.95703125,-0.0008015811966503683,-0.01656937596193455,23.079438559929702,0.08585058971794869,0,0,1.9813834107291295,0,0,0,0,0.078125,,
1.1375699999993667,1000,,,,-0.0625,0.046875,-0.95703125,-0.0008015811966503683,-0.01656937596193455,23.079404347591996,0.08600129078776728,0,0,1.9848585645057195,0,0,0,0,0.078125,,
1.1447049999991432,1000,,,,-0.0625,0.046875,-0.95703125,-0.0008015811966503683,-0.01656937596193455,23.079430626957084,0.08557113615068734,0,0,1.974933100459688,0,0,0,0,0.078125,,
1.159445000000298,1000,,,,-0.0625,0.05078125,-0.955078125,-0.0008015811966503683,-0.01744599184547257,23.079304917587784,0.08532264114543892,0,0,1.9691872513695061,0,0,0,0,0.076171875,,
1.1781599999992176,1000,,,,-0.0625,0.048828125,-0.95703125,-0.0008015811966503683,-0.01744599184547257,23.07962455868507,0.0832933775765744,0,0,1.9223798826921348,0,0,0,0,0.076171875,,
1.1931299999998883,1000,,,,-0.0625,0.046875,-0.95703125,-0.0008015811966503683,-0.01744599184547257,23.079662133944055,0.08303975972485655,0,0,1.9165295981335844,0,0,0,0,0.076171875,,
1.2005899999989196,1000,,,,-0.0625,0.046875,-0.95703125,-0.0008015811966503683,-0.01744599184547257,23.079676962793485,0.08274211523763585,0,0,1.9096612909028678,0,0,0,0,0.076171875,,
1.226179999999702,1000,,,,-0.0625,0.048828125,-0.955078125,-0.0008691556314361786,-0.01744599184547257,23.079649523925557,0.08045180163825125,0,0,1.8567993853792188,0,0,0,0,0.076171875,,
1.2381550000002608,1000,,,,-0.0625,0.046875,-0.95703125,-0.0008691556314361786,-0.01744599184547257,23.079592597425986,0.08122505598222995,0,0,1.8746412007729858,0,0,0,0,0.07421875,,
1.2463300000000745,1000,,,,-0.0625,0.05078125,-0.955078125,-0.0008691556314361786,-0.01744599184547257,23.079472257720425,0.0814585851623433,0,0,1.880021156407459,0,0,0,0,0.07421875,,
1.2535449999989943,1000,,,,-0.0625,0.05078125,-0.955078125,-0.0008691556314361786,-0.01744599184547257,23.079497976474787,0.08057188172139217,0,0,1.8595585811496365,0,0,0,0,0.07421875,,
1.2606949999993666,1000,,,,-0.0625,0.046875,-0.95703125,-0.0008691556314361786,-0.01744599184547257,23.079577840264356,0.08019432822581961,0,0,1.8508512406355127,0,0,0,0,0.07421875,,
1.269144999999553,1000,,,,-0.0625,0.048828125,-0.95703125,-0.0008691556314361786,-0.01744599184547257,23.079598469391545,0.07936699307989017,0,0,1.8317583320068427,0,0,0,0,0.07421875,,
1.2772749999994413,1000,,,,-0.0625,0.05078125,-0.95703125,-0.0008691556314361786,-0.01744599184547257,23.079486101866543,0.0800717989082141,0,0,1.8480159700535799,0,0,0,0,0.07421875,,
1.2860800000000745,1000,,,,-0.0625,0.048828125,-0.955078125,-0.0008691556314361786,-0.01744599184547257,23.079514250129563,0.08021697932731847,0,0,1.8513689174871952,0,0,0,0,0.07421875,,
1.2937749999994412,1000,,,,-0.0625,0.046875,-0.95703125,-0.0008691556314361786,-0.01744599184547257,23.079602188635512,0.08002388701820207,0,0,1.8469194779684173,0,0,0,0,0.07421875,,
1.3018899999996647,1000,,,,-0.0625,0.046875,-0.95703125,-0.0008691556314361786,-0.01883526701769678,23.079622289046576,0.07961433684560822,0,0,1.8374688231895615,0,0,0,0,0.07421875,,
1.3097999999998138,1000,,,,-0.0625,0.052734375,-0.955078125,-0.0008691556314361786,-0.01883526701769678,23.07973872169561,0.07944823960352901,0,0,1.8336446119481191,0,0,0,0,0.072265625,,
1.3169749999996274,1000,,,,-0.0625,0.05078125,-0.955078125,-0.0008691556314361786,-0.01883526701769678,23.079576534574084,0.07902610072634197,0,0,1.8238889399425702,0,0,0,0,0.072265625,,
1.325,1000,,,,-0.0625,0.05078125,-0.95703125,-0.0008691556314361786,-0.01883526701769678,23.079727516741244,0.07931321524702858,0,0,1.8305273963780668,0,0,0,0,0.072265625,,
1.333239999999292,1000,,,,-0.0625,0.048828125,-0.953125,-0.0008691556314361786,-0.01883526701769678,23.079934446527876,0.07947882939202949,0,0,1.8343661722548137,0,0,0,0,0.072265625,,
1.3412999999998136,1000,,,,-0.0625,0.046875,-0.95703125,-0.0008691556314361786,-0.01883526701769678,23.080069733949408,0.0797473834332936,0,0,1.840575170740418,0,0,0,0,0.072265625,,
1.3502549999989568,1000,,,,-0.0625,0.046875,-0.95703125,-0.0008691556314361786,-0.01883526701769678,23.079846156488866,0.07955357477777227,0,0,1.8360842670697168,0,0,0,0,0.072265625,,
1.3582199999997393,1000,,,,-0.0625,0.046875,-0.95703125,-0.0008691556314361786,-0.01883526701769678,23.079919443667862,0.0798166714857716,0,0,1.84216234815331,0,0,0,0,0.072265625,,
1.3664799999995156,1000,,,,-0.0625,0.048828125,-0.955078125,-0.0008957861792377029,-0.01883526701769678,23.079726882346158,0.07931985104199515,0,0,1.8306804983976284,0,0,0,0,0.072265625,,
1.377625,1000,,,,-0.0625,0.05078125,-0.95703125,-0.0008957861792377029,-0.01883526701769678,23.07959355236144,0.07987259100816135,0,0,1.8434269364423632,0,0,0,0,0.072265625,,
1.3863449999997393,1000,,,,-0.0625,0.046875,-0.953125,-0.0008957861792377029,-0.01883526701769678,23.079532755328103,0.0804884502467946,0,0,1.8576358238964923,0,0,0,0,0.072265625,,
1.3944099999992177,1000,,,,-0.0625,0.046875,-0.95703125,-0.0008957861792377029,-0.01883526701769678,23.079555718132266,0.0798546206032437,0,0,1.843009165562876,0,0,0,0,0.0703125,,
1.4029099999992176,1000,,,,-0.0625,0.048828125,-0.95703125,-0.0008957861792377029,-0.01883526701769678,23.07964425705109,0.07967383282518341,0,0,1.838843718200993,0,0,0,0,0.0703125,,
1.411535000000149,1000,,,,-0.0625,0.05078125,-0.95703125,-0.0008957861792377029,-0.01883526701769678,23.079440072953254,0.08069528625602887,0,0,1.8624020233158267,0,0,0,0,0.0703125,,
1.4192099999999628,1000,,,,-0.0625,0.048828125,-0.953125,-0.0008957861792377029,-0.01883526701769678,23.07959772314239,0.08132538704627883,0,0,1.8769572177069702,0,0,0,0,0.0703125,,
1.4273199999993667,1000,,,,-0.0625,0.048828125,-0.953125,-0.0008957861792377029,-0.01883526701769678,23.079617167548008,0.08107979743308945,0,0,1.8712906847780462,0,0,0,0,0.0703125,,
1.4350449999999255,1000,,,,-0.0625,0.046875,-0.95703125,-0.0008957861792377029,-0.01883526701769678,23.07963604403557,0.08052189703952609,0,0,1.8584160772475673,0,0,0,0,0.0703125,,
1.4434699999997391,1000,,,,-0.0625,0.046875,-0.95703125,-0.0008957861792377029,-0.01883526701769678,23.07952194984795,0.08159917637412112,0,0,1.8832699822160428,0,0,0,0,0.0703125,,
1.4525400000000372,1000,,,,-0.0625,0.05078125,-0.955078125,-0.0008957861792377029,-0.017829178024131472,23.079331616960793,0.08271534482123577,0,0,1.909014872940561,0,0,0,0,0.0703125,,
1.460285000000149,1000,,,,-0.0625,0.05078125,-0.953125,-0.0008957861792377029,-0.017829178024131472,23.079233263217112,0.08196842403842373,0,0,1.8917683786010742,0,0,0,0,0.0703125,,
1.4685049999998883,1000,,,,-0.0625,0.046875,-0.95703125,-0.0008957861792377029,-0.017829178024131472,23.079009046767027,0.08168605694647252,0,0,1.8852332472623659,0,0,0,0,0.0703125,,
1.4773099999995902,1000,,,,-0.0625,0.046875,-0.95703125,-0.0008957861792377029,-0.017829178024131472,23.07928439196653,0.08210295087964524,0,0,1.8948773527709912,0,0,0,0,0.0703125,,
1.4845949999997392,1000,,,,-0.0625,0.05078125,-0.953125,-0.0008957861792377029,-0.017829178024131472,23.079128134837894,0.08182311224923258,0,0,1.8884060919912629,0,0,0,0,0.0703125,,
1.4919449999993668,1000,,,,-0.0625,0.046875,-0.953125,-0.0008957861792377029,-0.017829178024131472,23.07893419511289,0.08176831018973867,0,0,1.8871254501145573,0,0,0,0,0.0703125,,
1.4992800000002608,1000,,,,-0.0625,0.046875,-0.955078125,-0.0008957861792377029,-0.017829178024131472,23.078889042801237,0.08212994029355412,0,0,1.895467779126826,0,0,0,0,0.068359375,,
1.507039999999106,1000,,,,-0.0625,0.05078125,-0.95703125,-0.0008957861792377029,-0.017829178024131472,23.07881973554885,0.08167331694957614,0,0,1.8849237590836143,0,0,0,0,0.068359375,,
1.515804999999702,1000,,,,-0.0625,0.05078125,-0.95703125,-0.0005637229769097011,-0.017829178024131472,23.078674900252572,0.08139325695119821,0,0,1.8784485162494264,0,0,0,0,0.068359375,,
1.5242849999992176,1000,,,,-0.0625,0.05078125,-0.953125,-0.0005637229769097011,-0.017829178024131472,23.078744208502467,0.08112296511630264,0,0,1.8722161613544173,0,0,0,0,0.068359375,,
1.5342249999996276,1000,,,,-0.0625,0.05078125,-0.95703125,-0.0005637229769097011,-0.017829178024131472,23.07880611119039,0.08088184483143292,0,0,1.8666564147800266,0,0,0,0,0.068359375,,
1.5422499999990686,1000,,,,-0.0625,0.048828125,-0.95703125,-0.0005637229769097011,-0.017829178024131472,23.07887894093732,0.0813910627264323,0,0,1.878414483537567,0,0,0,0,0.068359375,,
1.5513649999992922,1000,,,,-0.0625,0.044921875,-0.955078125,-0.0005637229769097011,-0.017829178024131472,23.078797481318386,0.08066104456934023,0,0,1.8615599122473994,0,0,0,0,0.068359375,,
1.5603700000001117,1000,,,,-0.0625,0.048828125,-0.95703125,-0.0005637229769097011,-0.017829178024131472,23.07879011441126,0.07991073137314125,0,0,1.844242997249826,0,0,0,0,0.068359375,,
1.5690149999996648,1000,,,,-0.0625,0.048828125,-0.955078125,-0.0005637229769097011,-0.017829178024131472,23.07892122439538,0.08039118830606504,0,0,1.85534190205121,0,0,0,0,0.068359375,,
1.5764399999994785,1000,,,,-0.0625,0.046875,-0.95703125,-0.0005637229769097011,-0.017829178024131472,23.078846439949327,0.08019478879984006,0,0,1.8508032159956769,0,0,0,0,0.068359375,,
1.5851949999993666,1000,,,,-0.0625,0.048828125,-0.95703125,-0.0005637229769097011,-0.017829178024131472,23.07912810898749,0.07962196337885108,0,0,1.8376054931096144,0,0,0,0,0.068359375,,
1.5921849999995903,1000,,,,-0.0625,0.046875,-0.95703125,-0.0005637229769097011,-0.017829178024131472,23.07928246015932,0.07928428220104165,0,0,1.8298243435688224,0,0,0,0,0.068359375,,
1.6003300000000744,1000,,,,-0.0625,0.05078125,-0.955078125,-0.0005637229769097011,-0.017829178024131472,23.079513756547012,0.0791340678669116,0,0,1.8263758079459111,0,0,0,0,0.068359375,,
1.6079099999992177,1000,,,,-0.0625,0.05078125,-0.95703125,-0.0005637229769097011,-0.017402851566085807,23.07953751822356,0.0793091132057265,0,0,1.8304176537686045,0,0,0,0,0.068359375,,
1.6146349999997764,1000,,,,-0.0625,0.05078125,-0.95703125,-0.0005637229769097011,-0.017402851566085807,23.07961296134863,0.0795438433485228,0,0,1.8358411179420517,0,0,0,0,0.068359375,,
1.6219549999991432,1000,,,,-0.0625,0.046875,-0.953125,-0.0005637229769097011,-0.017402851566085807,23.079629878344203,0.07996575084333839,0,0,1.8455799324081408,0,0,0,0,0.06640625,,
1.6302099999990314,1000,,,,-0.0625,0.046875,-0.955078125,-0.0005637229769097011,-0.017402851566085807,23.079648297609815,0.08074799483869445,0,0,1.8636353216142805,0,0,0,0,0.06640625,,
1.6383849999997764,1000,,,,-0.0625,0.048828125,-0.95703125,-0.0005637229769097011,-0.017402851566085807,23.079665519777475,0.08116178449830876,0,0,1.8731868392092266,0,0,0,0,0.06640625,,
1.646214999999851,1000,,,,-0.0625,0.046875,-0.95703125,-0.0005637229769097011,-0.017402851566085807,23.079551705481208,0.08049702664234545,0,0,1.8578352885295102,0,0,0,0,0.06640625,,
1.6541200000001117,1000,,,,-0.0625,0.048828125,-0.95703125,-0.0005637229769097011,-0.017402851566085807,23.079672982397447,0.08157488917380337,0,0,1.8827217657066957,0,0,0,0,0.06640625,,
1.6622249999996275,1000,,,,-0.0625,0.05078125,-0.95703125,-0.0005637229769097011,-0.017402851566085807,23.079623874272215,0.08194954207680163,0,0,1.8913646078014266,0,0,0,0,0.06640625,,
1.678074999999255,1000,,,,-0.0625,0.05078125,-0.95703125,-0.0004228247850775088,-0.017402851566085807,23.079499648784548,0.08171628090056837,0,0,1.8859708763446472,0,0,0,0,0.06640625,,
1.6875999999996274,1000,,,,-0.0625,0.05078125,-0.95703125,-0.0004228247850775088,-0.017402851566085807,23.079435579760258,0.08175966471864274,0,0,1.8869669148967128,0,0,0,0,0.06640625,,
1.6954199999999255,1000,,,,-0.0625,0.048828125,-0.955078125,-0.0004228247850775088,-0.017402851566085807,23.079634078167963,0.0827531862660034,0,0,1.9099132578218332,0,0,0,0,0.06640625,,
1.7036299999998883,1000,,,,-0.0625,0.046875,-0.953125,-0.0004228247850775088,-0.017402851566085807,23.07952097403541,0.08264544481094208,0,0,1.9074172769226236,0,0,0,0,0.06640625,,
1.7112599999997764,1000,,,,-0.0625,0.048828125,-0.953125,-0.0004228247850775088,-0.017402851566085807,23.079640736852557,0.08233537828041347,0,0,1.900270950644796,0,0,0,0,0.06640625,,
1.7195949999997393,1000,,,,-0.0625,0.046875,-0.953125,-0.0004228247850775088,-0.017402851566085807,23.07959207389647,0.08246392946437162,0,0,1.9032338528482688,0,0,0,0,0.06640625,,
1.7271949999993668,1000,,,,-0.0625,0.05078125,-0.95703125,-0.0004228247850775088,-0.017402851566085807,23.079612059443832,0.08279433085022712,0,0,1.9108610367444845,0,0,0,0,0.06640625,,
1.7364900000002235,1000,,,,-0.0625,0.046875,-0.953125,-0.0004228247850775088,-0.017402851566085807,23.079633633631175,0.08279086847475507,0,0,1.9107829126074922,0,0,0,0,0.06640625,,
1.7444749999996274,1000,,,,-0.0625,0.05078125,-0.953125,-0.0004228247850775088,-0.017402851566085807,23.07965132812799,0.08268373821830707,0,0,1.908311848584738,0,0,0,0,0.06640625,,
1.7549449999993667,1000,,,,-0.0625,0.048828125,-0.95703125,-0.0004228247850775088,-0.014511258503306075,23.079670780723628,0.0823248906627185,0,0,1.9000313735546117,0,0,0,0,0.06640625,,
1.7626399999996647,1000,,,,-0.0625,0.048828125,-0.953125,-0.0004228247850775088,-0.014511258503306075,23.079690593108182,0.08176479783036013,0,0,1.887106235332755,0,0,0,0,0.06640625,,
1.7694599999990315,1000,,,,-0.0625,0.048828125,-0.95703125,-0.0004228247850775088,-0.014511258503306075,23.079703805531796,0.08152947239963186,0,0,1.881676074404783,0,0,0,0,0.064453125,,
1.777339999999851,1000,,,,-0.0625,0.05078125,-0.95703125,-0.0004228247850775088,-0.014511258503306075,23.079892189515352,0.08215292009667215,0,0,1.8960805388850623,0,0,0,0,0.064453125,,
1.7853599999994039,1000,,,,-0.0625,0.046875,-0.955078125,-0.0004228247850775088,-0.014511258503306075,23.079699667655593,0.08185936374629989,0,0,1.8892895302499757,0,0,0,0,0.064453125,,
1.7934049999993293,1000,,,,-0.0625,0.046875,-0.953125,-0.0004228247850775088,-0.014511258503306075,23.07964943954446,0.08116227178651737,0,0,1.8731967805498508,0,0,0,0,0.064453125,,
1.801304999999702,1000,,,,-0.0625,0.046875,-0.955078125,-0.0004228247850775088,-0.014511258503306075,23.0794699263064,0.08059895670630332,0,0,1.8601811973947988,0,0,0,0,0.064453125,,
1.8093149999994784,1000,,,,-0.0625,0.048828125,-0.955078125,-0.0004228247850775088,-0.014511258503306075,23.079496107717972,0.08038335217013472,0,0,1.8552072635359471,0,0,0,0,0.064453125,,
1.8174099999992177,1000,,,,-0.0625,0.05078125,-0.953125,-0.00044291160901907306,-0.014511258503306075,23.07952103061956,0.0798573980981318,0,0,1.8430704988563915,0,0,0,0,0.064453125,,
1.8250949999997392,1000,,,,-0.0625,0.05078125,-0.95703125,-0.00044291160901907306,-0.014511258503306075,23.079640271985117,0.0796825521787988,0,0,1.8390446402403602,0,0,0,0,0.064453125,,
1.8334049999993294,1000,,,,-0.0625,0.05078125,-0.95703125,-0.00044291160901907306,-0.014511258503306075,23.079657960698214,0.0797255601553877,0,0,1.8400386591114182,0,0,0,0,0.064453125,,
1.8441199999991804,1000,,,,-0.0625,0.05078125,-0.95703125,-0.00044291160901907306,-0.014511258503306075,23.079527712318022,0.08050199925991584,0,0,1.8579481228162327,0,0,0,0,0.064453125,,
1.8530949999997393,1000,,,,-0.0625,0.048828125,-0.95703125,-0.00044291160901907306,-0.014511258503306075,23.079396456966634,0.07998657192268796,0,0,1.8460418046373914,0,0,0,0,0.064453125,,
1.8613349999990314,1000,,,,-0.0625,0.044921875,-0.95703125,-0.00044291160901907306,-0.014511258503306075,23.079374480934117,0.07959486390394,0,0,1.8369996707980167,0,0,0,0,0.064453125,,
1.8714399999994784,1000,,,,-0.0625,0.046875,-0.955078125,-0.00044291160901907306,-0.014511258503306075,23.079413947958777,0.08020150064180084,0,0,1.851003632559603,0,0,0,0,0.064453125,,
1.879570000000298,1000,,,,-0.0625,0.046875,-0.955078125,-0.00044291160901907306,-0.014511258503306075,23.07939423072775,0.08001082202484895,0,0,1.8466013042360838,0,0,0,0,0.064453125,,
1.887714999999851,1000,,,,-0.0625,0.05078125,-0.95703125,-0.00044291160901907306,-0.014511258503306075,23.07942411988904,0.0795038417624354,0,0,1.8349028831957932,0,0,0,0,0.064453125,,
1.8955249999994412,1000,,,,-0.0625,0.048828125,-0.95703125,-0.00044291160901907306,-0.014511258503306075,23.07935555983822,0.07746380320892139,0,0,1.7878146572760336,0,0,0,0,0.064453125,,
1.903625,1000,,,,-0.0625,0.05078125,-0.95703125,-0.00044291160901907306,-0.013258028349812429,23.079256208670373,0.07740275911431362,0,0,1.7863981088572398,0,0,0,0,0.064453125,,
1.9115499999998138,1000,,,,-0.0625,0.05078125,-0.95703125,-0.00044291160901907306,-0.013258028349812429,23.079191731326706,0.07834536844046582,0,0,1.808147779498943,0,0,0,0,0.064453125,,
1.9195899999989197,1000,,,,-0.0625,0.048828125,-0.958984375,-0.00044291160901907306,-0.013258028349812429,23.07923150931559,0.07824107430786324,0,0,1.8057438674887398,0,0,0,0,0.064453125,,
1.9276149999992922,1000,,,,-0.0625,0.05078125,-0.953125,-0.00044291160901907306,-0.013258028349812429,23.079205214907933,0.0783494011308045,0,0,1.808241907162977,0,0,0,0,0.064453125,,
1.935004999998957,1000,,,,-0.0625,0.046875,-0.95703125,-0.00044291160901907306,-0.013258028349812429,23.079340394736285,0.0776164107584366,0,0,1.7913355641116298,0,0,0,0,0.064453125,,
1.9421249999990686,1000,,,,-0.0625,0.046875,-0.95703125,-0.00044291160901907306,-0.013258028349812429,23.079368672349883,0.07755676993022705,0,0,1.7899612862563294,0,0,0,0,0.064453125,,
1.9494249999998137,1000,,,,-0.0625,0.046875,-0.955078125,-0.00044291160901907306,-0.013258028349812429,23.07948586114874,0.07807669676289598,0,0,1.8019700190244554,0,0,0,0,0.064453125,,
1.958574999999255,1000,,,,-0.0625,0.046875,-0.95703125,-0.00044291160901907306,-0.013258028349812429,23.07973232489556,0.07904144060934781,0,0,1.8242552918378772,0,0,0,0,0.0625,,
1.9674550000000746,1000,,,,-0.0625,0.046875,-0.953125,-0.0005340218460774513,-0.013258028349812429,23.079891768507057,0.0786521194990921,0,0,1.815282405402729,0,0,0,0,0.0625,,
1.9755149999996646,1000,,,,-0.0625,0.05078125,-0.958984375,-0.0005340218460774513,-0.013258028349812429,23.07989726482477,0.07831418878479068,0,0,1.807483431531061,0,0,0,0,0.0625,,
1.9840599999995903,1000,,,,-0.0625,0.052734375,-0.95703125,-0.0005340218460774513,-0.013258028349812429,23.07990237744193,0.07884882463751747,0,0,1.8198231752099412,0,0,0,0,0.0625,,
1.9945799999991431,1000,,,,-0.0625,0.05078125,-0.955078125,-0.0005340218460774513,-0.013258028349812429,23.07990780557459,0.07965298095589173,0,0,1.8383834569011694,0,0,0,0,0.0625,,
2.0027999999998136,1000,,,,-0.0625,0.048828125,-0.955078125,-0.0005340218460774513,-0.013258028349812429,23.080034604374916,0.07924806036265458,0,0,1.8290479754996598,0,0,0,0,0.0625,,
2.0116200000001117,1000,,,,-0.0625,0.05078125,-0.95703125,-0.0005340218460774513,-0.013258028349812429,23.080032773827487,0.08004913155850518,0,0,1.8475365798867278,0,0,0,0,0.0625,,
2.020160000000149,1000,,,,-0.0625,0.046875,-0.955078125,-0.0005340218460774513,-0.013258028349812429,23.079770260590017,0.07964952274261783,0,0,1.838292686265259,0,0,0,0,0.0625,,
2.0283650000002234,1000,,,,-0.0625,0.046875,-0.955078125,-0.0005340218460774513,-0.013258028349812429,23.079565947988034,0.07946384006394444,0,0,1.8339909372361793,0,0,0,0,0.0625,,
2.035754999999888,1000,,,,-0.0625,0.05078125,-0.95703125,-0.0005340218460774513,-0.013258028349812429,23.079717077087842,0.08015246452697103,0,0,1.8498962043138107,0,0,0,0,0.0625,,
2.04375,1000,,,,-0.0625,0.048828125,-0.95703125,-0.0005340218460774513,-0.013258028349812429,23.07981642292676,0.07913178206234102,0,0,1.8263470032178795,0,0,0,0,0.0625,,
2.0536949999993666,1000,,,,-0.0625,0.048828125,-0.95703125,-0.0005340218460774513,-0.012738827442128538,23.079827261724937,0.08048333142890374,0,0,1.857541386827256,0,0,0,0,0.0625,,
2.0612849999992178,1000,,,,-0.0625,0.048828125,-0.95703125,-0.0005340218460774513,-0.012738827442128538,23.07976722496306,0.08048738899119451,0,0,1.8576302024618236,0,0,0,0,0.0625,,
2.0686150000002237,1000,,,,-0.0625,0.05078125,-0.95703125,-0.0005340218460774513,-0.012738827442128538,23.080006252058112,0.0788123675326705,0,0,1.8189899353935368,0,0,0,0,0.0625,,
2.0764199999989943,1000,,,,-0.0625,0.048828125,-0.958984375,-0.0005340218460774513,-0.012738827442128538,23.079907131702495,0.07932792373889122,0,0,1.8308811128443871,0,0,0,0,0.0625,,
2.0837599999997765,1000,,,,-0.0625,0.046875,-0.95703125,-0.0005340218460774513,-0.012738827442128538,23.079852796147396,0.07957208323424933,0,0,1.8365119677292627,0,0,0,0,0.0625,,
2.091794999998994,1000,,,,-0.0625,0.048828125,-0.955078125,-0.0005340218460774513,-0.012738827442128538,23.080055890900205,0.08004517856456095,0,0,1.8474471950671538,0,0,0,0,0.0625,,
2.0998499999996274,1000,,,,-0.0625,0.046875,-0.953125,-0.0005340218460774513,-0.012738827442128538,23.07985883410834,0.07922661411256365,0,0,1.8285390696223447,0,0,0,0,0.0625,,
2.107754999999888,1000,,,,-0.0625,0.048828125,-0.955078125,-0.0005340218460774513,-0.012738827442128538,23.080127553604232,0.07907922798713136,0,0,1.8251586687835415,0,0,0,0,0.0625,,
2.1155899999989196,1000,,,,-0.0625,0.05078125,-0.95703125,-0.0005421646081651534,-0.012738827442128538,23.080024469089857,0.08020307296926005,0,0,1.8510888866267212,0,0,0,0,0.0625,,
2.122324999999255,1000,,,,-0.0625,0.05078125,-0.95703125,-0.0005421646081651534,-0.012738827442128538,23.079849885433013,0.08059548751049311,0,0,1.8601317531854724,0,0,0,0,0.0625,,
2.1296749999998137,1000,,,,-0.0625,0.046875,-0.9609375,-0.0005421646081651534,-0.012738827442128538,23.0796862307563,0.0809630707437158,0,0,1.8686022690434858,0,0,0,0,0.0625,,
2.137609999999404,1000,,,,-0.0625,0.046875,-0.955078125,-0.0005421646081651534,-0.012738827442128538,23.079800914986173,0.08105071068194997,0,0,1.8706342665575484,0,0,0,0,0.0625,,
2.1499999999990687,1000,,,,-0.0625,0.046875,-0.955078125,-0.0005421646081651534,-0.012738827442128538,23.07974568703704,0.08102687127032877,0,0,1.870079582735476,0,0,0,0,0.0625,,
2.167859999999404,1000,,,,-0.0625,0.05078125,-0.955078125,-0.0005421646081651534,-0.012738827442128538,23.07958350689138,0.07976977919968327,0,0,1.8410532803653772,0,0,0,0,0.0625,,
2.1766200000001117,1000,,,,-0.0625,0.052734375,-0.95703125,-0.0005421646081651534,-0.012738827442128538,23.079534147788046,0.0800459275143292,0,0,1.8474227174583273,0,0,0,0,0.0625,,
2.1842849999992175,1000,,,,-0.0625,0.05078125,-0.953125,-0.0005421646081651534,-0.012738827442128538,23.07955757275887,0.07920168531362114,0,0,1.8279398560552496,0,0,0,0,0.0625,,
2.1912599999997764,1000,,,,-0.0625,0.046875,-0.953125,-0.0005421646081651534,-0.012738827442128538,23.079576458770813,0.07907507746791255,0,0,1.825019296403913,0,0,0,0,0.0625,,
2.1987049999991433,1000,,,,-0.0625,0.048828125,-0.955078125,-0.0005421646081651534,-0.012738827442128538,23.07959487429713,0.07951554532529082,0,0,1.835186572316523,0,0,0,0,0.0625,,
2.2068549999995155,1000,,,,-0.0625,0.05078125,-0.95703125,-0.0005421646081651534,-0.010084285387474658,23.079614808324052,0.07914158546538182,0,0,1.8265573078610697,0,0,0,0,0.0625,,
2.215054999999702,1000,,,,-0.0625,0.048828125,-0.953125,-0.0005421646081651534,-0.010084285387474658,23.079633916113583,0.07963996375883858,0,0,1.8380612086465475,0,0,0,0,0.0625,,
2.2237999999998137,1000,,,,-0.0625,0.05078125,-0.955078125,-0.0005421646081651534,-0.010084285387474658,23.07958140120297,0.0794538854415238,0,0,1.8337624166895041,0,0,0,0,0.0625,,
2.232019999999553,1000,,,,-0.0625,0.046875,-0.953125,-0.0005421646081651534,-0.010084285387474658,23.079602296347296,0.07756755455275352,0,0,1.7902283101777743,0,0,0,0,0.060546875,,undefined,0,
2.2397899999991058,1000,,,,-0.0625,0.05078125,-0.95703125,-0.0005421646081651534,-0.010084285387474658,23.079881893122874,0.07877131749408288,0,0,1.8180327043291165,0,0,0,0,0.060546875,,
2.2483149999994785,1200,,,,-0.0625,0.046875,-0.95703125,-0.0005421646081651534,-0.010084285387474658,23.079816428258695,0.079336595948196,0,0,1.8310740705272963,0,0,0,0,0.060546875,,
2.2627999999988826,1200,,,,-0.0625,0.05078125,-0.955078125,-0.0005421646081651534,-0.010084285387474658,23.080004320389428,0.0790567205684042,0,0,1.8246294522745885,0,0,0,0,0.060546875,,
2.2716650000000373,1200,,,,-0.0625,0.046875,-0.95703125,-0.0005289669721940864,-0.010084285387474658,23.07990296532442,0.07759657435132368,0,0,1.7909214064701322,0,0,0,0,0.060546875,,
2.279824999999255,1200,,,,-0.0625,0.048828125,-0.95703125,-0.0005289669721940864,-0.010084285387474658,23.079973413509602,0.07838295505610837,0,0,1.8090765187672992,0,0,0,0,0.060546875,,
2.287969999998808,1200,,,,-0.0625,0.044921875,-0.95703125,-0.0005289669721940864,-0.010084285387474658,23.080364724524493,0.07891260520204056,0,0,1.821331709425505,0,0,0,0,0.060546875,,
2.2982899999991058,1200,,,,-0.0625,0.046875,-0.95703125,-0.0005289669721940864,-0.010084285387474658,23.0804768491098,0.08163586167053764,0,0,1.8841946153439741,0,0,0,0,0.060546875,,
2.306749999999069,1200,,,,0.03125,-0.017578125,-1.0859375,-0.0005289669721940864,-0.010084285387474658,23.07857183789093,0.14309569098724642,0,0,3.3024441841418084,0,0,0,0,0.0625,,
2.3139149999991058,1200,,,,-0.125,0.087890625,-0.96484375,-0.0005289669721940864,-0.010084285387474658,23.077685592894145,0.17431098977494505,0,0,4.022694217412368,0,0,0,0,0.064453125,,
2.323304999999702,1200,,,,0,0.09765625,-0.947265625,-0.0005289669721940864,-0.010084285387474658,23.0768099573629,0.20009139999758305,0,0,4.617471211846907,0,0,0,0,0.064453125,,
2.330484999999404,1200,,,,-0.09375,0.078125,-0.947265625,-0.0005289669721940864,-0.010084285387474658,23.07648248717585,0.21339215231585443,0,0,4.924340265817576,0,0,0,0,0.06640625,,
2.3379349999995904,1200,,,,0.1875,0.08203125,-0.8515625,-0.0005289669721940864,-0.010084285387474658,23.076204751373194,0.22285604287748398,0,0,5.1426716755216235,0,0,0,0,0.068359375,,
2.3457149999989197,1200,,,,-0.1875,0.09765625,-0.9609375,-0.0005289669721940864,-0.010084285387474658,23.075996931522788,0.23539186212198096,0,0,5.431901888032268,0,0,0,0,0.068359375,,
2.3540249999994414,1200,,,,-0.09375,-0.1328125,-1.0546875,-0.0005289669721940864,-0.006083247012082842,23.075214851442418,0.25690779628714466,0,0,5.9282025963364635,0,0,0,0,0.0703125,,
2.361844999998808,1200,,,,0.0625,0.064453125,-1.0859375,-0.0005289669721940864,-0.006083247012082842,23.07459801196119,0.2638106165309582,0,0,6.087323927739504,0.000022625893129051748,0.00037168866644252585,268.8621826942126,0.0009993302614243864,0.072265625,,
2.3788449999997394,1200,,,,-0.125,0.10546875,-0.91796875,-0.0005289669721940864,-0.006083247012082842,23.07432590623415,0.262573321900479,1,0,6.0587024038141815,0.00005883269261478282,0.000971044436474474,103.39909226854442,0.0010040511328388087,0.072265625,,
2.3873599999994037,1200,,,,-0.015625,0.01953125,-0.974609375,-0.0005289669721940864,-0.006083247012082842,23.074406309933536,0.26102531334685297,1,0,6.023004137343003,0.00006424310331764643,0.0010666289089747618,94.69105161381397,0.0010100021307251524,0.07421875,,
2.3947849999992177,1200,,,,-0.0625,0.0625,-1,-0.0005289669721940864,-0.006083247012082842,23.074480149672414,0.25627865645612247,1,0,5.913496771181514,0.000066379119782647,0.0011225020043324463,91.6439843131686,0.0010287055607654304,0.07421875,,
2.4030299999993296,1200,,,,-0.0625,0.109375,-1.009765625,-0.0005289669721940864,-0.006083247012082842,23.07455447103836,0.25065818663777795,1,0,5.783825981185107,0.00006728475037877817,0.0011633259817576931,90.41048644510566,0.0010517686790494315,0.07421875,,
2.410674999999814,1200,,,,-0.03125,-0.013671875,-0.95703125,-0.0005289669721940864,-0.006083247012082842,23.07462502904604,0.2459577856751393,1,0,5.675383677428311,0.00006764284496294556,0.0011918638246779573,89.93186220087603,0.001071865332431471,0.07421875,,
2.4191349999997764,1200,,,,0,0.0234375,-0.94921875,-0.0005128878440833292,-0.006083247012082842,23.074692296500714,0.24083256730500804,233,0,5.557137385539359,0.012519684582710945,0.22529017575288582,0.4858945903863664,0.0010946727766552096,0.07421875,,
2.4279799999995157,1200,,,,-0.03125,0.041015625,-0.974609375,-0.0005128878440833292,-0.006083247012082842,23.07498697086959,0.23531001653761444,578,0,5.42977556572056,0.03102903153023278,0.5714606645277622,0.1960501734047258,0.0011203496237464764,0.07421875,,
2.435504999998957,1200,,,,-0.03125,0.0234375,-0.97265625,-0.0005128878440833292,-0.006083247012082842,23.075035300625576,0.23061420649625267,691,0,5.321430955726786,0.03711729630880044,0.6975059268382645,0.1638925141926492,0.0011431600001379722,0.07421875,,
2.4427999999998136,1200,,,,0,0.01171875,-0.96484375,-0.0005128878440833292,-0.006083247012082842,23.07525314921258,0.22640926301795353,735,0,5.224451059465931,0.03945741365983825,0.7552451580218608,0.15417247223871333,0.0011643801315854802,0.07421875,,
2.4534199999999253,1200,,,,-0.0625,0.060546875,-0.974609375,-0.0005128878440833292,-0.006083247012082842,23.075289871813208,0.2220049656725785,755,0,5.122828935876689,0.040531868460617286,0.7912008963789636,0.1500855312898693,0.0011874780689005756,0.07421875,,
2.473019999999553,1200,,,,-0.03125,0.01953125,-0.98046875,-0.0005128878440833292,-0.006083247012082842,23.075309754599694,0.20922905040848622,785,0,4.828025147836573,0.04214023023100353,0.8728254087468137,0.14435723247679974,0.0012599866044212156,0.07421875,,
2.4810999999996275,1200,,,,-0.0625,0.05078125,-0.953125,-0.0005128878440833292,-0.006083247012082842,23.075408337710982,0.20528686965052892,808,0,4.737078343556402,0.04338796954323979,0.915922566538469,0.140205846830891,0.0012841769907304913,0.072265625,,
2.4880750000001863,1200,,,,-0.0625,0.0390625,-0.9609375,-0.0005128878440833292,-0.006083247012082842,23.075631146495756,0.2015528261768724,817,0,4.6509586733912816,0.04388175304043262,0.9434990960355256,0.13862816753190652,0.0013079555075141522,0.072265625,,
2.4969099999992177,1200,,,,-0.0625,0.03125,-0.9609375,-0.0005128878440833292,-0.006083247012082842,23.07574949366151,0.19724471595083182,821,0,4.551569654229816,0.04408128399716813,0.9684853214583453,0.13800067648831738,0.001336516295302572,0.072265625,,
2.505344999999739,1200,,,,-0.0625,0.05078125,-0.9609375,-0.0005128878440833292,0.03860325600732968,23.075828309993316,0.19467819328387653,822,0,4.492360563918429,0.044158756003568896,0.982974437943417,0.8741925611357753,0.008593089414367549,0.072265625,,
2.5137450000001116,1200,,,,-0.03125,0.017578125,-0.95703125,-0.0005128878440833292,0.03860325600732968,23.075908940271507,0.19205260247186945,823,0,4.431788366383022,0.04419012642857554,0.9971172532464825,0.8735719747198301,0.008710536879457425,0.072265625,,
2.5220449999999257,1200,,,,0,0.00390625,-0.85546875,-0.0005128878440833292,0.03860325600732968,23.07316035126572,0.26952842012568745,894,0,6.218872456783301,0.0480097465527413,0.7720008230812672,0.8040712309306178,0.006207436520944045,0.07421875,,
2.5298799999998884,1200,,,,-0.0625,0.080078125,-1.029296875,-0.0005128878440833292,0.03860325600732968,23.071070074232175,0.3300497157484463,922,0,7.614600120012816,0.0495152782804269,0.6502676109056605,0.779623125385712,0.005069636671513712,0.076171875,,
2.5379150000000372,1200,,,,0.0625,0.0390625,-0.8984375,-0.0005128878440833292,0.03860325600732968,23.06947903293257,0.3722767325897567,933,0,8.588230276928037,0.050107344957152786,0.5834420287001888,0.7704111251621824,0.004494902297978188,0.076171875,,
2.5458300000000746,1200,,,,-0.09375,0.07421875,-0.935546875,-0.0005128878440833292,0.03860325600732968,23.068523781339216,0.4033967766452376,937,0,9.305768135356248,0.05034026150060375,0.5409576164845697,0.7668465529696682,0.004148314835038801,0.078125,,
2.553874999999069,1200,,,,-0.0625,0.017578125,-0.9375,-0.0005128878440833292,0.03860325600732968,23.067717943604354,0.4268283656974424,1143,0,9.845956350238213,0.06138589596767675,0.6234630114543579,0.628861978778587,0.003920721830784444,0.080078125,,
2.5620099999997765,1200,,,,-0.0625,0.09765625,-1.0390625,-0.0005128878440833292,0.03860325600732968,23.06700141190589,0.44093075387095904,1225,0,10.17095032209414,0.06580708706983043,0.6470102103131808,0.5866124413980865,0.0037954423908130447,0.080078125,,
2.571074999999255,1200,,,,-0.03125,0.033203125,-0.921875,0.005098764756168647,0.03860325600732968,23.067056105979123,0.4526818074662008,1259,0,10.442036650978892,0.6721713925561233,6.437167527975593,0.05743067383532911,0.0036969086872253804,0.080078125,,
2.5779899999992923,1200,,,,-0.0625,0.0859375,-0.9609375,0.005098764756168647,0.03860325600732968,23.066782857847574,0.45688210447180655,1270,0,10.538800295487592,0.6781994850923543,6.435262706161532,0.05692020836918338,0.003662964941451493,0.080078125,,
2.5853699999991804,1200,,,,-0.03125,-0.04296875,-0.9921875,0.005098764756168647,0.03860325600732968,23.066661758788356,0.45703246143249276,1357,0,10.542213200649796,0.7246439392024254,6.873736334205042,0.053272033227543585,0.003661779103931447,0.080078125,,
2.593214999999851,1200,,,,0,0,-1.03515625,0.005098764756168647,0.03860325600732968,23.06654593153758,0.45519361460527513,1395,0,10.499744419035194,0.7447547835587257,7.093075353420461,0.05183351199554359,0.003676590064168141,0.080078125,,
2.6035800000000746,1200,,,,-0.125,0.09765625,-0.9609375,0.005098764756168647,0.03860325600732968,23.066682917615974,0.4530992665227689,1412,0,10.45149711108508,0.7540816498121337,7.215058682954986,0.05119240869599069,0.00369356232863388,0.080078125,,
2.6111299999998883,1200,,,,-0.0625,0.01953125,-0.955078125,0.005098764756168647,0.03860325600732968,23.06690160833625,0.44584969301797145,1523,0,10.284371000952468,0.8132976178553403,7.90809294783335,0.047465103991237774,0.0037535845414128403,0.080078125,,
2.6192050000000746,1200,,,,-0.03125,0.0625,-0.986328125,0.005098764756168647,0.03860325600732968,23.06695087773896,0.43949533639852073,1551,0,10.137817335700039,0.8282245550876266,8.169653562123843,0.04660964924330871,0.003807846869699398,0.080078125,,
2.627074999999255,1200,,,,-0.03125,0.02734375,-0.970703125,0.005098764756168647,0.03860325600732968,23.067098032807074,0.43327386245550564,1563,0,9.994370660314116,0.8348116261058354,8.3528183462389,0.046241876370844474,0.0038624999331490083,0.080078125,,
2.634884999998845,1200,,,,-0.125,0.0390625,-1.0625,0.005098764756168647,0.03860325600732968,23.067276049356586,0.42683787491148967,1601,0,9.845987088904067,0.8546555532314637,8.680242473551662,0.045168203566185554,0.003920709590492314,0.08203125,,
2.6431249999990687,1200,,,,-0.03125,0.0703125,-0.953125,0.005098764756168647,0.03860325600732968,23.067505916062338,0.4202278425998796,1615,0,9.693608245266836,0.8622877751000342,8.895426277630616,0.04476841388926256,0.003982341253183897,0.080078125,,
2.6508999999994414,1200,,,,-0.0625,0.05859375,-0.9453125,0.005098764756168647,0.05746211858074868,23.067918949492316,0.4125227780802977,1621,0,9.516042009575713,0.8653181197404967,9.093256617296902,0.06640577294045477,0.006038447342175059,0.080078125,,
2.6592649999996647,1200,,,,-0.0625,0.080078125,-0.96875,0.005098764756168647,0.05746211858074868,23.068121191681037,0.40489155168190855,1632,0,9.340087383686052,0.8715894225231667,9.3317052262866,0.06592796687963631,0.006152203530891521,0.080078125,,
2.66680999999959,1200,,,,-0.0625,0.025390625,-0.974609375,0.005098764756168647,0.05746211858074868,23.068407111305625,0.3987274186533592,1646,0,9.198006419935686,0.879028356728651,9.556726931864844,0.06537003970451749,0.006247236189812364,0.080078125,,
2.674804999999702,1200,,,,0,0.09375,-0.99609375,0.005098764756168647,0.05746211858074868,23.068585808233077,0.39088659643525714,1652,0,9.017200991154903,0.8820187487229537,9.78151368244024,0.06514840944588333,0.0063725005838412676,0.080078125,,
2.6829049999993293,1200,,,,-0.03125,0.041015625,-0.978515625,0.005098764756168647,0.05746211858074868,23.06875031676152,0.38388198439031035,1654,0,8.855677649003013,0.8831660195308111,9.972879033489203,0.06506377884791795,0.006488731959119792,0.080078125,,
2.6973999999994414,1200,,,,-0.0625,0.03125,-0.89453125,0.005098764756168647,0.05746211858074868,23.06933610256179,0.3697457610921117,1665,0,8.529789235131439,0.8890289957577245,10.422637315540015,0.06463469566791057,0.0067366399094693705,0.080078125,,
2.704745000000112,1200,,,,-0.0625,0.09765625,-0.98828125,0.005098764756168647,0.05746211858074868,23.069506047464426,0.36372127523639186,1666,0,8.390870158657416,0.8897165760765752,10.603388674279458,0.06458474544123036,0.006848171583427639,0.080078125,,
2.71305999999959,1200,,,,0,0.0234375,-0.951171875,0.005098764756168647,0.05746211858074868,23.069630690336087,0.3555364242104153,1670,0,8.202094003496947,0.8917528892626511,10.872258826617372,0.06443726650357301,0.0070057863950656754,0.080078125,,
2.721269999999553,1200,,,,0,0.02734375,-1.015625,0.012394464469886944,0.05746211858074868,23.069844646696502,0.34855586477675005,1675,0,8.041129651094577,2.1737409710979274,27.03278103222764,0.02643466693813354,0.007146025629984314,0.080078125,,
2.729069999999367,1200,,,,-0.09375,0.068359375,-1.00390625,0.012394464469886944,0.05746211858074868,23.070049370134537,0.34364011410321227,1677,0,7.927794397919773,2.1761219439412156,27.449273211628984,0.02640574382365629,0.007248184765718261,0.080078125,,
2.736785000000149,1200,,,,-0.0625,0.033203125,-0.962890625,0.012394464469886944,0.05746211858074868,23.07020917004073,0.3392897831622907,1680,0,7.8274862668118095,2.1799411560916493,27.849824091477515,0.026359481502597423,0.007341069229898937,0.080078125,,
2.7440599999995903,1200,,,,0,0.0703125,-0.99609375,0.012394464469886944,0.05746211858074868,23.070286291188836,0.3377731175912201,1683,0,7.79252252429684,2.1840592799468848,28.027628706071194,0.026309779733701244,0.007374007377146951,0.080078125,,
2.7541699999999256,1200,,,,0,0.021484375,-0.900390625,0.012394464469886944,0.05746211858074868,23.070440292462678,0.33629096224467103,1684,0,7.758380565360504,2.1860239579954506,28.176291941073067,0.02628613395135913,0.007406457842156473,0.080078125,,
2.761959999999963,1200,,,,-0.03125,0.01953125,-0.984375,0.012394464469886944,0.05746211858074868,23.070772759167053,0.33072979188356355,1688,0,7.630191873232307,2.1913491121548208,28.719449635891266,0.026222256536862085,0.007530887759498312,0.080078125,,
2.771859999999404,1200,,,,0,-0.02734375,-0.953125,0.012394464469886944,0.05746211858074868,23.071042433784687,0.32364307538794745,1693,0,7.466783125675912,2.1971961878418886,29.4262756914209,0.02615247509471998,0.007695699421502491,0.080078125,,
2.7802199999997392,1200,,,,-0.08203125,0.052734375,-1.03515625,0.012394464469886944,0.05746211858074868,23.07102044607127,0.3193368975273551,1695,0,7.367428092038575,2.1995430794836937,29.85496501636133,0.026124570651390448,0.007799481428647218,0.080078125,,
2.7893349999990313,1200,,,,-0.0625,0.0390625,-0.94140625,0.012394464469886944,0.05746211858074868,23.07092760168124,0.3163483224383386,1700,0,7.298449243888223,2.2068327655054873,30.237009147573453,0.026038275069559542,0.007873195614653055,0.080078125,,
2.797004999998957,1200,,,,-0.0625,0.06640625,-0.962890625,0.012394464469886944,0.05746211858074868,23.0710762337917,0.31276238657723093,1702,0,7.215764863785925,2.209277403612596,30.617369680384034,0.02600946286183301,0.007963413396289606,0.080078125,,
2.805120000000112,1200,,,,-0.03125,0.05859375,-0.984375,0.012394464469886944,0.25788286271989647,23.071122141939885,0.3074808807263956,1703,0,7.093928955549923,2.2102657373966337,31.157145091894893,0.11667504877655316,0.03635261423334981,0.080078125,,
2.8130400000000373,1200,,,,0.0625,0.01953125,-0.90625,0.012394464469886944,0.25788286271989647,23.071293979335046,0.3027927788668655,1708,0,6.985821216057242,2.216811575826155,31.733013303156234,0.11633052873417508,0.03691518215884776,0.080078125,,
2.822070000000298,1200,,,,-0.03125,0.048828125,-0.9453125,0.012394464469886944,0.25788286271989647,23.071710475212004,0.2968602333129853,1710,0,6.8490733546010825,2.2196241014535856,32.407655554783666,0.1161831242285639,0.037652226712779395,0.080078125,,
2.830069999999367,1200,,,,-0.03125,0.021484375,-0.990234375,0.012394464469886944,0.25788286271989647,23.072011652421615,0.2931563460034396,1711,0,6.763706630972701,2.2205301767944743,32.83007820927821,0.11613571633247177,0.03812744650085598,0.080078125,,
2.8381349999997765,1200,,,,0,0.01171875,-1,0.012394464469886944,0.25788286271989647,23.072339519078444,0.2890962070146121,1709,0,6.670125841918917,2.2187523894299077,33.264025927157,0.11622877070395296,0.03866236842177877,0.080078125,,
2.84605999999959,1200,,,,-0.09375,0.0546875,-1.017578125,0.012394464469886944,0.25788286271989647,23.072453525312742,0.28610994405203766,1708,0,6.601258387270468,2.2169841591529806,33.58426574284837,0.11632147286899108,0.039065712564317234,0.080078125,,
2.857229999999516,1200,,,,-0.03125,0.02734375,-0.99609375,0.012394464469886944,0.25788286271989647,23.072989168470585,0.2804556725594833,1707,0,6.470950695201091,2.2161587344970823,34.24780745340254,0.11636479765896299,0.039852391845783104,0.080078125,,
2.872769999999553,1200,,,,0,0.029296875,-0.91015625,0.013405429329988228,0.25788286271989647,23.072995890682684,0.2744719629970345,1702,0,6.332890474338187,2.389775670826136,37.73593875513657,0.10791090806893491,0.04072119417900501,0.080078125,,
2.879629999998957,1200,,,,-0.0625,0.015625,-0.9453125,0.013405429329988228,0.25788286271989647,23.07295324630477,0.2715548511816889,1701,0,6.265572385122359,2.3884626596518634,38.12042241062098,0.10797023000455233,0.04115870775545439,0.080078125,,
2.8866299999998883,1200,,,,-0.0625,0.046875,-1.015625,0.013405429329988228,0.25788286271989647,23.07308360132189,0.2687686748073939,1701,0,6.201322103247496,2.387674841915822,38.50267414210671,0.10800585498190217,0.041585142398078125,0.080078125,,
2.893304999999702,1200,,,,-0.03125,0.021484375,-0.998046875,0.013405429329988228,0.25788286271989647,23.073121316630214,0.2662067202772707,1701,0,6.142219952259712,2.387337198859637,38.86766051061619,0.10802113033847073,0.041985286219687036,0.078125,,
2.900714999999851,1200,,,,-0.125,0.0625,-1.02734375,0.013405429329988228,0.25788286271989647,23.07318985673579,0.26355778715702727,1700,0,6.081118861295252,2.3871776381051197,39.25556616396511,0.10802835055232725,0.04240714062690899,0.080078125,,
2.910039999999106,1200,,,,-0.0625,0.041015625,-0.970703125,0.013405429329988228,0.25788286271989647,23.073132984297956,0.2614486689079345,1700,0,6.032439906280459,2.3871065648598577,39.57116195015233,0.10803156696736589,0.04274934632194362,0.080078125,,
2.9193699999991805,1200,,,,-0.0625,0.09375,-0.984375,0.013405429329988228,0.25788286271989647,23.07330911141123,0.2577999436700327,1699,0,5.948297789203068,2.3847748800187625,40.09171975800267,0.10813719352741066,0.043354060583178484,0.080078125,,
2.936539999999106,1200,,,,-0.125,0.1171875,-1.0625,0.013405429329988228,0.25788286271989647,23.073169616059513,0.2536080506630265,1697,0,5.8515415689462245,2.3829289851801487,40.72309761629667,0.10822096013927188,0.0440709272388092,0.080078125,,
2.9444199999999254,1200,,,,-0.03125,0.02734375,-0.96484375,0.013405429329988228,0.25788286271989647,23.073210553803516,0.2512858389320923,1696,0,5.797971070869322,2.380624667272754,41.05961616872665,0.10832571226581775,0.04447812166838401,0.080078125,,
2.9590249999994414,1200,,,,-0.125,0.1015625,-1.0625,0.013405429329988228,0.3391028406325169,23.073431106828746,0.24945395261977213,1695,0,5.755758590098434,2.379512843594824,41.341428872438684,0.14250935503261283,0.05891540364737875,0.080078125,,
2.966769999999553,1200,,,,-0.041015625,0.04296875,-0.97265625,0.013405429329988228,0.3391028406325169,23.073397150166606,0.2478404317127567,1695,0,5.718520710777182,2.3794128783969115,41.60888801036684,0.14251534221374038,0.059299049139306295,0.080078125,,
2.991,1200,,,,-0.01953125,0.017578125,-0.978515625,0.013405429329988228,0.3391028406325169,23.073554850250684,0.24424648271958646,1695,0,5.635634616011184,2.3794313965834224,42.22117931179058,0.14251423307241712,0.060171189890328394,0.080078125,,
2.999209999999963,1200,,,,-0.09375,0.0703125,-0.9921875,0.013405429329988228,0.3391028406325169,23.073483687872688,0.24239589871087566,1695,0,5.59291781491263,2.379255329109868,42.540502253867565,0.14252477928015517,0.060630756941994185,0.080078125,,
3.0070749999992548,1200,,,,-0.03125,0.02734375,-0.95703125,0.013405429329988228,0.3391028406325169,23.073609958876354,0.24271440692830756,1695,0,5.600297556863765,2.379178257669443,42.483068685404135,0.14252939624821964,0.06055086130502298,0.080078125,,
3.015269999999553,1200,,,,-0.0625,0.0234375,-0.98046875,0.01232480965126594,0.3391028406325169,23.073596775440173,0.2411888003072484,1694,0,5.565093125041611,2.186951730445698,39.29766638773625,0.15505730460882564,0.06093390227499228,0.080078125,,
3.0234749999996273,1200,,,,0.03125,0.017578125,-0.9453125,0.01232480965126594,0.3391028406325169,23.07331732256958,0.2397789567076448,1694,0,5.532495955390162,2.1867701619863986,39.52592427755663,0.15507017908296575,0.061292921561404506,0.080078125,,
3.034469999999739,1200,,,,-0.0625,0.07421875,-1.021484375,0.01232480965126594,0.3391028406325169,23.07331841131782,0.23699172222407247,1694,0,5.46818546772261,2.1866896560497464,39.98931032894279,0.15507588820130333,0.062013778178183564,0.080078125,,
3.042410000000149,1200,,,,-0.03125,0.015625,-0.9609375,0.01232480965126594,0.3391028406325169,23.073513641743602,0.23592708673306254,1693,0,5.443666854192145,2.1854192378668102,40.14608712110713,0.15516603622631028,0.06229309208578317,0.080078125,,
3.0500099999997765,1200,,,,-0.0625,0.015625,-1.0859375,0.01232480965126594,0.3391028406325169,23.073504700732432,0.23489312196291764,1693,0,5.419807553781097,2.184908693608497,40.31339991185126,0.15520229363565297,0.06256732130570647,0.080078125,,
3.0574500000001863,1200,,,,-0.03125,-0.009765625,-0.916015625,0.01232480965126594,0.3391028406325169,23.073525827280804,0.23423617241280179,1693,0,5.404654373850182,2.184725966694499,40.42304679583309,0.15521527450217526,0.0627427430462951,0.080078125,,
3.0675649999994783,1200,,,,-0.0625,0.09375,-0.939453125,0.01232480965126594,0.3391028406325169,23.073648064634934,0.23414893664341904,1693,0,5.402670158818753,2.1856185411759044,40.4544137792371,0.15515188686589065,0.06276578629902121,0.080078125,,
3.0848749999990686,1200,,,,-0.03125,0.013671875,-0.990234375,0.01232480965126594,0.3391028406325169,23.07378426723224,0.23375206252888633,1694,0,5.393544662812105,2.186836235274163,40.545436665281684,0.155065493777134,0.0628719815691142,0.080078125,,
3.0944749999996275,1200,,,,-0.09375,0.068359375,-1.009765625,0.01232480965126594,0.3391028406325169,23.07391838842941,0.23249240997441575,1695,0,5.364510893678941,2.187178550995165,40.771257517108225,0.15504122444791957,0.06321225687733906,0.080078125,,
3.1032949999999255,1200,,,,-0.0625,0.0546875,-1.0078125,0.01232480965126594,0.3590991894281533,23.074034006978373,0.23104363505962944,1695,0,5.3311086924617905,2.187286845078279,41.028742260894276,0.16417562709535782,0.06735919489616128,0.08203125,,
3.1123449999997392,1200,,,,-0.03125,0.0703125,-0.95703125,0.01232480965126594,0.3590991894281533,23.074287923340357,0.22969583519749118,1695,0,5.300067836139047,2.1873250412400944,41.269755574175825,0.16417276017859858,0.0677536968450855,0.080078125,,
3.121070000000298,1200,,,,0.03125,-0.017578125,-0.904296875,0.01232480965126594,0.3590991894281533,23.074470356941518,0.22823284036867558,1695,0,5.26635190956757,2.1873380269446066,41.534216940018595,0.16417178552405212,0.06818746555386186,0.080078125,,
3.128514999999665,1200,,,,-0.0625,0.0703125,-1.05859375,0.01232480965126594,0.3590991894281533,23.07444517450692,0.22741133870414543,1695,0,5.247390466990027,2.18734338698301,41.68440295691773,0.16417138322458677,0.06843386092328237,0.080078125,,
3.1357299999995156,1200,,,,-0.03125,0.068359375,-1.013671875,0.01232480965126594,0.3590991894281533,23.074601252605703,0.2297750542901501,1695,0,5.301967755541041,2.1873451446857612,41.25534604392465,0.16417125130005134,0.06772941782847733,0.080078125,,
3.1441849999995903,1200,,,,-0.0625,0.029296875,-0.974609375,0.01232480965126594,0.3590991894281533,23.07476788557125,0.2310248032447756,1695,0,5.330843710682965,2.187136481346433,41.02796105170802,0.1641869140270051,0.06736254313900099,0.080078125,,
3.1523549999995155,1200,,,,0,0.01171875,-0.93359375,0.01232480965126594,0.3590991894281533,23.07489462723688,0.2332404099352401,1695,0,5.381997882069199,2.1870538067177687,40.636467249535954,0.1641931205922515,0.06672228367546135,0.080078125,,
3.160199999999255,1200,,,,-0.0625,0.05859375,-0.96484375,0.01232480965126594,0.3590991894281533,23.074753814636225,0.23130360973658523,1695,0,5.337273851108399,2.18702162036613,40.97638010296115,0.16419553701898768,0.06728138736099866,0.080078125,,
3.168584999999031,1200,,,,0,0.0546875,-0.89453125,0.010800109725761663,0.3590991894281533,23.074552572727693,0.22922471814190876,1697,0,5.289257809734161,1.9188496757429967,36.278240629746094,0.18714295026217032,0.0678921698177162,0.080078125,,
3.1762049999991433,1200,,,,0,0.033203125,-0.92578125,0.010800109725761663,0.3590991894281533,23.074228712231847,0.22809793931982777,1697,0,5.263184020654488,1.9197894873618646,36.47581919666823,0.18705133650961908,0.06822850731020015,0.080078125,,
3.184664999999106,1200,,,,-0.03125,0.060546875,-1.0234375,0.010800109725761663,0.3590991894281533,23.074217587042984,0.2263997949895977,1698,0,5.223998131251901,1.9201558479592267,36.75644209120482,0.18701564761517134,0.06874029821716211,0.080078125,,
3.1933300000000746,1200,,,,-0.09375,0.076171875,-1.025390625,0.010800109725761663,0.3590991894281533,23.07416932085847,0.2257836168720094,1700,0,5.209769405580582,1.9222586071922643,36.89719174774197,0.18681107114545292,0.06892803912654842,0.080078125,,
3.2014899999992923,1200,,,,-0.0625,0.08984375,-1.05078125,0.010800109725761663,0.3590991894281533,23.074062308403633,0.22418523646886743,1700,0,5.172864114906849,1.922978716046095,37.17435202878364,0.1867411149336639,0.06941979944791568,0.080078125,,
3.2104749999996276,1200,,,,-0.03125,0.056640625,-0.984375,0.010800109725761663,0.3590991894281533,23.073875904513592,0.22249451730059583,1701,0,5.133810881628601,1.923276945662085,37.4629488699039,0.18671215824538154,0.06994788037736133,0.080078125,,
3.220905000000261,1200,,,,-0.0625,0.09375,-1,0.010800109725761663,0.3590991894281533,23.073654242919375,0.22171096983606195,1699,0,5.1156822598596206,1.9211697758433632,37.554517232586726,0.1869169471347291,0.07019575712233686,0.080078125,,
3.2284249999998136,1200,,,,-0.01953125,0.056640625,-0.94921875,0.010800109725761663,0.3590991894281533,23.073545010230006,0.22342586796696526,1698,0,5.1552268209854795,1.920207345292596,37.24777613035321,0.18701063211141644,0.06965730158881883,0.080078125,,
3.2363749999990685,1200,,,,-0.0625,0.05859375,-1.00390625,0.010800109725761663,0.3590991894281533,23.073535293389238,0.22304341175900008,1698,0,5.146400033179237,1.9199613240741356,37.306880765117306,0.18703459539807238,0.06977677349467845,0.080078125,,
3.2447999999988824,1200,,,,-0.03125,0.048828125,-1.015625,0.010800109725761663,0.3590991894281533,23.073649620955056,0.2225751049311308,1696,0,5.135619985528218,1.9182530152955133,37.35192675277771,0.18720115989122157,0.06992324012291937,0.080078125,,
3.252644999999553,1200,,,,-0.03125,0.052734375,-1.01953125,0.010800109725761663,0.3677759874475365,23.07355809642904,0.2216785708329394,1695,0,5.114913382847187,1.917479628095933,37.48801757867851,0.19180177043796803,0.07190268141800205,0.080078125,,
3.260269999999553,1200,,,,0,0.00390625,-0.9375,0.010800109725761663,0.3677759874475365,23.07340425732213,0.22214517210559562,1695,0,5.125645359804808,1.9172391432766767,37.40483409780204,0.1918258286856095,0.07175213297658617,0.080078125,,
3.2677649999996645,1200,,,,-0.0625,0.09375,-0.9921875,0.010800109725761663,0.3677759874475365,23.07340119597197,0.2220281904624533,1695,0,5.1229455153558625,1.9169623578123298,37.41914396837323,0.19185352594364383,0.07178994708125236,0.080078125,,
3.2754850000003355,1200,,,,0.03125,0.029296875,-0.916015625,0.010800109725761663,0.3677759874475365,23.073332167479293,0.22061778197554838,1695,0,5.090387365574354,1.9168335905493847,37.65594743364106,0.19186641410125121,0.07224911603677925,0.080078125,,
3.283289999999106,1200,,,,-0.03125,0.052734375,-1.046875,0.010800109725761663,0.3677759874475365,23.073135848610544,0.22578187985926668,1695,0,5.209495986147525,1.9167830914789157,36.794021851169454,0.19187146896406246,0.07059723021679695,0.080078125,,
3.291304999999702,1200,,,,0,0.01953125,-0.9765625,0.010800109725761663,0.3677759874475365,23.073014172469485,0.22942252660793466,1697,0,5.293469207908634,1.9193468941625271,36.25877130436413,0.19161517314357546,0.06947730741459039,0.080078125,,
3.2985250000003727,1200,,,,-0.0625,0.025390625,-1.037109375,0.010800109725761663,0.3677759874475365,23.0732222701475,0.2273748771725627,1699,0,5.246271079650026,1.9214443319599968,36.62495328183031,0.19140600710111716,0.07010236067940097,0.080078125,,
3.3065349999992177,1200,,,,-0.125,0.08203125,-1.09375,0.010800109725761663,0.3677759874475365,23.0732605463845,0.2263464148405888,1700,0,5.222549803356936,1.9224707478073595,36.81096054979962,0.19130381456622786,0.07042077171023595,0.080078125,,
3.3156349999997765,1200,,,,-0.0625,0.044921875,-0.962890625,0.010800109725761663,0.3677759874475365,23.07341354456763,0.22401937740252925,1700,0,5.168891736805126,1.9229025046029005,37.20144670299169,0.1912608603749705,0.07115180703607801,0.080078125,,
3.323734999999404,1200,,,,-0.0625,0.060546875,-0.935546875,0.0117302263775451,0.3677759874475365,23.073541406006218,0.2212190079522762,1706,0,5.1043059397824635,2.0953472623233313,41.05058135313557,0.17552030351271924,0.07205210498475928,0.080078125,,
3.331569999999367,1200,,,,-0.03125,0.072265625,-0.953125,0.0117302263775451,0.3677759874475365,23.073563810060644,0.22049899817761504,1708,0,5.087697704505646,2.0980085146417147,41.236894102095064,0.17529766198796531,0.07228731123742581,0.080078125,,
3.3390849999990313,1200,,,,0,-0.03125,-0.89453125,0.0117302263775451,0.3677759874475365,23.073552554253524,0.21981067968813145,1709,0,5.0718132697702885,2.0990665135853193,41.38690448436777,0.17520930616884323,0.07251370819182262,0.080078125,,
3.3473199999993666,1200,,,,-0.0625,0.05859375,-1.0234375,0.0117302263775451,0.3677759874475365,23.07347685433611,0.22011065443780084,1707,0,5.078718090563371,2.097061715193163,41.29116201762915,0.17537680688317756,0.07241512147147744,0.08203125,,
3.3566199999991806,1200,,,,-0.03125,0.0390625,-1.001953125,0.0117302263775451,0.3677759874475365,23.073404449853015,0.21965256143985806,1707,0,5.068132388548034,2.0962649750507056,41.361685416652335,0.17544346340979175,0.07256637341963759,0.08203125,,
3.3652549999998884,1200,,,,-0.125,0.0390625,-1.00390625,0.0117302263775451,0.3677759874475365,23.073440645621652,0.218060280973123,1705,0,5.031400950200934,2.0944268738743475,41.62711130765089,0.17559743528653785,0.07309613984010735,0.08203125,,
3.375699999999255,1200,,,,-0.0625,0.04296875,-0.955078125,0.0117302263775451,0.3677759874475365,23.0736373917183,0.21882244984367816,1703,0,5.049029860860495,2.0914202685956376,41.42222023300138,0.17584987243835667,0.0728409214408681,0.08203125,,
3.384769999999553,1200,,,,-0.09375,0.083984375,-0.958984375,0.0117302263775451,0.3677759874475365,23.073300768250153,0.21863173947243508,1701,0,5.044555882333204,2.0897396120608014,41.4256410436325,0.1759912983057508,0.07290552350416882,0.08203125,,
3.400639999999665,1200,,,,-0.03125,0.01953125,-0.9921875,0.0117302263775451,0.3893396328021779,23.073461684832505,0.2195633002786011,1698,0,5.066085396373676,2.0864043029696013,41.18375707727031,0.18660795141575712,0.076852165397936,0.08203125,,
3.4077649999996646,1200,,,,-0.0625,0.05078125,-0.98828125,0.0117302263775451,0.3893396328021779,23.07345607659708,0.21898761170579978,1698,0,5.0528010400126675,2.085861966598647,41.28130021508659,0.18665647057991208,0.0770542179909783,0.080078125,,
3.4159249999998136,1200,,,,-0.0625,0.03125,-0.9921875,0.0117302263775451,0.3893396328021779,23.07338952357975,0.21900876437166764,1698,0,5.053274529425382,2.085237884783435,41.265082129241684,0.1867123341865685,0.07704699804751168,0.080078125,,
3.424234999999404,1200,,,,-0.09375,0.087890625,-1.033203125,0.0117302263775451,0.3893396328021779,23.073525707896017,0.21812503333569205,1697,0,5.032913564206766,2.0847515457562165,41.422359417865195,0.18675589117308944,0.07735869647575429,0.08203125,,
3.4325749999992548,1200,,,,-0.0625,0.07421875,-0.951171875,0.0117302263775451,0.3893396328021779,23.07354920326437,0.21883332971291644,1697,0,5.049261600445153,2.0845746809744603,41.284743115521685,0.18677173639093433,0.07710823158139657,0.08203125,,
3.440519999999553,1200,,,,0,0.01953125,-0.947265625,0.0117302263775451,0.3893396328021779,23.073473204344328,0.2190767552217821,1697,0,5.054861641304491,2.0841057935459064,41.229729742079904,0.186813756771797,0.0770228070380384,0.080078125,,
3.44843499999959,1200,,,,0,0.01171875,-0.9765625,0.0117302263775451,0.3893396328021779,23.07340084696543,0.21930822790946997,1696,0,5.060186651592852,2.0831216153067595,41.166892819082705,0.18690201759768305,0.07694175326114129,0.080078125,,
3.4566049999995156,1200,,,,-0.0625,0.0625,-1,0.0117302263775451,0.3893396328021779,23.07352708533177,0.2189987702623478,1696,0,5.053074057302632,2.0827358911333618,41.21720496305454,0.18693663198472615,0.07705005475617556,0.080078125,,
3.4656749999988823,1200,,,,-0.0625,0.03125,-1.01171875,0.0117302263775451,0.3893396328021779,23.073780007171646,0.21880760324080153,1695,0,5.048718501074752,2.082581688175138,41.24970896539004,0.18695047354581168,0.07711652624706582,0.080078125,,
3.4759999999990687,1200,,,,-0.08203125,0.0546875,-0.97265625,0.012842650976912106,0.3893396328021779,23.073796258957287,0.21837654758468117,1695,0,5.038775966703424,2.279217279567175,45.23355066048577,0.17082163964469146,0.07726869290775396,0.08203125,,
3.4835699999993666,1200,,,,-0.0625,0.072265625,-0.95703125,0.012842650976912106,0.3893396328021779,23.073890232046015,0.2180524966320243,1695,0,5.031319372110913,2.279033982947523,45.29694528199556,0.17083537837318102,0.0773832078639899,0.08203125,,
3.4915199999995528,1200,,,,0,0.02734375,-0.88671875,0.012842650976912106,0.3893396328021779,23.073992421847613,0.2176996915797069,1694,0,5.02320103374872,2.2780811724942605,45.35118457710166,0.17090683049537334,0.07750827215283103,0.08203125,,
3.4995699999993666,1200,,,,-0.03125,0.029296875,-0.9765625,0.012842650976912106,0.3893396328021779,23.073894256743582,0.21682291198602813,1693,0,5.002948943604833,2.2768239561676924,45.50963805213542,0.1710012018045994,0.07782202800607485,0.080078125,,
3.507745000000112,1200,,,,0,0.015625,-0.984375,0.012842650976912106,0.3893396328021779,23.073934433511116,0.21560622133576426,1693,0,4.974883814558511,2.276316058567666,45.75616523759308,0.17103935604055065,0.07826105037122949,0.080078125,,
3.5155599999995903,1200,,,,-0.0625,0.041015625,-1.033203125,0.012842650976912106,0.3893396328021779,23.074092086206022,0.21618752386610052,1692,0,4.988330833575265,2.2761363162639663,45.62921731140677,0.17105286270430287,0.0780500824407286,0.080078125,,
3.5257299999995158,1200,,,,-0.03125,0.04296875,-0.94140625,0.012842650976912106,0.3893396328021779,23.073988510091116,0.21699390729763887,1692,0,5.006914923745496,2.2754036666866257,45.445223283012695,0.17110793944053124,0.07776038513371158,0.080078125,,
3.5332849999992177,1200,,,,0.03125,0.021484375,-0.94140625,0.012842650976912106,0.3893396328021779,23.07394886053165,0.21635450453919006,1692,0,4.9921527734829345,2.275087258393378,45.5732699223083,0.17113173631727951,0.07799032811460671,0.080078125,,
3.541664999999106,1200,,,,-0.0625,0.0234375,-0.984375,0.012842650976912106,0.3893396328021779,23.07404551242658,0.21609097168494143,1692,0,4.986092915482822,2.2749952959023703,45.626813107273875,0.17113865400224818,0.07808511381590985,0.080078125,,
3.549269999999553,1200,,,,-0.03125,0.0234375,-0.982421875,0.012842650976912106,0.39839172856865,23.074043270889206,0.21626134591661517,1692,0,4.990023653500717,2.2751779358620317,45.59453208735585,0.17510354785402982,0.07983764331240413,0.080078125,,
3.5578399999989196,1200,,,,-0.0625,0.01171875,-1.0390625,0.012842650976912106,0.39839172856865,23.074139595509926,0.21994110380202248,1692,0,5.074951731918405,2.2752468346873913,44.83287634791582,0.17509824538373098,0.07850157984025834,0.080078125,,
3.5657400000002237,1200,,,,-0.0625,0.099609375,-1.01953125,0.012842650976912106,0.39839172856865,23.074165333827786,0.22383826996154363,1692,0,5.1648812491306355,2.276070754731321,44.06821076698393,0.17503486117050798,0.07713473153631717,0.080078125,,
3.574410000000149,1200,,,,-0.0625,0.05078125,-0.98046875,0.012842650976912106,0.39839172856865,23.074194244164655,0.22471100977638964,1694,0,5.185025488382797,2.2781575697286867,43.93724919642085,0.17487452749639956,0.07683505692715657,0.080078125,,
3.5817849999992175,1200,,,,-0.0625,0.046875,-0.95703125,0.012842650976912106,0.39839172856865,23.0742156605282,0.2240794353118389,1694,0,5.170457215474749,2.27879122657649,44.07330206226748,0.17482590064521542,0.07705154727444541,0.080078125,,
3.5891999999992548,1200,,,,0.03125,0.009765625,-0.916015625,0.012842650976912106,0.39839172856865,23.07429281147538,0.22303492783409687,1695,0,5.146373232030232,2.2790504545363848,44.284593281185415,0.17480601527520495,0.07741213289567135,0.080078125,,
3.5960949999997394,1200,,,,-0.0625,0.07421875,-1.009765625,0.012842650976912106,0.39839172856865,23.07428038440041,0.22177192194424306,1701,0,5.117227508328827,2.2876983507459863,44.70581671466661,0.17414521824467816,0.07785304208582197,0.080078125,,
3.60330999999959,1200,,,,0,0.04296875,-1.05078125,0.012842650976912106,0.39839172856865,23.074356338103605,0.22051930992020816,1704,0,5.0883411365315885,2.2915820455198173,45.03593576042837,0.1738500828925284,0.07829501165093057,0.080078125,,
3.611674999999814,1200,,,,0,-0.02734375,-0.9609375,0.012842650976912106,0.39839172856865,23.0744380410389,0.22003419209135103,1705,0,5.077165332321931,2.2933586518383295,45.17006049100851,0.17371540567773985,0.07846735382683594,0.080078125,,
3.619824999999255,1200,,,,-0.09375,0.052734375,-1.033203125,0.012842650976912106,0.39839172856865,23.074318569976445,0.22000558493448572,1705,0,5.076478953952334,2.292831527171364,45.165784158058244,0.17375534305398385,0.07847796320685599,0.080078125,,
3.6285999999996275,1200,,,,-0.03125,0.0625,-0.978515625,0.010788943556130963,0.39839172856865,23.07441000392424,0.2189140538503718,1704,0,5.051312634164629,1.9249183593800456,38.10729010041531,0.2069655196685636,0.07886895098793165,0.080078125,,
3.6366299999998883,1200,,,,-0.0625,0.1015625,-0.99609375,0.010788943556130963,0.39839172856865,23.074554338078165,0.218726141910198,1703,0,5.04700824666506,1.9244840290743939,38.13118455564336,0.20701222901821734,0.07893621509968754,0.080078125,,
3.6449649999989195,1200,,,,0,0.0390625,-0.94140625,0.010788943556130963,0.39839172856865,23.074690633723957,0.21897452820161414,1700,0,5.052769494917908,1.9208072310853992,38.01493879776929,0.20740849061856614,0.07884621077002497,0.080078125,,
3.6533849999997763,1200,,,,-0.03125,0.025390625,-0.935546875,0.010788943556130963,0.39839172856865,23.074761954523183,0.21988685922845022,1699,0,5.073836933624238,1.9192759836622229,37.82691499096494,0.20757396641230716,0.07851882781815755,0.080078125,,
3.6614299999997018,1200,,,,0,0.0078125,-1.00390625,0.010788943556130963,0.39839172856865,23.074823031633198,0.21900764668802336,1698,0,5.053562689900588,1.9187493279949757,37.96825023719496,0.20763094102810975,0.07883383525939541,0.080078125,,
3.6689900000002234,1200,,,,-0.0625,0.07421875,-1.0390625,0.010788943556130963,0.39839172856865,23.07487926599847,0.21861349253478138,1699,0,5.044479946158338,1.9190920670384604,38.0434075964552,0.20759385931048502,0.07897577804269958,0.080078125,,
3.6779399999994786,1200,,,,-0.0625,0.0859375,-1.05078125,0.010788943556130963,0.39839172856865,23.074841441630234,0.21808895138791806,1699,0,5.032367973447613,1.9197364643769408,38.14777604710319,0.20752417634466816,0.0791658580355595,0.080078125,,
3.6863549999995158,1200,,,,-0.01953125,0.009765625,-0.9453125,0.010788943556130963,0.39839172856865,23.07499337353966,0.2176427315387449,1699,0,5.022104588055609,1.9200725453513856,38.23242849059767,0.20748785223411534,0.0793276447320851,0.080078125,,
3.695024999999441,1200,,,,0,0.08984375,-0.9375,0.010788943556130963,0.38864318447201196,23.07504914639816,0.21750218118395356,1698,0,5.018873520268526,1.9186113261595104,38.22792741062856,0.20256483383216556,0.0774363376368206,0.080078125,,
3.704125,1200,,,,0,0.060546875,-0.966796875,0.010788943556130963,0.38864318447201196,23.07489763043833,0.2159802793568584,1696,0,4.98372283635298,1.9166375091647385,38.457947444110026,0.20277344182906076,0.0779825036892332,0.080078125,,
3.713364999999292,1200,,,,0,-0.01171875,-0.990234375,0.010788943556130963,0.38864318447201196,23.07496688729695,0.21456494275432467,1696,0,4.951078949230807,1.9157767554980938,38.69412657610169,0.20286454742529036,0.0784966647587777,0.080078125,,
3.7205099999997766,1200,,,,-0.0625,0.03125,-1.0078125,0.010788943556130963,0.38864318447201196,23.074843816414695,0.2145875668078842,1695,0,4.951574589036382,1.9153324704057988,38.6812807919054,0.20291160437000827,0.07848880744572306,0.080078125,,
3.7273849999997766,1200,,,,-0.0625,0.025390625,-0.990234375,0.010788943556130963,0.38864318447201196,23.074893914742677,0.21536180546098913,1695,0,4.969450814299774,1.9150138383968267,38.53572376420962,0.20294536607493582,0.07820646566290126,0.080078125,,
3.734759999998845,1200,,,,-0.03125,0.033203125,-0.966796875,0.010788943556130963,0.38864318447201196,23.074685854934422,0.2147053236641484,1695,0,4.954257894932242,1.9148766987701513,38.65113079254306,0.20295990061481345,0.07844629664304695,0.080078125,,
3.7429000000003727,1200,,,,0.0625,0,-0.9296875,0.010788943556130963,0.38864318447201196,23.07481585870564,0.2145119711447071,1695,0,4.949824233652095,1.9148111371084322,38.68442689520796,0.202966849805827,0.0785165626346417,0.080078125,,
3.751910000000149,1200,,,,-0.03125,0.00390625,-0.974609375,0.010788943556130963,0.38864318447201196,23.07488120301075,0.21550284345624868,1693,0,4.972702511663961,1.912646176699229,38.462911710743406,0.2031965918247971,0.07815532571281136,0.080078125,,
3.7602099999990313,1200,,,,-0.0625,0.041015625,-0.951171875,0.010788943556130963,0.38864318447201196,23.074738721407673,0.216127446440756,1692,0,4.987084357145475,1.9119145108559532,38.33732044489221,0.20327435262679117,0.07792993994881307,0.080078125,,
3.768664999999106,1200,,,,-0.125,0.0859375,-1.03515625,0.010788943556130963,0.38864318447201196,23.074734826922523,0.21607226053392664,1692,0,4.985810115274074,1.9116136484935653,38.341084082551,0.20330634528492705,0.07794985679085534,0.080078125,,
3.7770949999988077,1200,,,,-0.0625,0.0625,-0.98046875,0.009956500063027233,0.38864318447201196,23.074599830004843,0.22154260019904587,1692,0,5.112006844891734,1.7640232450341704,34.5074507636253,0.22031636236430868,0.07602556026707412,0.080078125,,
3.7842249999996276,1200,,,,-0.0625,0.056640625,-0.986328125,0.009956500063027233,0.38864318447201196,23.07466666788344,0.23263600583466454,1692,0,5.367998289582672,1.7639863794686195,32.861157629127305,0.22032096675774004,0.07240002017627814,0.080078125,,
3.792864999999292,1200,,,,-0.0625,0.01171875,-0.95703125,0.009956500063027233,0.38864318447201196,23.07433716755875,0.24088780947972951,1692,0,5.558326535489933,1.7639711622105962,31.735651925946318,0.220322867401623,0.06992089831184332,0.080078125,,
3.801660000000149,1200,,,,-0.03125,0.06640625,-0.94921875,0.009956500063027233,0.38864318447201196,23.07435551079117,0.23728155579881607,1705,0,5.475118974655515,1.7776053705373334,32.46697247614016,0.21863299409054618,0.07098351401513878,0.080078125,,
3.809824999999255,1200,,,,0.03125,0.0390625,-0.94921875,0.009956500063027233,0.38864318447201196,23.074632085385556,0.23577033518121362,1709,0,5.440313740954539,1.7821400973266,32.75803900629289,0.2180766736885715,0.07143764183052831,0.080078125,,
3.8178499999996274,1200,,,,0.0625,0.01953125,-0.921875,0.009956500063027233,0.38864318447201196,23.074764971311637,0.23368648329944525,1716,0,5.392260679107041,1.788905518898508,33.17542725317113,0.21725193441815377,0.07207425745900164,0.080078125,,
3.8291650000000375,1200,,,,0.03125,-0.017578125,-0.83203125,0.009956500063027233,0.38864318447201196,23.074832286169368,0.23101436908087422,1728,0,5.330617822236403,1.8021897910415912,33.80827234554028,0.21565053048457913,0.07290771866082887,0.080078125,,
3.837469999999739,1200,,,,0.03125,-0.009765625,-0.880859375,0.009956500063027233,0.38864318447201196,23.07517798474535,0.22980570526037328,1734,0,5.302807550793044,1.8074319944267512,34.08443503020295,0.2150250663208354,0.07329007902877595,0.080078125,,
3.845489999999292,1200,,,,-0.0625,0.068359375,-1.01171875,0.009956500063027233,0.38445234676155604,23.07531230136954,0.22807507746991582,1731,0,5.262903640777359,1.8050434561744788,34.29748251875393,0.21298786211848086,0.0730494747771537,0.080078125,,
3.8534349999995903,1200,,,,-0.0625,0.0859375,-1.05859375,0.009956500063027233,0.38445234676155604,23.075343280460235,0.22680627991934527,1727,0,5.233632767303047,1.800487900411695,34.40225901328395,0.21352675942651334,0.07345802884058082,0.08203125,,
3.8615599999995904,1200,,,,0,0.01953125,-1.013671875,0.009956500063027233,0.38445234676155604,23.075234137502413,0.22546458180926418,1725,0,5.202648014962838,1.7983678065815392,34.566393909590374,0.21377848588846207,0.07389551352616389,0.080078125,,
3.869859999999404,1200,,,,-0.03125,0.00390625,-1.015625,0.009956500063027233,0.38445234676155604,23.075074971595523,0.22420719103481077,1721,0,5.173597742299098,1.7939142935338679,34.67440614616994,0.2143092053769278,0.07431044428102543,0.080078125,,
3.8777499999990686,1200,,,,-0.125,0.0859375,-1.09765625,0.009956500063027233,0.38445234676155604,23.07492354837862,0.22311719074770286,1717,0,5.148412118832254,1.7902989567685923,34.77380822370261,0.2147419822304287,0.07467396507658682,0.08203125,,
3.8863199999993667,1200,,,,-0.0625,0.05078125,-1.025390625,0.009956500063027233,0.38445234676155604,23.074845294853954,0.22186928234821332,1716,0,5.119599365865294,1.788879748947529,34.941791751807905,0.21491234779070256,0.07509422501394843,0.08203125,,
3.8949649999989195,1200,,,,-0.03125,0.033203125,-0.923828125,0.009956500063027233,0.38445234676155604,23.074835435382077,0.2212552563033576,1714,0,5.10542862841326,1.7870022591167347,35.002002558052126,0.2151381425514146,0.07530265815919197,0.08203125,,
3.9023999999994414,1200,,,,-0.03125,0.0625,-0.93359375,0.009956500063027233,0.38445234676155604,23.07479522521023,0.2217956109572725,1711,0,5.117888304689457,1.7839827677050442,34.85779019581969,0.2155022759867374,0.07511933123067323,0.08203125,,
3.9104900000002236,1200,,,,0.0625,-0.015625,-0.88671875,0.009956500063027233,0.38445234676155604,23.07485462280615,0.22039412185339366,1710,0,5.085562321488083,1.78275981603435,35.0553135196404,0.21565010794148867,0.07559682144433179,0.08203125,,
3.9176349999997764,1200,,,,-0.0625,0.10546875,-1,0.009956500063027233,0.38445234676155604,23.074817706299964,0.22035327172949473,1709,0,5.084611576144872,1.7823133040626609,35.053086698394424,0.21570413343446596,0.07561095690480372,0.08203125,,
3.9257999999998137,1200,,,,-0.03125,0.017578125,-0.98828125,0.009518415568272123,0.38445234676155604,23.074875488002913,0.21903666815612913,1706,0,5.054243845009692,1.7000941046668683,33.63696245770683,0.2261359213623584,0.07606525497204593,0.08203125,,
3.9349150000000375,1200,,,,-0.03125,0.015625,-1,0.009518415568272123,0.38445234676155604,23.074929984185065,0.2188462161266297,1704,0,5.049861114425813,1.698595654701778,33.63648259254977,0.226335411666324,0.07613127134591892,0.08203125,,
3.9578599999994037,1200,,,,-0.0625,0.076171875,-0.953125,0.009518415568272123,0.38445234676155604,23.075046539137745,0.21625478004909704,1699,0,4.9900891139439105,1.6939899061343653,33.94708726545211,0.22695078959405662,0.07704318259312701,0.08203125,,
3.9660449999999257,1200,,,,0.0625,-0.05078125,-0.87890625,0.009518415568272123,0.38445234676155604,23.075027901652987,0.21705057312739517,1699,0,5.0084480309844155,1.6930838145994505,33.80455989810227,0.22707224736686163,0.07676077387309768,0.08203125,,
3.974229999999516,1200,,,,-0.03125,0.005859375,-0.951171875,0.009518415568272123,0.38445234676155604,23.07501011467198,0.2169548928786601,1698,0,5.006236347602657,1.6924000140731512,33.80583529348535,0.22716399407033963,0.07679468568152185,0.08203125,,
3.983179999999702,1200,,,,0,0.013671875,-1.00390625,0.009518415568272123,0.38445234676155604,23.075058524152666,0.21612247012600375,1698,0,4.987038646541973,1.6921326786368267,33.93061090092326,0.2271998830914777,0.07709030829912185,0.08203125,,
3.9909199999999254,1200,,,,-0.09375,0.080078125,-0.99609375,0.009518415568272123,0.38445234676155604,23.07489180030435,0.21677753896442556,1698,0,5.00211825634038,1.692020796649212,33.82608546898126,0.22721490629601307,0.07685790840195504,0.083984375,,
3.999714999999851,1200,,,,-0.0625,0.05859375,-0.90625,0.009518415568272123,0.40650432401786857,23.074842326221493,0.21692604673878296,1696,0,5.005534324947971,1.6900823413069102,33.76427433297998,0.24052338402845283,0.08121097521833376,0.08203125,,
4.00825,1200,,,,-0.03125,0.068359375,-0.97265625,0.009518415568272123,0.40650432401786857,23.07502702817654,0.21704797019928232,1695,0,5.008387778759295,1.689440652022966,33.73222535179741,0.2406147404652026,0.0811647064833646,0.08203125,,
4.016149999999441,1200,,,,0.0625,-0.0390625,-0.8828125,0.009518415568272123,0.40650432401786857,23.07500900493591,0.21749386521343686,1695,0,5.018672898318373,1.689179732190549,33.65789654784135,0.24065190711867515,0.08099836993841093,0.08203125,,
4.02430999999959,1200,,,,-0.03125,0.005859375,-0.978515625,0.009518415568272123,0.40650432401786857,23.07486110011915,0.21630979174711457,1693,0,4.9913183991603685,1.6877854240912977,33.81442114322369,0.24085071373141534,0.08144227466760086,0.08203125,,
4.031804999999702,1200,,,,-0.0625,0.0625,-1.01953125,0.009518415568272123,0.40650432401786857,23.07498183450836,0.2154028496577618,1693,0,4.970416842954189,1.687238245274439,33.945608559293824,0.24092882268191376,0.08178475505411754,0.08203125,,
4.041004999999888,1200,,,,-0.0625,0.0390625,-1.03515625,0.009518415568272123,0.40650432401786857,23.07503770515717,0.2151483407105341,1692,0,4.964556074097575,1.6870084615075471,33.981053619465875,0.2409616390747724,0.08188130377634224,0.083984375,,
4.049864999999293,1200,,,,-0.0625,0.0625,-0.97265625,0.009518415568272123,0.40650432401786857,23.074797458064996,0.21466886037676694,1692,0,4.9534404737475315,1.6866981242351398,34.05104256676504,0.24100597384739753,0.08206504674322396,0.08203125,,
4.057674999999814,1200,,,,-0.03125,0.068359375,-0.94921875,0.009518415568272123,0.40650432401786857,23.074661206119217,0.21458464587825385,1692,0,4.951468003675774,1.6864864671822986,34.060332530278245,0.24103622052600085,0.08209773822957069,0.08203125,,
4.066034999999218,1200,,,,-0.0625,0.044921875,-0.990234375,0.009518415568272123,0.40650432401786857,23.07472707476588,0.21482400975337118,1692,0,4.957005394165884,1.6864021556544275,34.020583428035565,0.24104827111070665,0.0820060281750553,0.08203125,,
4.075004999999888,1200,,,,0,0.015625,-1,0.009435589100231593,0.40650432401786857,23.07457664190201,0.21555859499618138,1692,0,4.973923321060102,1.6716926387246076,33.60913570272564,0.24316929715501104,0.08172709906819181,0.08203125,,
4.08269000000041,1200,,,,-0.125,0.07421875,-1.015625,0.009435589100231593,0.40650432401786857,23.07464650044961,0.21606875705394285,1692,0,4.985710188811259,1.6716809545394797,33.52944497839049,0.24317099678260903,0.0815338855696286,0.08203125,,
4.089884999998845,1200,,,,0,0.01953125,-0.9765625,0.009435589100231593,0.40650432401786857,23.074590574860714,0.2167680259119061,1692,0,5.001833447638032,1.67167669538367,33.42127867478414,0.24317161634210074,0.08127106355567042,0.08203125,,
4.097984999999404,1200,,,,-0.03125,0.0546875,-0.9609375,0.009435589100231593,0.40650432401786857,23.074561746107587,0.21626224014563492,1691,0,4.990156413592,1.6713554282094067,33.49304690444235,0.24321835867872443,0.08146123895248002,0.08203125,,
4.105109999999404,1200,,,,0,-0.01953125,-0.912109375,0.009435589100231593,0.40650432401786857,23.074566844072958,0.21557563017981973,1691,0,4.9743142885374025,1.6712291031289217,33.59717553392295,0.24323674309931526,0.08172067554207417,0.08203125,,
4.112290000000037,1200,,,,-0.0625,0.02734375,-1.00390625,0.009435589100231593,0.40650432401786857,23.07445543182867,0.21546129428384722,1691,0,4.971652032236754,1.67118169977155,33.6142129202812,0.24324364255151762,0.08176443592231487,0.08203125,,
4.119479999999515,1200,,,,-0.03125,0.01953125,-1,0.009435589100231593,0.40650432401786857,23.074521195448987,0.21563124234663458,1691,0,4.975587671928417,1.670792557032533,33.57980337596935,0.24330029620185417,0.08169976107773363,0.08203125,,
4.127889999999665,1200,,,,-0.125,0.12109375,-1.04296875,0.009435589100231593,0.40650432401786857,23.0743964448723,0.2167868745473849,1690,0,5.002226287351156,1.6702054048009463,33.38924128691058,0.24338582718591756,0.08126468109724923,0.08203125,,
4.13805499999877,1200,,,,-0.0625,0.041015625,-0.9765625,0.009435589100231593,0.40650432401786857,23.074343755838203,0.21713413100487008,1690,0,5.010227579931579,1.6699752730267639,33.33132570096885,0.24341936709104423,0.08113490206435292,0.08203125,,
4.1476649999991055,1200,,,,0,0.041015625,-0.953125,0.009435589100231593,0.41524600029880443,23.0742719358897,0.21606433550624277,1690,0,4.985527233118354,1.6702471466297466,33.50191601671461,0.2486135067715547,0.08329028824481534,0.08203125,,
4.155444999999367,1200,,,,-0.03125,0.029296875,-0.990234375,0.009435589100231593,0.41524600029880443,23.07422948876155,0.21641390759912998,1691,0,4.993584168501962,1.6709204388204886,33.46134524697022,0.24851332873271256,0.08315590291199099,0.08203125,,
4.163910000000149,1200,,,,-0.0625,0.01953125,-0.9453125,0.009435589100231593,0.41524600029880443,23.074037711541862,0.21727744490207246,1691,0,5.013467957537879,1.671230773034988,33.33482505901428,0.2484671817912433,0.08282610037917393,0.08203125,,
4.172229999999516,1200,,,,-0.09375,0.09375,-1.048828125,0.009435589100231593,0.41524600029880443,23.074135773759696,0.21885087299104014,1691,0,5.049794757601099,1.6712861425855268,33.09612019517938,0.24845895009720306,0.08223027275985108,0.08203125,,
4.180115000000224,1200,,,,-0.03125,0.029296875,-0.96875,0.009435589100231593,0.41524600029880443,23.074096607371438,0.21866831573319065,1691,0,5.0455738421988405,1.6712011358195848,33.122122241922874,0.2484715881282362,0.08229906315628152,0.08203125,,
4.187854999999516,1200,,,,-0.0625,0.08984375,-0.984375,0.009435589100231593,0.41524600029880443,23.074450737746453,0.21849413675056473,1691,0,5.041632194937343,1.671167362830779,33.14734788683942,0.24847660954521159,0.08236340618337493,0.08203125,,
4.195019999999553,1200,,,,0,0.015625,-0.900390625,0.009435589100231593,0.41524600029880443,23.074431348402875,0.2176927713525543,1691,0,5.0231369076180785,1.6708578329979726,33.26323498099272,0.24852264034561236,0.08266666983912846,0.08203125,,
4.203009999999776,1200,,,,-0.03125,0.033203125,-0.98828125,0.009435589100231593,0.41524600029880443,23.074410155494036,0.2185815084012429,1690,0,5.043639377256844,1.6700724761820864,33.11244819986342,0.24863950889609807,0.08233062858761526,0.08203125,,
4.210404999999329,1200,,,,-0.0625,0.03125,-1.015625,0.009435589100231593,0.41524600029880443,23.074485860203204,0.21841603891338818,1690,0,5.039837801548568,1.669769336029777,33.13141021158884,0.2486846484354168,0.08239273100638549,0.08203125,,
4.217375,1200,,,,-0.0625,0,-1.0234375,0.009481900295814683,0.41524600029880443,23.074378336998887,0.21789783776668273,1690,0,5.027857147442442,1.6778484638246973,33.371044853137505,0.24748718924964225,0.08258906093026742,0.08203125,,
4.226589999999851,1200,,,,-0.0625,0.052734375,-0.962890625,0.009481900295814683,0.41524600029880443,23.074458991809323,0.21765114600328625,1691,0,5.022182442973132,1.6789249379932427,33.43018612042535,0.24732850820307234,0.08268238062115855,0.08203125,,
4.2352649999987335,1200,,,,-0.03125,0.0546875,-0.9375,0.009481900295814683,0.41524600029880443,23.07439654136394,0.21751012865331804,1691,0,5.018914960309747,1.6793682582065264,33.46078328657082,0.2472632183379865,0.0827362096354741,0.08203125,,
4.242754999999888,1200,,,,-0.0625,0.0390625,-0.984375,0.009481900295814683,0.41524600029880443,23.074667590318043,0.21823359332265901,1691,0,5.035667622961008,1.67951516562582,33.352383266277876,0.2472415901907475,0.08246096275405819,0.08203125,,
4.250469999999739,1200,,,,0,0.0390625,-0.98828125,0.009481900295814683,0.41524600029880443,23.074667559083085,0.21719048611774844,1690,0,5.0115982641626955,1.678103697987672,33.48440177233636,0.24744954724595034,0.0828570005836613,0.080078125,,
4.257574999999255,1200,,,,-0.09375,0.046875,-1,0.009481900295814683,0.41524600029880443,23.074722287264084,0.21674857242224918,1690,0,5.001413114804347,1.6776253189138535,33.543026348853836,0.24752010810593125,0.08302573508068402,0.08203125,,
4.265889999999665,1200,,,,0,0,-0.96875,0.009481900295814683,0.41524600029880443,23.074587259659186,0.21623696208676502,1689,0,4.989578650434675,1.6773841268905205,33.617751004774576,0.24755569916389622,0.08322265854304745,0.080078125,,
4.274165000000037,1200,,,,-0.03125,0.0546875,-0.96875,0.009481900295814683,0.41524600029880443,23.074361450576934,0.21639523684339376,1690,0,4.99318191110767,1.6782543002137351,33.610918450224,0.2474273417597801,0.08316260206243671,0.080078125,,
4.28324499999918,1200,,,,0,0.0078125,-0.93359375,0.009481900295814683,0.41524600029880443,23.0744520519201,0.2168045885310523,1691,0,5.002647082696033,1.67912899774348,33.564810189220104,0.2472984510760271,0.08300525570454984,0.080078125,,
4.295314999999478,1200,,,,-0.0625,0.0859375,-1.0625,0.009481900295814683,0.41524600029880443,23.074245488363754,0.21671221296182785,1691,0,5.000470802207781,1.6794381137499617,33.585599840088356,0.24725293352525826,0.08304138084667292,0.080078125,,
4.303229999999516,1200,,,,-0.0625,0.048828125,-1.01953125,0.009481900295814683,0.3929971072456931,23.0742734766998,0.21718246485617856,1690,0,5.011327588435208,1.6783128657944895,33.49038425800745,0.23416200593782246,0.07842175557483498,0.080078125,,
4.312259999999776,1200,,,,0,0.04296875,-0.99609375,0.009481900295814683,0.3929971072456931,23.07429543225371,0.21706684461169937,1690,0,5.008664501117461,1.6776126114537073,33.494210104897675,0.2342597477883455,0.07846345211543182,0.080078125,,
4.319609999999404,1200,,,,-0.09375,0.048828125,-0.943359375,0.009481900295814683,0.3929971072456931,23.074377552763334,0.2171815406795542,1689,0,5.011328867130862,1.6773830018846543,33.4718204763322,0.23429181457313805,0.07842173556466189,0.080078125,,
4.327004999999888,1200,,,,-0.03125,0.03125,-0.931640625,0.009481900295814683,0.3929971072456931,23.07427271660512,0.21699460658676117,1689,0,5.006992730415365,1.677295390877014,33.49905784140954,0.23430405245447264,0.07848965005649033,0.080078125,,
4.334734999999404,1200,,,,0,0.0078125,-1.03125,0.009481900295814683,0.3929971072456931,23.074261366596218,0.21628052393998226,1689,0,4.990513337895521,1.6772589243877285,33.608945830310546,0.23430914662693114,0.0787488341653082,0.080078125,,
4.3426399999996645,1200,,,,-0.0625,0.099609375,-1.029296875,0.009481900295814683,0.3929971072456931,23.07435766218092,0.21549335224368835,1689,0,4.972370683493202,1.6772399809050402,33.731193582831224,0.23431179301702043,0.07903616448997397,0.080078125,,
4.351079999999143,1200,,,,-0.125,0.09765625,-1.0546875,0.009481900295814683,0.3929971072456931,23.074636321759233,0.21504586851599908,1690,0,4.962105208503533,1.6781988323563408,33.82029928507805,0.2341779172220553,0.07919967246406143,0.08203125,,
4.359259999999776,1200,,,,-0.03125,0.0546875,-0.958984375,0.009481900295814683,0.3929971072456931,23.074899621936485,0.2149425966033563,1691,0,4.959778841100833,1.6790552248873853,33.85342932981899,0.23405847611239322,0.07923682080116028,0.08203125,,
4.366674999999813,1200,,,,0.03125,0.015625,-0.94140625,0.009481900295814683,0.3929971072456931,23.074856559188845,0.21484660286157345,1691,0,4.957554543259819,1.679388693131224,33.875344758727536,0.23401200023143484,0.07927237185519284,0.080078125,,
4.381484999999404,1200,,,,-0.0625,0.015625,-0.97265625,0.009586114409134344,0.3929971072456931,23.074955099497714,0.21524342245408953,1691,0,4.966732308590334,1.69801945824931,34.18785939625654,0.23144440738675662,0.07912588857788354,0.080078125,,
4.398019999999553,1200,,,,-0.0625,0.033203125,-0.93359375,0.009586114409134344,0.3929971072456931,23.0748180120166,0.2146947651254984,1690,0,4.954042633403524,1.6961083924825213,34.23685498881672,0.23170518404810203,0.07932856786411957,0.080078125,,
4.406074999999255,1200,,,,-0.0625,0.103515625,-0.986328125,0.009586114409134344,0.3929971072456931,23.074876214143995,0.214501228432663,1689,0,4.9495892938655235,1.6956760961602444,34.258925245814844,0.23176425505767947,0.07939994288673005,0.080078125,,
4.413959999999963,1200,,,,0,0.046875,-0.92578125,0.009586114409134344,0.3929971072456931,23.074866115041363,0.21453062371100173,1689,0,4.950265419707683,1.695508189193051,34.2508541550722,0.2317872067800118,0.07938909814433746,0.080078125,,
4.420294999999926,1200,,,,-0.03125,0.025390625,-0.99609375,0.009586114409134344,0.3929971072456931,23.074832425092385,0.21370778781381716,1689,0,4.931271391741031,1.6954489551636625,34.38157871422827,0.23179530474732393,0.07969488515758646,0.080078125,,
4.428959999999963,1200,,,,-0.0625,0.05078125,-0.984375,0.009586114409134344,0.3929971072456931,23.074788643567366,0.21401030498638793,1689,0,4.938242555106292,1.6954160189123593,34.332376346302546,0.23179980775326636,0.0795823823678572,0.080078125,,
4.437049999998883,1200,,,,-0.09375,0.0703125,-0.9921875,0.009586114409134344,0.3929971072456931,23.074650573618463,0.21535437013022102,1689,0,4.969226840256547,1.6954041499287698,34.118067144651434,0.23180143050977217,0.07908616770358662,0.080078125,,
4.45440499999933,1200,,,,0.03125,0.013671875,-0.92578125,0.009586114409134344,0.38439906179423494,23.074399751363867,0.21498202513097023,1689,0,4.96058118722976,1.6955686153929839,34.18084598147411,0.22670805433912938,0.07749073088125444,0.080078125,,
4.479814999999478,1200,,,,-0.03125,0.017578125,-0.97265625,0.009586114409134344,0.38439906179423494,23.07437194003005,0.21643741051822232,1689,0,4.994157312034434,1.6956561419028946,33.9527979588642,0.2266963521052421,0.07696975441040824,0.080078125,,
4.48868499999959,1200,,,,-0.09375,0.076171875,-0.98828125,0.009586114409134344,0.38439906179423494,23.0744525700285,0.2165863516760275,1691,0,4.99761149906401,1.6970562005403729,33.95734544108141,0.22650932931498405,0.07691655541176581,0.080078125,,
4.513294999999926,1200,,,,-0.046875,0.068359375,-0.9921875,0.009586114409134344,0.38439906179423494,23.07468338998914,0.21676810799480817,1690,0,5.001855461027172,1.6968664529807829,33.92473985308479,0.22653465811583717,0.0768512934428728,0.080078125,,
4.523339999999851,1200,,,,-0.0625,0.0625,-1.05078125,0.009762286889743703,0.38439906179423494,23.074757448152706,0.21765079432189105,1690,0,5.022239287375408,1.7274335660454785,34.39568421974224,0.22252610424505018,0.0765393761226219,0.080078125,,
4.531644999999553,1200,,,,-0.0625,0.05078125,-0.935546875,0.009762286889743703,0.38439906179423494,23.07468728541792,0.21816759480895176,1691,0,5.034149026028327,1.7285548768693486,34.33658534803221,0.2223817519119987,0.07635830004371268,0.080078125,,
4.539829999999143,1200,,,,-0.03125,0.07421875,-0.974609375,0.009762286889743703,0.38439906179423494,23.074757867235952,0.21870400270484705,1691,0,5.046541907009662,1.7290153279279756,34.261388487161234,0.22232252981521722,0.07617078563447643,0.080078125,,
4.547319999999367,1200,,,,0,0.005859375,-0.94140625,0.009762286889743703,0.38439906179423494,23.074553445602092,0.21873607570904002,1691,0,5.04723726942951,1.7291642406670698,34.2596186460344,0.2223033837699206,0.07616029151680512,0.080078125,,
4.555489999999292,1200,,,,0,0.0234375,-1.03125,0.009762286889743703,0.38439906179423494,23.074624478260834,0.21866451121004188,1692,0,5.045601482894173,1.7294000780629748,34.275399750179744,0.22227306837223199,0.07618498272157284,0.080078125,,
4.562964999999851,1200,,,,-0.09375,0.0390625,-1.017578125,0.009762286889743703,0.38439906179423494,23.074886593347752,0.21870282572399766,1692,0,5.046542901225943,1.7294926198272433,34.270839536648,0.2222611749754862,0.07617077062811729,0.080078125,,
4.570289999999106,1200,,,,0,0,-0.96484375,0.009762286889743703,0.38439906179423494,23.075050099248053,0.21798458441653276,1692,0,5.03000520627526,1.729526834388884,34.38419571079542,0.22225677806847075,0.0764212055515712,0.080078125,,
4.578299999999814,1200,,,,-0.0625,0.00390625,-0.89453125,0.009762286889743703,0.38439906179423494,23.075195173383506,0.2190168545074326,1692,0,5.053856664019547,1.7295428344252484,34.22223757825513,0.2222547219664416,0.07606053898024605,0.080078125,,
4.586349999999627,1200,,,,-0.0625,0.072265625,-0.966796875,0.009762286889743703,0.38439906179423494,23.075169316424674,0.21967509498898993,1692,0,5.069040011472616,1.729549198376821,34.11985690510197,0.22225390417051613,0.07583271406898255,0.080078125,,
4.594454999999143,1200,,,,-0.03125,0.064453125,-0.951171875,0.009762286889743703,0.4051576207200407,23.07501154446462,0.2209612731787452,1692,0,5.0986839294791455,1.7295516556801962,33.92153111669501,0.23425586589994082,0.07946317644393178,0.080078125,,
4.604014999999665,1200,,,,0,0.00390625,-1.0390625,0.009762286889743703,0.4051576207200407,23.075059411551706,0.2199431393786724,1692,0,5.075201008326063,1.729388408002627,34.07526923890302,0.2342779787612785,0.07983085203036569,0.080078125,,
4.612814999999478,1200,,,,-0.0625,0.033203125,-1.0078125,0.009762286889743703,0.4051576207200407,23.075034227308485,0.21963299186018784,1691,0,5.0680388046200004,1.7289383533821627,34.11454450202849,0.23433896294073653,0.07994366979800961,0.080078125,,
4.620334999999032,1200,,,,0,0.01171875,-0.9609375,0.009762286889743703,0.4051576207200407,23.075017567630013,0.2184425932326681,1691,0,5.040566676362474,1.7288199317422481,34.298126435852474,0.23435501481738247,0.08037937929082664,0.080078125,,
4.6285,1200,,,,-0.03125,0.05078125,-0.96484375,0.009762286889743703,0.4051576207200407,23.074853703630417,0.21802587573036672,1692,0,5.030915186084117,1.7293752372493376,34.37496306900417,0.23427976299953573,0.0805335820092409,0.080078125,,
4.636334999999963,1200,,,,0.03125,-0.021484375,-0.92578125,0.009762286889743703,0.4051576207200407,23.074993644745128,0.2180892215410867,1692,0,5.032407401047988,1.7301044711287838,34.37926092328084,0.23418101477750702,0.08050970210314601,0.080078125,,
4.644229999999515,1200,,,,-0.0625,0.0546875,-1.01171875,0.009762286889743703,0.4051576207200407,23.07504267623708,0.2183673119565983,1693,0,5.038835042493681,1.7304315829013501,34.341897845597515,0.2341367464183288,0.08040700227398817,0.080078125,,
4.653339999999851,1200,,,,-0.03125,0.0390625,-1.021484375,0.009762286889743703,0.4051576207200407,23.07487465027413,0.21914672876781915,1692,0,5.05678329633505,1.7297507323901942,34.20654259880677,0.23422890543320546,0.08012161031572826,0.080078125,,
4.660794999999926,1200,,,,-0.03125,0.056640625,-1.021484375,0.009762286889743703,0.4051576207200407,23.07480078285222,0.21936935496627794,1690,0,5.061904163709657,1.7280009105560312,34.13736915338303,0.23446609214440184,0.08004055541484566,0.080078125,,
4.668209999999963,1200,,,,-0.125,0.05859375,-0.94921875,0.009762286889743703,0.4051576207200407,23.07467786919231,0.2188017785145189,1690,0,5.048780556428887,1.727332277733377,34.21286107461872,0.234556851592962,0.08024860977649968,0.080078125,,
4.676854999999516,1200,,,,-0.0625,0.12109375,-0.9921875,0.00984164939855976,0.4051576207200407,23.074644486934627,0.21883378942922324,1690,0,5.049511892808039,1.7418996110897342,34.496395851066346,0.2325952759508188,0.08023698712287458,0.080078125,,
4.684334999999963,1200,,,,-0.03125,0.015625,-0.943359375,0.00984164939855976,0.4051576207200407,23.07471084170249,0.21865128760677496,1691,0,5.04531523669226,1.7429374645374727,34.54566033578812,0.23245677424666428,0.08030372765878244,0.080078125,,
4.692364999999292,1200,,,,0,0,-0.98046875,0.00984164939855976,0.4051576207200407,23.074676256214108,0.21932535009194998,1692,0,5.060861448152565,1.7433456409569847,34.44760657483287,0.23240234822145492,0.08005704658599988,0.080078125,,
4.700364999999292,1200,,,,-0.0625,0.078125,-1.05078125,0.00984164939855976,0.4051576207200407,23.074675800023194,0.21890474901418516,1692,0,5.051156114587769,1.7435081707097881,34.51701216825443,0.23238068368506679,0.08021086886424736,0.080078125,,
4.708389999999665,1200,,,,-0.0625,0.046875,-1.021484375,0.00984164939855976,0.4051576207200407,23.074740911228076,0.21893158147134092,1692,0,5.051789519736613,1.7434051452047639,34.510644958455444,0.23239441608534128,0.08020081183848779,0.080078125,,
4.716534999999218,1200,,,,-0.0625,0.0703125,-0.953125,0.00984164939855976,0.4051576207200407,23.07473729410789,0.21789526392899455,1692,0,5.027875972791852,1.7433647009868898,34.67397983603887,0.23239980739009325,0.08058226235343409,0.080078125,,
4.724354999999516,1200,,,,0.0625,-0.01953125,-0.890625,0.00984164939855976,0.4051576207200407,23.074799438920778,0.21818563086081622,1692,0,5.034589672567738,1.7433486392959403,34.62742254438382,0.23240194851883758,0.08047480471499925,0.080078125,,
4.732530000000261,1200,,,,0,0.00390625,-0.955078125,0.00984164939855976,0.4051576207200407,23.0746636757131,0.21761505465278613,1692,0,5.021394196884965,1.7436740043944918,34.724897827702605,0.2323585829111077,0.08068628050977979,0.080078125,,
4.742144999999553,1200,,,,0,0.0078125,-0.95703125,0.00984164939855976,0.4051576207200407,23.07450570764775,0.21746648036361788,1692,0,5.017931542372367,1.7441833416579036,34.75901029995504,0.2322907294452916,0.0807419585737296,0.080078125,,
4.75030999999959,1200,,,,-0.0625,0.041015625,-1.0078125,0.00984164939855976,0.4141013062645462,23.074377839301736,0.21823189928366646,1693,0,5.035565300659762,1.7443419271554625,34.64043901738138,0.23739686572794275,0.08223531650166278,0.080078125,,
4.761029999999329,1200,,,,0,0.01953125,-0.91796875,0.00984164939855976,0.4141013062645462,23.074392045337863,0.21743878009626927,1692,0,5.017267657801324,1.7434001072341256,34.74799883405307,0.2375251123056949,0.0825352232545661,0.080078125,,
4.770104999999516,1200,,,,-0.0625,0.072265625,-0.95703125,0.00984164939855976,0.4141013062645462,23.074498315097365,0.2167112873310752,1691,0,5.000504234383476,1.7429738786720332,34.85596245849252,0.23758319693238825,0.0828119099304396,0.080078125,,
4.786429999999702,1200,,,,-0.0625,0.048828125,-1,0.00984164939855976,0.4141013062645462,23.074374563444664,0.21546768989224052,1692,0,4.971782182893698,1.7441470258089902,35.08092192393381,0.23742339386352654,0.08329031543041761,0.080078125,,
