Time (s),ESC signal (µs),Servo 1 (µs),Servo 2 (µs),Servo 3 (µs),AccX (g),AccY (g),AccZ (g),Torque (N·m),Thrust (N),Voltage (V),Current (A),Motor Electrical Speed (RPM),Motor Optical Speed (RPM),Electrical Power (W),Mechanical Power (W),Motor Efficiency (%),Propeller Mech. Efficiency (N/W),Overall Efficiency (N/W),Vibration (g),App message,90% settling time (s),Max acceleration (RPM/s),
0,1000,,,,-0.0625,0.05078125,-0.95703125,-0.000357075511244519,0.01996726330720462,22.856242535319115,0.045864356667364006,0,0,1.048286859715652,0,0,0,0,0.068359375,,
0,1200,,,,-0.0625,0.05078125,-0.95703125,-0.000357075511244519,0.01996726330720462,22.85614819031665,0.04494099749833755,0,0,1.0271780986426529,0,0,0,0,0.068359375,,
0.008760000000009312,1200,,,,-0.0625,0.048828125,-0.95703125,-0.000357075511244519,0.01996726330720462,22.856341606988085,0.04356968705243423,0,0,0.9958436509800026,0,0,0,0,0.068359375,,
0.01578000000002794,1200,,,,-0.0625,0.046875,-0.955078125,-0.000357075511244519,0.01996726330720462,22.8563890994867,0.04347073978345513,0,0,0.9935841429331866,0,0,0,0,0.068359375,,
0.024399999999906868,1200,,,,-0.0625,0.046875,-0.953125,-0.000357075511244519,0.01996726330720462,22.856302826150944,0.043154406804125425,0,0,0.9863501901979995,0,0,0,0,0.068359375,,
0.03362999999988824,1200,,,,-0.0625,0.046875,-0.95703125,-0.000357075511244519,0.01996726330720462,22.856504759260602,0.04318252369962908,0,0,0.9870015584574557,0,0,0,0,0.068359375,,
0.04211000000010245,1200,,,,-0.0625,0.05078125,-0.95703125,-0.000357075511244519,0.01996726330720462,22.856476975813862,0.04236863293017309,0,0,0.9683976830652102,0,0,0,0,0.06640625,,
0.04945999999996275,1200,,,,-0.125,-0.11328125,-1.01171875,-0.000357075511244519,0.01996726330720462,22.855828649406778,0.0711126537978182,0,0,1.625338630007519,0,0,0,0,0.068359375,,
0.05796499999985099,1200,,,,-0.03125,0.021484375,-0.986328125,-0.00046325252296891805,0.01996726330720462,22.854066979456555,0.1265597444347569,0,0,2.892404876214838,0,0,0,0,0.068359375,,
0.06789999999990687,1200,,,,-0.25,0.05078125,-0.96875,-0.00046325252296891805,0.01996726330720462,22.85322994224657,0.16380424658075318,0,0,3.743456112626409,0,0,0,0,0.0703125,,
0.0750700000000652,1200,,,,-0.041015625,0.080078125,-1.001953125,-0.00046325252296891805,0.01996726330720462,22.851546380917316,0.2144159372689822,0,0,4.899735735310005,0,0,0,0,0.072265625,,
0.0835,1200,,,,0.1875,-0.140625,-0.95703125,-0.00046325252296891805,0.01996726330720462,22.85031066997847,0.2478854268117293,0,0,5.664259013208225,0,0,0,0,0.07421875,,
0.09235000000009314,1200,,,,-0.125,0.09765625,-0.9140625,-0.00046325252296891805,0.01996726330720462,22.849519011168123,0.28484992414474203,0,0,6.50868375707508,0,0,0,0,0.07421875,,
0.10073499999986961,1200,,,,0,0.009765625,-1.005859375,-0.00046325252296891805,0.01996726330720462,22.8487392703095,0.30365469985134136,0,0,6.938127065107388,0,0,0,0,0.076171875,,
0.11112999999988823,1200,,,,0.125,0.0234375,-0.9765625,-0.00046325252296891805,0.01987803487028438,22.848127854552956,0.3230361499925839,0,0,7.3807712566731025,0,0,0,0,0.076171875,,
0.12016500000003726,1200,,,,-0.01953125,0,-0.98046875,-0.00046325252296891805,0.01987803487028438,22.847455429128946,0.3399003392046617,0,0,7.765857850324317,0,0,0,0,0.078125,,
0.1306500000001397,1200,,,,-0.125,0.27734375,-1.1171875,-0.00046325252296891805,0.01987803487028438,22.84645090086441,0.3690756206530745,0,0,8.432068045956525,0,0,0,0,0.080078125,,
0.13940500000002795,1200,,,,0.09375,-0.052734375,-1.044921875,-0.00046325252296891805,0.01987803487028438,22.845243021828637,0.40128014049715643,0,0,9.167342329491078,0,0,0,0,0.083984375,,
0.14780999999982306,1200,,,,-0.0625,0.142578125,-0.8671875,-0.00046325252296891805,0.01987803487028438,22.844983392584382,0.4083957963660862,1,0,9.329795185584512,0.0000683136408082886,0.0007322094370714608,0,0.002130597132614227,0.0859375,,
0.15632499999995345,1200,,,,-0.09375,0,-1.048828125,-0.00046325252296891805,0.01987803487028438,22.84492900073347,0.4095903405122854,2,0,9.357062248389404,0.00009031899624517393,0.0009652494965577492,0,0.002124388439727,0.08984375,,
0.1647949999999255,1200,,,,0.03125,0.025390625,-1.091796875,-0.00046325252296891805,0.01987803487028438,22.84488388663956,0.4088917295343073,2,0,9.341084083418478,0.00009764336796521772,0.0010453108771234184,0,0.002128022260881928,0.091796875,,
0.17247500000009314,1200,,,,-0.125,0.0078125,-0.640625,-0.00046325252296891805,0.01987803487028438,22.844905876154108,0.40526399555824083,2,0,9.25821783352215,0.00010055674242520926,0.001086134980115865,0,0.002147069255414363,0.09375,,
0.18048999999999069,1200,,,,-0.0625,0.08984375,-1.033203125,-0.00046325252296891805,0.01987803487028438,22.84486121233591,0.4015521790799691,2,0,9.173403800592949,0.00010171999151203358,0.0011088576685729086,0,0.002166920295059889,0.09375,,
0.188464999999851,1200,,,,0.0625,-0.01953125,-0.92578125,-0.00046325252296891805,0.01987803487028438,22.845014657490722,0.3961566701840157,2,0,9.050204937016556,0.00010217352724299419,0.0011289636859502564,0,0.0021964182036343224,0.09375,,
0.19651000000000932,1200,,,,-0.03125,0.013671875,-1,-0.00046325252296891805,0.01987803487028438,22.845162477159587,0.3895554282238443,2,0,8.899457051633203,0.0001023542492344905,0.0011501179076504082,0,0.0022336233272384205,0.09375,,
0.20560999999986962,1200,,,,-0.03125,-0.021484375,-0.982421875,-0.00031405622269170086,0.01987803487028438,22.845316754509145,0.37925020371810314,2,0,8.664091033152188,0.00006944003105211592,0.0008014693149738536,0,0.0022943012480158937,0.09375,,
0.21345999999996274,1200,,,,-0.0625,0.05859375,-0.9609375,-0.00031405622269170086,0.01987803487028438,22.845512847103326,0.3710327285190398,2,0,8.476432966077525,0.00006945726248152719,0.0008194161713953669,0,0.002345094327983927,0.09375,,
0.22606999999983235,1200,,,,0,0,-0.90234375,-0.00031405622269170086,0.01987803487028438,22.845703590126767,0.36237927065754527,366,0,8.278809404648602,0.01202435756245381,0.14524259437235096,0,0.002401074103617211,0.09375,,
0.24274500000011176,1200,,,,-0.0625,0.02734375,-0.9609375,-0.00031405622269170086,0.01987803487028438,22.846164011986403,0.3379791317388076,573,0,7.721526676333558,0.018830820337432764,0.24387431562140605,0,0.002574365886892609,0.09375,,
0.2514000000001397,1200,,,,-0.0625,0.068359375,-0.974609375,-0.00031405622269170086,0.01987803487028438,22.84633603232237,0.3275455522316979,588,0,7.483215752177968,0.01934142771348621,0.2584641196247341,0,0.002656349292681951,0.09375,,
0.26056499999994415,1200,,,,-0.03125,0.0234375,-0.943359375,-0.00031405622269170086,0.04769899328520742,22.846763879719177,0.31933045947615113,594,0,7.295667607253858,0.019529039326776326,0.26767994895161074,0,0.006537988824735077,0.09375,,
0.2686450000000186,1200,,,,-0.03125,0.056640625,-1.02734375,-0.00031405622269170086,0.04769899328520742,22.847025169794378,0.31001330486632017,596,0,7.082881779251955,0.019591806886066262,0.27660784828368845,0,0.0067344048329217015,0.09375,,
0.27651499999989754,1200,,,,-0.0625,0.1015625,-1.05859375,-0.00031405622269170086,0.04769899328520742,22.847168953222326,0.30438524226166774,625,0,6.954341056819832,0.020549607853520405,0.2954932420717023,0,0.006858880359114831,0.09375,,
0.2853800000001211,1200,,,,-0.0625,0.021484375,-0.98828125,-0.00031405622269170086,0.04769899328520742,22.847434596903014,0.2944576583851616,698,0,6.72760209151219,0.022954709758837483,0.3412019534835162,0,0.007090043768400983,0.09375,,
0.2937449999998789,1200,,,,-0.0625,0.013671875,-0.966796875,-0.00031405622269170086,0.04769899328520742,22.847660872926728,0.2862247309926745,723,0,6.539565587165307,0.023771271813463075,0.36349924924856,0,0.007293908540167026,0.091796875,,
0.30264000000013036,1200,,,,-0.0625,0.0390625,-0.96484375,-0.00031405622269170086,0.04769899328520742,22.848063478630227,0.27720627979325946,733,0,6.333626677391323,0.024107811730614145,0.38063202898696274,0,0.0075310711721413865,0.091796875,,
0.31069500000006517,1200,,,,-0.0625,0.064453125,-0.96875,-0.00031405622269170086,0.04769899328520742,22.84844540247093,0.26972834155638237,736,0,6.162873285550033,0.02422082834902665,0.3930119479466947,0,0.007739732925719293,0.091796875,,
0.318625,1200,,,,-0.0625,0.048828125,-0.951171875,-0.00031405622269170086,0.04769899328520742,22.84862287660737,0.2626659094513585,738,0,6.001554307595189,0.02426702231655669,0.40434562569642796,0,0.007947773333458398,0.091796875,,
0.3266450000000186,1200,,,,0,0.01953125,-0.96484375,-0.00031405622269170086,0.04769899328520742,22.848788357073225,0.26851803422287823,738,0,6.13531173401589,0.024284775488514584,0.3958197487158309,0,0.00777450198997238,0.091796875,,
0.33570000000018624,1200,,,,0.09375,-0.1328125,-1.09375,-0.00031405622269170086,0.04769899328520742,22.845598850572426,0.35614231677519553,769,0,8.136284502759608,0.02529713805896499,0.310917569934838,0,0.005862503120316062,0.09375,,
0.35025,1200,,,,-0.1875,0.3125,-0.880859375,-0.00031405622269170086,0.04769899328520742,22.841267081642613,0.4925530610499852,783,0,11.25053601932333,0.025737911456793102,0.22877053513349954,0,0.004239708508401922,0.099609375,,
0.35801499999989755,1200,,,,0.01953125,0.001953125,-0.962890625,0.02140314450165595,0.04769899328520742,22.84000400275173,0.5414857758048625,785,0,12.367537286816184,1.759202196226906,14.22435328415964,0.027113991437431734,0.0038567899314970846,0.1015625,,
0.36651000000000933,1200,,,,-0.0625,0.03125,-0.91796875,0.02140314450165595,0.04769899328520742,22.838898390282832,0.577874169276804,786,0,13.198009434482028,1.7613471371166889,13.345551432285479,0.027080972444358864,0.0036141051059249705,0.103515625,,
0.3774849999998696,1200,,,,0,0.146484375,-1.103515625,0.02140314450165595,0.04769899328520742,22.83786028374298,0.6038444090214323,893,0,13.79051424635082,2.002042965464394,14.517536690077856,0.023825159653425902,0.0034588262941557314,0.103515625,,
0.3935,1200,,,,0.125,-0.109375,-1.03515625,0.02140314450165595,0.04769899328520742,22.836559885874294,0.6385606883689494,1017,0,14.582529400702626,2.2795537317870775,15.632087336489391,0.02092470671784225,0.003270968429037363,0.109375,,
0.40194999999995346,1200,,,,0,0.095703125,-0.974609375,0.02140314450165595,0.04769899328520742,22.83597633853319,0.650298326926314,1030,0,14.850197206677025,2.3078781259494745,15.541060457512268,0.020667899551924468,0.0032120107646624887,0.109375,,
0.4089200000001583,1200,,,,-0.0625,0.1875,-1.05078125,0.02140314450165595,0.12348153299237391,22.835632023755018,0.6558696645789371,1169,0,14.97719831586824,2.6207908535421716,17.49853876719694,0.04711613398126772,0.008244634970316583,0.109375,,
0.4167600000000093,1200,,,,0,0,-0.939453125,0.02140314450165595,0.12348153299237391,22.835457188878895,0.6552321046450037,1234,0,14.962524674399997,2.7656218418953493,18.483657685304713,0.04464874088054966,0.008252720425159503,0.109375,,
0.4237450000001118,1200,,,,-0.125,0.09375,-1.03125,0.02140314450165595,0.12348153299237391,22.835309107364594,0.6549712078998806,1258,0,14.956469988817734,2.8201446246099193,18.85568337126616,0.04378553210172822,0.008256061295525976,0.111328125,,
0.432,1200,,,,-0.0625,0.0546875,-0.998046875,0.02140314450165595,0.12348153299237391,22.835540430028303,0.6527559927593884,1270,0,14.906035863600277,2.845920569285465,19.092403878049478,0.04338895973592715,0.00828399543126748,0.111328125,,
0.451160000000149,1200,,,,-0.041015625,0.03125,-1.01171875,0.02140314450165595,0.12348153299237391,22.835835265269857,0.6431348979838273,1359,0,14.686522583704814,3.0458786131643505,20.739277087578607,0.040540529901186534,0.008407812828979733,0.109375,,
0.4592299999999814,1200,,,,0,0.01953125,-0.97265625,0.02140314450165595,0.12348153299237391,22.836039616847273,0.6368306587153852,1366,0,14.542690151647482,3.0624388595788057,21.058269327369768,0.040321305552319504,0.00849096911951914,0.109375,,
0.4779899999999907,1200,,,,-0.0625,0.060546875,-0.94921875,0.02140314450165595,0.12348153299237391,22.836600177905822,0.6213315760053816,1438,0,14.189100779143002,3.222020647334494,22.707715573284542,0.038324252544603477,0.008702562263415821,0.107421875,,
0.4945200000000186,1200,,,,-0.0625,0.06640625,-1.02734375,0.02140314450165595,0.12348153299237391,22.83717915954759,0.6030049734361038,1469,0,13.770932612458537,3.2934652249139558,23.916065219390905,0.037492891091813474,0.008966824286153315,0.107421875,,
0.5026799999999348,1200,,,,0,0.0859375,-0.92578125,0.02140314450165595,0.12348153299237391,22.83757671028879,0.5966853679675925,1492,0,13.626847862866788,3.343075060456148,24.533003480328272,0.03693651227068931,0.009061635840880088,0.10546875,,
0.5112650000001304,1200,,,,-0.09375,0.0390625,-1.015625,0.04154985454115782,0.12348153299237391,22.83789258093568,0.5871073358204923,1500,0,13.408294268947735,6.528212261668149,48.68786536693809,0.018915060975793204,0.009209339421968443,0.107421875,,
0.519410000000149,1200,,,,-0.0625,0.123046875,-0.953125,0.04154985454115782,0.12348153299237391,22.83808180797951,0.577032539349326,1510,0,13.178316339526061,6.5682422490707095,49.84128533453407,0.018799783611794216,0.00937005379222933,0.107421875,,
0.5313699999998789,1200,,,,0,0.1640625,-0.984375,0.04154985454115782,0.12348153299237391,22.838239429776564,0.5684247655121576,1523,0,12.981820892581256,6.626796274812843,51.0467393568792,0.01863366970578273,0.00951188080733267,0.107421875,,
0.5400700000000652,1200,,,,-0.03125,0.181640625,-0.9453125,0.04154985454115782,0.12348153299237391,22.839000469337314,0.5546741471114252,1530,0,12.668203106207114,6.655472781126543,52.53683356138742,0.01855338261506236,0.0097473597444827,0.107421875,,
0.5483249999999534,1200,,,,-0.0625,0.1484375,-0.998046875,0.04154985454115782,0.12348153299237391,22.838985822680108,0.5468605792527889,1531,0,12.489741016537076,6.661229812553755,53.33361039059125,0.018537347677100198,0.009886636786853935,0.107421875,,
0.5576149999999906,1200,,,,-0.09375,0.068359375,-0.966796875,0.04154985454115782,0.37647721175329285,22.839411020179398,0.5360912757702802,1543,0,12.24400899164977,6.713286471985501,54.82915339709291,0.05607942001645985,0.0307478712250248,0.107421875,,
0.5681450000000187,1200,,,,0,0.080078125,-0.97265625,0.04154985454115782,0.37647721175329285,22.83989616173289,0.525429524479677,1547,0,12.000755779424512,6.730790975018149,56.08639238003824,0.05593357647721005,0.0313711251751968,0.107421875,,
0.5755049999998882,1200,,,,-0.0625,-0.009765625,-0.966796875,0.04154985454115782,0.37647721175329285,22.840085972751282,0.5175991939373283,1551,0,11.822010088955343,6.747002384082706,57.07153295687052,0.05579918166939807,0.031845448356114574,0.107421875,,
0.5832549999998883,1200,,,,-0.125,0.046875,-1,0.04154985454115782,0.37647721175329285,22.840342460060292,0.5109836232744933,1558,0,11.671040947071862,6.777648562943964,58.07235698752648,0.055546877100066824,0.0322573807649734,0.107421875,,
0.5907999999998137,1200,,,,0,-0.001953125,-0.994140625,0.04154985454115782,0.37647721175329285,22.84067519026261,0.5036923737216592,1560,0,11.504673903988783,6.7890172728041085,59.01094919735439,0.05545385975985214,0.032723849010858494,0.107421875,,
0.5988299999998417,1200,,,,-0.03125,0.064453125,-0.982421875,0.04154985454115782,0.37647721175329285,22.840936049142908,0.4964662266792754,1562,0,11.339753334140616,6.794288921919486,59.91566766680813,0.05541083343375579,0.033199770811577725,0.107421875,,
0.6076399999998976,1200,,,,-0.0625,0.123046875,-0.984375,0.04154985454115782,0.37647721175329285,22.841470677223118,0.4901895427520173,1566,0,11.196650067051612,6.811812337898253,60.837949718044484,0.055268288830965184,0.033624093769006186,0.107421875,,
0.6156399999998976,1200,,,,0,-0.10546875,-0.94921875,0.04154985454115782,0.37647721175329285,22.841463886856367,0.4884982892331423,1567,0,11.158016032309936,6.817766643774097,61.101961352556685,0.055220020194895844,0.033740515398359254,0.107421875,,
0.6234699999999721,1200,,,,-0.0625,0.00390625,-0.982421875,0.04154985454115782,0.37647721175329285,22.841393062902103,0.4877661074692169,1567,0,11.141257383466133,6.820071481533875,61.214558166971436,0.055201358632772105,0.03379126778921679,0.107421875,,
0.630630000000121,1200,,,,0,0.09765625,-0.90234375,0.04154985454115782,0.37647721175329285,22.841506627815686,0.48033166640041985,1572,0,10.971498941634943,6.83863896789306,62.33094497180879,0.05505148224973236,0.03431410910724576,0.107421875,,
0.6387750000001396,1200,,,,-0.0625,0.064453125,-0.99609375,0.04154985454115782,0.37647721175329285,22.84162683537018,0.4737267410515791,1578,0,10.82068944103621,6.865878736504692,63.451398119482505,0.0548330703470815,0.034792349767062594,0.107421875,,
0.6468799999998882,1200,,,,-0.0625,0.029296875,-1.01953125,0.04154985454115782,0.37647721175329285,22.8420101430189,0.46528556072494365,1581,0,10.6280574974794,6.876966198617664,64.70576773082605,0.05474466514448891,0.03542295587341148,0.10546875,,
0.6556049999999813,1200,,,,0,0.03125,-0.99609375,0.04020426426608605,0.37647721175329285,22.842300575651507,0.45768642340519505,1581,0,10.454610852816366,6.658384064034905,63.688492644766434,0.05654182878798252,0.036010638468850685,0.10546875,,
0.6628250000001863,1200,,,,-0.03125,0.03125,-0.9453125,0.04020426426608605,0.37647721175329285,22.842610374706478,0.44862692765118706,1585,0,10.247810111937698,6.674615387486084,65.13211422322131,0.056404330421664726,0.03673733291708183,0.10546875,,
0.6701750000000466,1200,,,,-0.1875,0.1171875,-1.04296875,0.04020426426608605,0.37647721175329285,22.84284717026927,0.4434255952591807,1587,0,10.129103103891142,6.679857875205937,65.947180186564,0.05636006316102739,0.037167872406064006,0.107421875,,
0.6796099999998696,1200,,,,0,0.056640625,-1.017578125,0.04020426426608605,0.37647721175329285,22.842896357980955,0.4385955238308121,1587,0,10.018792093941606,6.682073942124314,66.69540479001441,0.056341371707959,0.0375771059248699,0.107421875,,
0.6879799999999814,1200,,,,-0.0625,0.06640625,-0.978515625,0.04020426426608605,0.37647721175329285,22.843054360163357,0.43072772917993823,1587,0,9.83913693208705,6.682252043991475,67.91502232476864,0.05633987004303622,0.038263235317473686,0.107421875,,
0.69675,1200,,,,0,-0.03125,-0.95703125,0.04020426426608605,0.37647721175329285,22.843167026562806,0.4251113421575538,1587,0,9.710889393791293,6.68139922325141,68.8031646980059,0.05634706132259605,0.03876856140427215,0.107421875,,
0.7047649999998975,1200,,,,-0.0625,0.04296875,-0.955078125,0.04020426426608605,0.6123503089744166,22.843277618041373,0.4187162768267133,1587,0,9.564852154745276,6.6810570431210605,69.85008168481184,0.09165470449094634,0.06402088595489892,0.107421875,,
0.712625,1200,,,,-0.0625,0,-1.03125,0.04020426426608605,0.6123503089744166,22.843511545816526,0.4130431528862466,1586,0,9.435356031877435,6.679125594907719,70.78827309051438,0.09168120890574107,0.06489954453288097,0.107421875,,
0.7208200000000652,1200,,,,-0.03125,0.099609375,-0.931640625,0.04020426426608605,0.6123503089744166,22.843339651534897,0.408343886311781,1586,0,9.327938089647764,6.6765776498058464,71.57613596530595,0.09171619669430843,0.06564690964812565,0.107421875,,
0.7288350000001956,1200,,,,0,0.1015625,-1,0.04020426426608605,0.6123503089744166,22.843436913648098,0.40431972944628,1586,0,9.236052232549364,6.675574944898186,72.27736241434802,0.09172997292801062,0.06630000497576156,0.107421875,,
0.7363499999998603,1200,,,,-0.0625,-0.033203125,-0.9921875,0.04020426426608605,0.6123503089744166,22.84366131818583,0.3990719400863598,1585,0,9.116264240924151,6.675175486547907,73.2227073517915,0.09173546226738916,0.06717118907386348,0.107421875,,
0.7448899999998976,1200,,,,-0.0625,0.01953125,-0.953125,0.04020426426608605,0.6123503089744166,22.843744249938588,0.39501054247469314,1585,0,9.023519808321394,6.673214711211046,73.95356637946402,0.09176241668736718,0.06786157973629245,0.107421875,,
0.754065000000177,1200,,,,-0.03125,0.083984375,-0.994140625,0.04020426426608605,0.6123503089744166,22.843977997166448,0.3907354758328469,1585,0,8.925952612637916,6.672406168743566,74.75287466008234,0.09177353618593095,0.06860335647619428,0.107421875,,
0.7631000000000931,1200,,,,-0.03125,0.021484375,-0.9765625,0.04020426426608605,0.6123503089744166,22.843979293266788,0.387192564933218,1585,0,8.845018935841289,6.672117014998991,75.43360916914054,0.09177751343356937,0.06923109078863415,0.10546875,,
0.772065000000177,1200,,,,-0.0625,0.044921875,-1.001953125,0.04020426426608605,0.6123503089744166,22.84435427453498,0.3847246574047915,1585,0,8.788786371904154,6.6720113382133155,75.91504737835352,0.09177896708107164,0.06967404634295901,0.10546875,,
0.7800249999999068,1200,,,,-0.09375,0.0078125,-0.966796875,0.04020426426608605,0.6123503089744166,22.844531619137587,0.38080120930671185,1585,0,8.69922526661301,6.6719766544380255,76.69621661649094,0.09177944418721805,0.07039136132324017,0.107421875,,
0.7894200000001583,1200,,,,0.0625,-0.05078125,-0.953125,0.04020426426608605,0.6123503089744166,22.844505681275436,0.37895910752347906,1585,0,8.657133484791187,6.671962842898757,77.06896115925706,0.09177963417859349,0.07073361061720844,0.107421875,,
0.7978850000000093,1200,,,,-0.0625,0.123046875,-1.01953125,0.04020426426608605,0.6123503089744166,22.844596518855866,0.37599060224412284,1583,0,8.58935360314861,6.6666563462357065,77.6153439973865,0.09185268854006207,0.07129178018121721,0.107421875,,
0.8065949999999721,1200,,,,0,0.013671875,-0.978515625,0.03555163264648254,0.6123503089744166,22.84456377539544,0.3734656494841595,1583,0,8.53165984756036,5.8936893793126135,69.08021984723081,0.10389931833255786,0.07177387752390514,0.107421875,,
0.814125,1200,,,,-0.125,0.046875,-0.98046875,0.03555163264648254,0.6123503089744166,22.844597140933615,0.3717796754979789,1583,0,8.493156911938357,5.893226988925476,69.38794431834523,0.10390747041054797,0.07209925771107206,0.107421875,,
0.8217099999999627,1200,,,,-0.03125,0.005859375,-0.984375,0.03555163264648254,0.6123503089744166,22.84456824450166,0.3678597692832203,1583,0,8.403597603797161,5.891964013746608,70.11240056382908,0.10392974355337797,0.0728676381051047,0.107421875,,
0.8316500000001397,1200,,,,0,0.078125,-0.984375,0.03555163264648254,0.6123503089744166,22.844540581369372,0.3662291176416895,1582,0,8.366335940044674,5.8914599067453945,70.41863904300662,0.1039386363765812,0.0731921731762479,0.107421875,,
0.8390449999999255,1200,,,,-0.01953125,0.033203125,-0.98046875,0.03555163264648254,0.6123503089744166,22.844750155937792,0.3629916922064732,1582,0,8.292454517137951,5.891238202490404,71.04335863784394,0.1039425478867172,0.07384427707247317,0.107421875,,
0.8475,1200,,,,-0.125,0.09765625,-0.9140625,0.03555163264648254,0.6123503089744166,22.8448071082897,0.36208797005778404,1583,0,8.271829832202252,5.89370794112543,71.25035283222597,0.10389899110906495,0.07402839775433187,0.107421875,,
0.8569299999999348,1200,,,,-0.0625,0.033203125,-0.978515625,0.03555163264648254,0.7257111128268418,22.845157343720334,0.35991869933237103,1584,0,8.222399317195187,5.897800648434547,71.72846295728674,0.12304775221920516,0.08826026137032655,0.10546875,,
0.8657450000001118,1200,,,,-0.03125,0.005859375,-1.033203125,0.03555163264648254,0.7257111128268418,22.84516699302437,0.3573591507926312,1585,0,8.163929476343037,5.899103447524107,72.25813824847688,0.12302057749664105,0.08889237896159753,0.10546875,,
0.8737399999999906,1200,,,,-0.0625,0.1328125,-0.95703125,0.03555163264648254,0.7257111128268418,22.845240211723603,0.3551801889331006,1584,0,8.114176734622056,5.897970242564669,72.6872292218982,0.12304421402290325,0.0894374298911107,0.10546875,,
0.8829149999998044,1200,,,,0,0.06640625,-0.951171875,0.03555163264648254,0.7257111128268418,22.845615640365065,0.35234450563651215,1583,0,8.049527148766199,5.894121790841714,73.22320531268899,0.12312455333964283,0.09015574448221794,0.10546875,,
0.8909050000000279,1200,,,,-0.03125,-0.052734375,-0.9609375,0.03555163264648254,0.7257111128268418,22.8455367324688,0.35231928612896596,1583,0,8.048923192816478,5.8928389370496435,73.21276145744437,0.123151357194599,0.09016250937448704,0.10546875,,
0.9006699999999255,1200,,,,-0.0625,0.0546875,-0.986328125,0.03555163264648254,0.7257111128268418,22.845673377579455,0.35229210567279823,1583,0,8.048350379700455,5.892298277198769,73.21125447098228,0.12316265719865234,0.09016892637492895,0.10546875,,
0.9090349999999162,1200,,,,-0.0625,0.044921875,-0.982421875,0.03555163264648254,0.7257111128268418,22.845582092395038,0.35226683047080076,1584,0,8.047740793948485,5.897681696041665,73.28369348670422,0.12305023401210613,0.09017575632810412,0.10546875,,
0.9179449999998324,1200,,,,0.0625,-0.00390625,-0.95703125,0.03555163264648254,0.7257111128268418,22.845568459959438,0.3524822555673254,1585,0,8.052657500484251,5.899632285850118,73.26317163613801,0.12300955003033195,0.09012069776756315,0.10546875,,
0.9251499999999069,1200,,,,-0.0625,0.083984375,-0.94921875,0.03555163264648254,0.7257111128268418,22.845684438293862,0.35110630336297416,1585,0,8.021263810926383,5.900278358481348,73.55796415078785,0.1229960806482408,0.09047341291010708,0.10546875,,
0.9322099999999628,1200,,,,-0.09375,-0.00390625,-0.984375,0.03555163264648254,0.7257111128268418,22.845784679745517,0.35132534122613324,1584,0,8.026303098190361,5.895602739373582,73.4535273244643,0.12309362501313136,0.09041660948369408,0.10546875,,
0.9392299999999814,1200,,,,0,-0.0078125,-0.96484375,0.03555163264648254,0.7257111128268418,22.845620417615066,0.35040572377915963,1583,0,8.005236157618354,5.893564553233009,73.62137027805574,0.12313619478872787,0.0906545539117173,0.10546875,,
0.9468049999999348,1200,,,,0,0.13671875,-0.97265625,0.03555163264648254,0.7257111128268418,22.84555039057279,0.34971621123150304,1583,0,7.9894593260895,5.8926807658576195,73.75568890644612,0.12315466282029651,0.09083356998352056,0.10546875,,
0.9550549999999348,1200,,,,-0.03125,0.08203125,-0.986328125,0.0301490351972663,0.7257111128268418,22.8455727289898,0.3487438374035473,1584,0,7.967252701189733,4.999704417223962,62.7531798568077,0.14515080338084982,0.091086744709186,0.10546875,,
0.962964999999851,1200,,,,-0.03125,-0.0234375,-1.005859375,0.0301490351972663,0.7257111128268418,22.845496763819522,0.34847343515052615,1586,0,7.961048735008418,5.006303871066212,62.884979576260804,0.14495946141445148,0.09115772770433547,0.10546875,,
0.9709749999998603,1200,,,,-0.125,0.0234375,-0.94140625,0.0301490351972663,0.7257111128268418,22.845687164545964,0.3479939432831079,1587,0,7.950160763402635,5.008973311752711,63.004679538189514,0.14488220792154813,0.09128257080882482,0.10546875,,
0.9853999999999069,1200,,,,0,0.041015625,-0.958984375,0.0301490351972663,0.7257111128268418,22.845742797067444,0.3477195661620771,1587,0,7.94391177404669,5.010087707476032,63.06826976407688,0.14484998171667507,0.09135437722228867,0.103515625,,
0.9931750000000465,1200,,,,0,0.01953125,-0.953125,0.0301490351972663,0.7257111128268418,22.845534860106604,0.35139290510156246,1586,0,8.027758863091877,5.006636641466053,62.3665549358287,0.14494982655948,0.0904002132106065,0.103515625,,
1.0011750000000466,1200,,,,-0.0625,-0.015625,-0.9765625,0.0301490351972663,0.7257111128268418,22.845466049575816,0.35277612909954154,1586,0,8.05933508044435,5.005979007661111,62.11404486466775,0.14496886857020758,0.09004602806349997,0.103515625,,
1.0092549999998883,1200,,,,0,0.046875,-0.94921875,0.0301490351972663,0.7721763183879682,22.845491646062406,0.35231517821367453,1587,0,8.048813460661489,5.009907972217334,62.244056179252006,0.15412984084140988,0.09593666472231886,0.103515625,,
1.0167600000000092,1200,,,,-0.0625,0.0859375,-1.00390625,0.0301490351972663,0.7721763183879682,22.845483819114314,0.34925646494361856,1589,0,7.978932918590504,5.0158413537466275,62.863560891206085,0.15394751626488032,0.09677689062767242,0.1015625,,
1.0252399999999906,1200,,,,-0.0625,0,-1.03125,0.0301490351972663,0.7721763183879682,22.845411489204057,0.3459928495363915,1589,0,7.904349019981129,5.0181156347185825,63.48550174130042,0.15387774507337995,0.09769005852803445,0.1015625,,
1.033344999999972,1200,,,,0,0.06640625,-0.97265625,0.0301490351972663,0.7721763183879682,22.845341637208954,0.34552931539164566,1590,0,7.893735255793067,5.019024114977638,63.582371999292334,0.1538498920703848,0.09782141069670182,0.103515625,,
1.0486750000000467,1200,,,,-0.125,0.0546875,-1.01171875,0.0301490351972663,0.7721763183879682,22.845053162688885,0.3435168463651238,1590,0,7.847660617490483,5.01888892422122,63.95394970362715,0.15385403623129332,0.09839573294836161,0.103515625,,
1.056814999999944,1200,,,,0,0.078125,-0.9765625,0.0301490351972663,0.7721763183879682,22.84519678818613,0.3428645983535132,1590,0,7.832809221088406,5.018873523282215,64.07501295665182,0.15385450834851574,0.09858229615870442,0.1015625,,
1.064939999999944,1200,,,,-0.1875,0.1796875,-0.9765625,0.0301490351972663,0.7721763183879682,22.84520363695433,0.3422334774188064,1590,0,7.818393483015644,5.019320627532105,64.1988745953484,0.15384080350484228,0.09876406451855003,0.103515625,,
1.073350000000093,1200,,,,-0.03125,-0.04296875,-1.001953125,0.0301490351972663,0.7721763183879682,22.844946518201898,0.3427075073927032,1590,0,7.829134677772586,5.0199477990570704,64.11880757791819,0.1538215832708482,0.09862856499074235,0.103515625,,
1.0834799999999813,1200,,,,-0.03125,0.0390625,-0.9140625,0.0301490351972663,0.7721763183879682,22.844889866311483,0.3427339493940432,1590,0,7.8297193273528904,5.02021813549296,64.1174724865932,0.15381330004939006,0.09862120033988872,0.103515625,,
1.0920400000000372,1200,,,,-0.03125,0.05859375,-1.00390625,0.0301490351972663,0.7721763183879682,22.844914623988505,0.3420324409311049,1588,0,7.813701911705483,5.014231432396563,64.1722897681173,0.15399694425729865,0.09882336530283975,0.103515625,,
1.1002900000000373,1200,,,,-0.09375,0.08203125,-1.009765625,0.0301490351972663,0.7721763183879682,22.844935504248284,0.33950091235222707,1587,0,7.755876446320077,5.009357810088059,64.5879011193486,0.15414676844064254,0.09956016237911344,0.103515625,,
1.108214999999851,1200,,,,-0.0625,0.109375,-0.91015625,0.027525343148957482,0.7721763183879682,22.844889990063532,0.34285216356126896,1586,0,7.832419959412458,4.571703673795676,58.36898043626633,0.1689034052696739,0.0985871955780436,0.103515625,,
1.116469999999972,1200,,,,0,-0.00390625,-0.943359375,0.027525343148957482,0.7721763183879682,22.84478161382466,0.3451938063025769,1586,0,7.885877119427261,4.571021455827375,57.96465487100262,0.16892861384484595,0.09791888799353371,0.103515625,,
1.125405000000028,1200,,,,-0.125,0.09375,-1.0078125,0.027525343148957482,0.7721763183879682,22.84473893459555,0.3479322820061481,1589,0,7.948422149348531,4.578985601684647,57.608736874399035,0.16863479939833792,0.09714837786405914,0.103515625,,
1.1359199999999254,1200,,,,0,0.015625,-0.966796875,0.027525343148957482,0.7721763183879682,22.84469859111186,0.3486202375243792,1590,0,7.964124249006268,4.581850824199146,57.53113187267076,0.1685293450213835,0.09695683972840044,0.103515625,,
1.1434650000000839,1200,,,,-0.0625,0.05859375,-0.9609375,0.027525343148957482,0.7721763183879682,22.844575006424385,0.35092833247464345,1592,0,8.016808613096426,4.589826281238635,57.252536548528774,0.16823650200974155,0.09631966480109365,0.103515625,,
1.1520749999999533,1200,,,,-0.0625,0.046875,-0.90625,0.027525343148957482,0.7721763183879682,22.844747855086805,0.3475820901741611,1595,0,7.940425208972755,4.598509285532198,57.91263269296761,0.16791883422251308,0.09724621768559721,0.103515625,,
1.159869999999879,1200,,,,0,-0.03515625,-1.0390625,0.027525343148957482,0.7912149300039373,22.84484073964279,0.3435849583641963,1596,0,7.849143654366864,4.601787127600009,58.62788770644819,0.17193644731163027,0.10080270725631904,0.103515625,,
1.167969999999972,1200,,,,-0.0625,0.091796875,-0.97265625,0.027525343148957482,0.7912149300039373,22.844897660657548,0.3422848127667668,1597,0,7.819461518454118,4.603103629227263,58.86727133785142,0.17188727296516695,0.10118534737163817,0.103515625,,
1.176320000000065,1200,,,,-0.03125,0.0390625,-1.03515625,0.027525343148957482,0.7912149300039373,22.84511725326631,0.34125354012680253,1598,0,7.795977137289023,4.604877357683135,59.067353284779344,0.17182106461181051,0.1014901552519271,0.103515625,,
1.1853149999999442,1200,,,,-0.0625,0.05859375,-0.947265625,0.027525343148957482,0.7912149300039373,22.845273474408046,0.339946374464054,1598,0,7.766167891264838,4.6056051166918754,59.303445163374946,0.17179391414526066,0.10187970966915008,0.103515625,,
1.1950549999999347,1200,,,,0,-0.01953125,-0.990234375,0.027525343148957482,0.7912149300039373,22.845210385193347,0.33988987584869434,1598,0,7.76485572156067,4.6058577564177545,59.31672038192123,0.171784490934716,0.10189692614725233,0.103515625,,
1.2021950000000652,1200,,,,-0.0625,0.1484375,-0.91015625,0.027525343148957482,0.7912149300039373,22.84549365880811,0.33738871640333895,1596,0,7.707811781145888,4.599591807661562,59.67441782780223,0.17201851013953168,0.10265104448182447,0.103515625,,
1.2092649999998974,1200,,,,-0.0625,0.04296875,-0.998046875,0.027525343148957482,0.7912149300039373,22.845429474293987,0.33567466436802407,1595,0,7.6686318711269985,4.597807723669282,59.95603649955332,0.17208525835710847,0.1031755003109386,0.103515625,,
1.2164950000001118,1200,,,,0,0.0546875,-1.03515625,0.027525343148957482,0.7912149300039373,22.845454185814315,0.3357163420485478,1595,0,7.669592311699266,4.597025478981544,59.93832908131505,0.17211454093990106,0.1031625799453526,0.1015625,,
1.2250500000000466,1200,,,,-0.09375,0.107421875,-0.94921875,0.027525343148957482,0.7912149300039373,22.845978981327367,0.3347909026734044,1593,0,7.648625925616213,4.592912287182792,60.04885494269696,0.17226867846179877,0.10344536884122658,0.103515625,,
1.2336700000001584,1200,,,,0.0625,-0.10546875,-0.9609375,0.027525343148957482,0.7912149300039373,22.84601242411348,0.3339347152203677,1592,0,7.629076652767317,4.587637949677706,60.13359359829763,0.17246673313867808,0.10371044439787316,0.103515625,,
1.2421350000000093,1200,,,,-0.125,0.1015625,-1.005859375,0.027525343148957482,0.7912149300039373,22.84604834716367,0.3327718273511317,1591,0,7.6025212562379565,4.585395426533834,60.3141414799921,0.17255107933014793,0.10407270211243885,0.103515625,,
1.250719999999972,1200,,,,0,0.052734375,-0.9609375,0.027525343148957482,0.7912149300039373,22.846045973435384,0.3339367625240306,1590,0,7.629134628844177,4.584353413536841,60.09008408639625,0.1725902997939927,0.1037096562711736,0.103515625,,
1.2594150000000373,1200,,,,0,0.03125,-1.0390625,0.02614866358616522,0.7912149300039373,22.846080163845972,0.3327699942823975,1590,0,7.602489965498219,4.354107775788487,57.2721278889994,0.18171689143837416,0.10407313046049986,0.103515625,,
1.2684449999998324,1200,,,,-0.08203125,0.037109375,-0.9765625,0.02614866358616522,0.7912149300039373,22.846187193861464,0.33226012392749654,1590,0,7.590876988303195,4.35376296387404,57.35520376081402,0.18173128316106188,0.10423234775416895,0.103515625,,
1.2769350000000559,1200,,,,0,0.01171875,-0.98828125,0.02614866358616522,0.7912149300039373,22.84628680895463,0.3321431001068583,1590,0,7.5882365266566145,4.353641655591635,57.373562886420125,0.18173634685522036,0.10426861725046245,0.103515625,,
1.2871049999999813,1200,,,,-0.03125,0.1015625,-1.00390625,0.02614866358616522,0.7912149300039373,22.8462728699363,0.3320449172560422,1587,0,7.58598878470696,4.345828000310573,57.28756163035177,0.18206310280742666,0.10429951222693525,0.103515625,,
1.2949249999998138,1200,,,,-0.03125,0.01171875,-0.9765625,0.02614866358616522,0.7912149300039373,22.846317453998807,0.3319276287106582,1586,0,7.583323977276746,4.342366240658171,57.26204305222842,0.18220824457312773,0.10433616345217406,0.103515625,,
1.3028600000001025,1200,,,,-0.03125,0.01953125,-0.986328125,0.02614866358616522,0.8044028699094828,22.846206653498076,0.3330868147910045,1585,0,7.6097702042707285,4.341365285741219,57.04988677982382,0.18528799512712368,0.10570659143662954,0.1015625,,
1.3113599999998695,1200,,,,0,0.109375,-0.98828125,0.02614866358616522,0.8044028699094828,22.846295694789447,0.33261674565016713,1587,0,7.59906052416229,4.344481359951285,57.17129566394939,0.1851550975277985,0.10585556824449152,0.1015625,,
1.3193599999998695,1200,,,,-0.0625,0.08203125,-1.025390625,0.02614866358616522,0.8044028699094828,22.846313938491292,0.33228079352692247,1587,0,7.591391324647076,4.345692718510869,57.24500994174346,0.18510348568435508,0.10596250878252275,0.1015625,,
1.327369999999879,1200,,,,-0.0625,0.046875,-1.025390625,0.02614866358616522,0.8044028699094828,22.84629853756319,0.3315343511873303,1587,0,7.574332762683065,4.346169404964728,57.38022795060274,0.18508318359394713,0.10620115264443944,0.1015625,,
1.3348049999999347,1200,,,,-0.0625,0.04296875,-0.9453125,0.02614866358616522,0.8044028699094828,22.846186446141317,0.3321008179444125,1586,0,7.587237205674081,4.342861962472239,57.23904294470257,0.18522413948693975,0.10602052474488523,0.1015625,,
1.3427449999998788,1200,,,,-0.03125,0,-0.93359375,0.02614866358616522,0.8044028699094828,22.845881021198956,0.3313600976511394,1585,0,7.5702133661107975,4.34154245763439,57.350331459215674,0.1852804337995082,0.10625894291309061,0.103515625,,
1.3511599999999162,1200,,,,-0.125,0.109375,-0.984375,0.02614866358616522,0.8044028699094828,22.845919392457517,0.33172203772388353,1585,0,7.578494934541595,4.341029510889849,57.28089216110861,0.18530232699214974,0.10614282609639816,0.103515625,,
1.3591599999999162,1200,,,,0,0.04296875,-0.98046875,0.02614866358616522,0.8044028699094828,22.84589036622641,0.33099566840004174,1585,0,7.561890751963185,4.340823267166206,57.40394048987365,0.18531113118425033,0.10637589146611874,0.1015625,,
1.367060000000056,1200,,,,-0.0625,0.07421875,-0.974609375,0.02614866358616522,0.8044028699094828,22.84579757489301,0.33063336723905945,1585,0,7.553582979448814,4.340743207283319,57.46601604951276,0.18531454902924865,0.10649288848723022,0.1015625,,
1.3756049999999813,1200,,,,0,-0.00390625,-0.9765625,0.02614866358616522,0.8044028699094828,22.845839844171046,0.32976352805546916,1585,0,7.533724748404054,4.340711834872531,57.61707495076812,0.18531588838656574,0.10677359430736937,0.1015625,,
1.3842099999999626,1200,,,,-0.03125,0.04296875,-0.9296875,0.02614866358616522,0.8044028699094828,22.845737069951355,0.3294200447328114,1585,0,7.525843727537422,4.3405601631701165,57.675395880036675,0.18532236385867518,0.10688540700973291,0.103515625,,
1.3934899999999908,1200,,,,-0.09375,0.064453125,-0.994140625,0.02614866358616522,0.8044028699094828,22.845787402681978,0.33016403625958235,1585,0,7.542857380397802,4.340234482472625,57.54098564493507,0.18533627000060504,0.10664431651590627,0.103515625,,
1.402309999999823,1200,,,,-0.03125,0.06640625,-0.99609375,0.02614866358616522,0.8044028699094828,22.8457624292635,0.3292036485125054,1585,0,7.5209083447634635,4.34011528497785,57.70732850374005,0.18534136010020483,0.10695554752632498,0.103515625,,
1.410350000000093,1200,,,,-0.03125,0.041015625,-0.94140625,0.025559256495431858,0.8044028699094828,22.845675976347383,0.3295686957261283,1585,0,7.52921963450655,4.24224715817278,56.343782810246154,0.18961716277180682,0.10683748236309776,0.1015625,,
1.4183950000000187,1200,,,,0,-0.03125,-0.98828125,0.025559256495431858,0.8044028699094828,22.84598306803014,0.32917451112694773,1584,0,7.520315307633346,4.23845728482021,56.360100759579154,0.1897867114976964,0.1069639818283935,0.1015625,,
1.4265399999998045,1200,,,,-0.0625,0.0703125,-0.955078125,0.025559256495431858,0.8044028699094828,22.845884835017213,0.3305129166351255,1583,0,7.550860029931722,4.23693365256556,56.11193474346356,0.18985496018385808,0.10653129136559517,0.1015625,,
1.434284999999916,1200,,,,-0.0625,0.09375,-0.96875,0.025559256495431858,0.8044028699094828,22.84598756675845,0.3294402754141635,1583,0,7.526388436101458,4.2363446177700945,56.286553022560305,0.18988135821983726,0.10687767137436636,0.1015625,,
1.4450849999999626,1200,,,,-0.0625,-0.00390625,-0.9609375,0.025559256495431858,0.8044028699094828,22.846020794754807,0.3288368797434828,1583,0,7.512614192701894,4.235730783131239,56.38158268856701,0.18990887549157048,0.10707362966820758,0.1015625,,
1.4549899999999907,1200,,,,-0.03125,0.033203125,-0.9296875,0.025559256495431858,0.8269525276770499,22.846069306792582,0.3292602117533966,1582,0,7.5223016176873,4.235437735601424,56.30507723384258,0.19524605939216438,0.10993344453679231,0.1015625,,
1.462844999999972,1200,,,,-0.0625,0.064453125,-0.966796875,0.025559256495431858,0.8269525276770499,22.846030996528274,0.3295319104420643,1582,0,7.52849624030458,4.235370322843559,56.257852666101726,0.1952491670484784,0.10984298872992382,0.1015625,,
1.4705100000000093,1200,,,,-0.03125,0.015625,-1.033203125,0.025559256495431858,0.8269525276770499,22.846126222203466,0.3293509511166405,1584,0,7.524393400613532,4.240242387435783,56.3532787518797,0.19502482455422457,0.1099028830164065,0.1015625,,
1.4773850000000093,1200,,,,-0.125,0.078125,-1.02734375,0.025559256495431858,0.8269525276770499,22.845948743916544,0.32994455211127277,1585,0,7.537896325868639,4.2420637183479855,56.27649326762458,0.19494109060650683,0.10970600973100476,0.103515625,,
1.4849449999998323,1200,,,,0.0625,0.015625,-0.984375,0.025559256495431858,0.8269525276770499,22.845951055914636,0.3308223059481728,1585,0,7.557950209896773,4.242875057685693,56.13790697019745,0.19490381320069253,0.10941492133597219,0.1015625,,
1.4934799999999813,1200,,,,-0.125,0.05859375,-0.962890625,0.025559256495431858,0.8269525276770499,22.846051124797658,0.33047088389029106,1584,0,7.54995470861466,4.240967305492043,56.17208935906607,0.19499148852341974,0.10953079317594838,0.103515625,,
1.5015200000000186,1200,,,,0,0.064453125,-0.99609375,0.025559256495431858,0.8269525276770499,22.84601608983824,0.3313034552194902,1583,0,7.568964068563475,4.2379365073490725,55.9909714058584,0.19513093842793977,0.10925570793917092,0.103515625,,
1.5095400000000372,1200,,,,0,0.072265625,-0.982421875,0.025559256495431858,0.8269525276770499,22.84611452574563,0.3308147742905124,1583,0,7.557832220249738,4.236730032032914,56.05747664894467,0.19518650502266072,0.10941662947496927,0.1015625,,
1.5181049999999814,1200,,,,-0.125,0.02734375,-1.03125,0.025559256495431858,0.8269525276770499,22.846217962799198,0.3310151364827084,1583,0,7.562443957069681,4.2362335978073,56.01672715666337,0.1952093784689035,0.10934990492114403,0.1015625,,
1.5260450000001584,1200,,,,-0.03125,0.044921875,-0.984375,0.025559256495431858,0.8269525276770499,22.846305005561106,0.33033676988421434,1583,0,7.546974599326614,4.236065669758472,56.12932194228451,0.19521711704818787,0.10957404411442374,0.1015625,,
1.5340550000001676,1200,,,,-0.03125,0.017578125,-0.962890625,0.025559256495431858,0.8269525276770499,22.846191291981803,0.33129130398517925,1583,0,7.568744504215498,4.235998696199882,55.96699285912735,0.195220203542298,0.10925887737609181,0.099609375,,
1.5424099999999161,1200,,,,-0.125,0.16015625,-0.99609375,0.025559256495431858,0.8269525276770499,22.846280122850754,0.33123419887998984,1583,0,7.567469293880305,4.235972503499655,55.97607785373137,0.19522141066634457,0.10927728882174567,0.1015625,,
1.551405000000028,1200,,,,0,0.033203125,-0.9609375,0.025559256495431858,0.8269525276770499,22.846228426655717,0.3311736726333585,1583,0,7.56606937387621,4.235961589988652,55.986290644048196,0.1952219136338451,0.10929750796791728,0.1015625,,
1.5606099999998697,1200,,,,0,0.00390625,-0.982421875,0.025673131498690348,0.8269525276770499,22.846325409569484,0.33111645543612256,1583,0,7.564794289356868,4.254830265563304,56.24515489534924,0.19435617311694767,0.10931593061830032,0.1015625,,
1.5678499999998603,1200,,,,-0.0625,-0.005859375,-0.93359375,0.025673131498690348,0.8269525276770499,22.8462755962775,0.33150309014837126,1583,0,7.573610958547315,4.254828903070202,56.17966022229264,0.19435623535422,0.1091886726428402,0.1015625,,
1.5754200000001584,1200,,,,0,-0.03515625,-1.00390625,0.025673131498690348,0.8269525276770499,22.846180505876994,0.3314455686359436,1583,0,7.57226528892981,4.254828428388268,56.189637658476755,0.194356257037208,0.1092080765957849,0.1015625,,
1.5851550000000278,1200,,,,0,0.0703125,-0.9609375,0.025673131498690348,0.8269525276770499,22.84605765107724,0.3321054711276187,1583,0,7.587300739619744,4.254828179925418,56.078285624126444,0.19435626838674017,0.10899166331430994,0.1015625,,
1.5956200000001117,1200,,,,-0.0625,0.0234375,-0.990234375,0.025673131498690348,0.8269525276770499,22.8461625325022,0.33059281581625594,1583,0,7.552777202215746,4.254828094559881,56.33461679912455,0.19435627228615213,0.10948986121746689,0.1015625,,
1.604594999999972,1200,,,,-0.0625,0.03125,-0.9765625,0.025673131498690348,0.8366170941547177,22.8464647430114,0.33143464256283744,1583,0,7.5721098759244505,4.255121581967693,56.194662408384566,0.1966141455746234,0.11048665535278941,0.1015625,,
1.6128349999999627,1200,,,,-0.09375,0.10546875,-0.958984375,0.025673131498690348,0.8366170941547177,22.8463441723588,0.33222054579095345,1583,0,7.59002493026901,4.255324399892424,56.06469595273917,0.19660477452103714,0.1102258690637879,0.1015625,,
1.631840000000084,1200,,,,-0.125,0.16015625,-0.984375,0.025673131498690348,0.8366170941547177,22.846311558194014,0.33362891577711096,1584,0,7.622190154666347,4.2573142834068225,55.8542124641232,0.19651288076510837,0.10976072194191273,0.1015625,,
1.6393950000000186,1200,,,,-0.0625,0.044921875,-0.96875,0.025673131498690348,0.8366170941547177,22.84629808037804,0.333477545543352,1584,0,7.618727408596264,4.259108295437885,55.90314585389028,0.1964301060508028,0.10981060868653165,0.103515625,,
1.6476399999998976,1200,,,,-0.03125,-0.013671875,-0.974609375,0.025673131498690348,0.8366170941547177,22.846283379177123,0.3333115558022426,1585,0,7.614930257412443,4.2599507345189105,55.9420847009365,0.19639126043771007,0.10986536525930056,0.103515625,,
1.6554000000001396,1200,,,,-0.125,0.109375,-0.96875,0.025673131498690348,0.8366170941547177,22.846173799873817,0.33315854515342885,1584,0,7.611398025488344,4.259144232792212,55.95744984731563,0.19642844863374065,0.10991635063008555,0.103515625,,
1.6632099999999628,1200,,,,0,0.068359375,-0.91796875,0.025673131498690348,0.8366170941547177,22.846264689156136,0.33300790979709,1583,0,7.607986850806949,4.256511491055598,55.947934381670585,0.1965499437538791,0.1099656335586307,0.103515625,,
1.670160000000149,1200,,,,-0.125,0.12109375,-1.0625,0.025673131498690348,0.8366170941547177,22.84605698088262,0.3325206149287476,1583,0,7.596784915980296,4.255575068542133,56.01810654913073,0.19659319379397633,0.11012778476784872,0.103515625,,
1.6778349999999627,1200,,,,-0.0625,-0.017578125,-0.951171875,0.025673131498690348,0.8366170941547177,22.84625058790511,0.3311252490494512,1583,0,7.5649704157662505,4.255122592799751,56.24770962661791,0.19661409886765385,0.11059092741606939,0.103515625,,
1.6868950000000187,1200,,,,-0.03125,0.01171875,-0.96875,0.025673131498690348,0.8366170941547177,22.846136475866164,0.3307444916769085,1584,0,7.556233795491632,4.257526024509503,56.34455126374892,0.1965031075179633,0.11071879415031849,0.103515625,,
1.6945149999998976,1200,,,,-0.0625,0,-0.9453125,0.025673131498690348,0.8366170941547177,22.846098079372098,0.3298826719388708,1584,0,7.536531877800772,4.259677105551384,56.52038861665899,0.19640387602722387,0.11100823398876808,0.103515625,,
1.7036450000000187,1200,,,,0.03125,0.017578125,-0.9453125,0.025673131498690348,0.8366170941547177,22.846203434207602,0.3295358735656385,1585,0,7.528643606349893,4.260607347992194,56.59196491116495,0.196360994060852,0.11112454485813206,0.103515625,,
1.7125849999999627,1200,,,,0,0.103515625,-0.9609375,0.026046741540454995,0.8366170941547177,22.846302050919366,0.32933028030558054,1584,0,7.523979058375234,4.319944210795735,57.41568626492969,0.19366386539529235,0.11119343736389678,0.103515625,,
1.721195000000065,1200,,,,-0.09375,-0.01171875,-1.0078125,0.026046741540454995,0.8366170941547177,22.846249126601784,0.32842427146980213,1583,0,7.503262725221794,4.317488921959521,57.541486684806145,0.19377399902511236,0.11150043984765143,0.103515625,,
1.7281750000000466,1200,,,,-0.0625,0.03125,-0.953125,0.026046741540454995,0.8366170941547177,22.846093707527373,0.3284982187796487,1583,0,7.504901088995682,4.316708132850516,57.51852131908889,0.19380904810033148,0.11147609864991241,0.103515625,,
1.7358950000000186,1200,,,,-0.03125,0.048828125,-0.998046875,0.026046741540454995,0.8366170941547177,22.84599336267851,0.3292005153617893,1582,0,7.5209127889457825,4.315207602764063,57.37611542453388,0.1938764414529746,0.11123877082903758,0.103515625,,
1.7585550000001677,1200,,,,-0.041015625,0.0234375,-0.96484375,0.026046741540454995,0.8457883951495713,22.846051080909852,0.33152881598432743,1580,0,7.574124264771507,4.310799752939521,56.914827407701196,0.1962021999683077,0.11166814348207511,0.103515625,,
1.7659000000001397,1200,,,,-0.09375,0.08984375,-0.9453125,0.026046741540454995,0.8457883951495713,22.846143703502957,0.3299184376778739,1581,0,7.537364037623891,4.312443419607716,57.21421173345885,0.19612741846164533,0.11221275646601263,0.1015625,,
1.7738149999999442,1200,,,,0,0.0078125,-1.015625,0.026046741540454995,0.8457883951495713,22.846169225665047,0.32886760650945923,1582,0,7.513364991154529,4.315045742848519,57.43160019416885,0.19600913769021494,0.11257118430228219,0.103515625,,
1.785189999999944,1200,,,,-0.0625,0.0625,-0.984375,0.026046741540454995,0.8457883951495713,22.846159038748652,0.329730277697635,1582,0,7.533070364170928,4.31618593737696,57.296503666098296,0.19595735851536908,0.11227671510574783,0.1015625,,
1.793380000000121,1200,,,,0,0.0390625,-0.93359375,0.026046741540454995,0.8457883951495713,22.84597625568396,0.3299417517298596,1583,0,7.5378414257791455,4.318443962085462,57.290193812203846,0.1958548964801487,0.11220564978416839,0.1015625,,
1.8014949999998788,1200,,,,-0.03125,-0.005859375,-0.9921875,0.026046741540454995,0.8457883951495713,22.8461394598302,0.3301615649147498,1584,0,7.542917156318156,4.320883027573659,57.28397830744261,0.19574433969912713,0.11213014509129476,0.1015625,,
1.8098600000001024,1200,,,,-0.03125,0.03515625,-1.041015625,0.026046741540454995,0.8457883951495713,22.846238212070833,0.3303900800316005,1585,0,7.548170471307092,4.3218983371671,57.257561333517295,0.19569835502053137,0.11205210565456518,0.1015625,,
1.823219999999972,1200,,,,-0.0625,0.125,-0.984375,0.026046741540454995,0.8457883951495713,22.846078466885135,0.3313010176480865,1584,0,7.568929045347081,4.3211030731798665,57.090019569363236,0.19573437171614658,0.11174479111671826,0.1015625,,
1.841720000000205,1200,,,,-0.03125,0.0546875,-0.984375,0.026046741540454995,0.8457883951495713,22.845783012670417,0.3318546593118641,1583,0,7.581479538382513,4.317827086025853,56.95230151537215,0.19588287772960325,0.1115598071415514,0.1015625,,
1.8504600000001956,1200,,,,0,0.01171875,-1.001953125,0.026046741540454995,0.8457883951495713,22.845685476111626,0.33081000495877966,1584,0,7.557581325639207,4.319724579531716,57.157500441007315,0.19579683370490714,0.11191257608836065,0.1015625,,
1.8594599999999628,1200,,,,-0.03125,0.0859375,-0.97265625,0.026449802038612958,0.8457883951495713,22.84570262319408,0.3307728620138182,1584,0,7.5567384413905,4.388364911689275,58.07220860858301,0.19273428991664915,0.11192505890066766,0.1015625,,
1.867780000000028,1200,,,,-0.0625,0.0390625,-0.91015625,0.026449802038612958,0.8457883951495713,22.845486778326276,0.3311698165207364,1585,0,7.5657356647052225,4.388983096173683,58.01131959511419,0.19270714345811218,0.11179195687410064,0.1015625,,
1.875784999999916,1200,,,,-0.03125,-0.013671875,-0.990234375,0.026449802038612958,0.8457883951495713,22.845283580250587,0.33218053562525024,1584,0,7.588758536198375,4.386086995573137,57.797161085723104,0.19283438655075072,0.11145280102340338,0.1015625,,
1.8920100000000093,1200,,,,-0.0625,0.1484375,-1,0.026449802038612958,0.8457883951495713,22.845031761306938,0.3314667633540571,1583,0,7.572368736641045,4.384490613885718,57.9011768493275,0.1929045970519249,0.11169403188951764,0.1015625,,
1.903969999999972,1200,,,,0,-0.025390625,-0.97265625,0.026449802038612958,0.8556759814558854,22.845048501231656,0.33115324569334864,1584,0,7.565211959204833,4.386665522567943,57.98470084146881,0.1950629645806628,0.11310667646459757,0.1015625,,
1.9116049999999813,1200,,,,-0.041015625,0.04296875,-0.96484375,0.026449802038612958,0.8556759814558854,22.84497562752263,0.3304774990300267,1586,0,7.5497504107855935,4.392753567973551,58.184089922999995,0.19479262112366177,0.11333831383796006,0.1015625,,
1.9197349999998696,1200,,,,-0.1875,0.08984375,-0.99609375,0.026449802038612958,0.8556759814558854,22.845055591960257,0.32923287240478094,1586,0,7.521343272787979,4.3942235746200735,58.42338815352649,0.19472745683630072,0.11376637794896272,0.1015625,,
1.927375,1200,,,,0,0.021484375,-1.013671875,0.026449802038612958,0.8556759814558854,22.845005074338914,0.3292757658648008,1586,0,7.522306542038206,4.392752675916005,58.39635291871218,0.19479266068114212,0.11375180959110924,0.103515625,,
1.935475000000093,1200,,,,0.0625,0.03125,-0.96484375,0.026449802038612958,0.8556759814558854,22.844759469176076,0.3283585593270414,1585,0,7.501272307471443,4.391104003473249,58.53812291415692,0.1948657970248639,0.11407077978006638,0.103515625,,
1.9436899999999442,1200,,,,-0.09375,0.0546875,-0.97265625,0.026449802038612958,0.8556759814558854,22.84465595554784,0.3293047519965592,1585,0,7.5228537638884,4.390451227256577,58.36151233368183,0.19489476984591494,0.11374353514132449,0.103515625,,
1.9517700000000187,1200,,,,0.0625,-0.07421875,-0.9765625,0.026449802038612958,0.8556759814558854,22.844755030500526,0.32955920125065263,1585,0,7.528699220618582,4.390195980913674,58.31280879026751,0.19490610104330802,0.1136552220219498,0.103515625,,
1.960280000000028,1200,,,,-0.125,0.107421875,-0.978515625,0.026449802038612958,0.8556759814558854,22.84493327987057,0.32959039563590065,1584,0,7.529470597988294,4.386762586204564,58.26123535666118,0.19505864852290034,0.11364357829944947,0.103515625,,
1.9677249999998603,1200,,,,-0.0625,0.076171875,-0.962890625,0.026449802038612958,0.8556759814558854,22.845008152403263,0.3298012635555094,1583,0,7.53431255459851,4.385678148792372,58.209400220801925,0.19510688026468653,0.11357054479159218,0.103515625,,
1.975655000000028,1200,,,,0.0625,-0.03515625,-0.9765625,0.026449802038612958,0.8556759814558854,22.84534714290649,0.3307638710239519,1583,0,7.55641545587373,4.385174809940074,58.03247367151317,0.1951292750100374,0.1132383451456145,0.103515625,,
1.9854199999999256,1200,,,,-0.0625,0.060546875,-0.978515625,0.026449802038612958,0.8556759814558854,22.8454215880629,0.3287753112176282,1583,0,7.511010592513302,4.384538580684541,58.3748155681592,0.19515758972345318,0.11392288306833058,0.103515625,,
1.993684999999823,1200,,,,-0.0625,0.078125,-0.974609375,0.026449802038612958,0.8556759814558854,22.845560405845823,0.328848077349235,1583,0,7.5127186154282075,4.38390851222103,58.35315731402723,0.19518563835684888,0.11389698260476029,0.103515625,,
2.003149999999907,1200,,,,-0.03125,0.021484375,-1.048828125,0.026449802038612958,0.8556759814558854,22.845584787969745,0.328918977043737,1583,0,7.514346378424968,4.3836752519934725,58.33741261355462,0.19519602440138956,0.11387231016029338,0.103515625,,
2.0225,1200,,,,-0.03125,0.01171875,-0.9921875,0.02740977082831529,0.8556759814558854,22.845490758677993,0.32847533384483896,1584,0,7.504180203805937,4.546799944310891,60.59022865688733,0.1881930130940852,0.11402657694999214,0.103515625,,
2.0304299999999347,1200,,,,-0.0625,0.046875,-1.015625,0.02740977082831529,0.8556759814558854,22.845482216211646,0.3259474118812646,1584,0,7.446425801553643,4.547579978185414,61.07064112874924,0.18816073286462995,0.11491096591298268,0.103515625,,
2.037459999999963,1200,,,,-0.0625,0.05859375,-1,0.02740977082831529,0.8556759814558854,22.845676951859335,0.32612763227211894,1584,0,7.450606531963604,4.54801590551554,61.042223690168655,0.18814269765815392,0.114846486361208,0.103515625,,
2.0456699999999257,1200,,,,-0.0625,0.06640625,-0.98828125,0.02740977082831529,0.8556759814558854,22.8457905369491,0.32505059444222817,1585,0,7.426037794537936,4.54842300385642,61.249661390114596,0.18812585828767314,0.11522645118844663,0.103515625,,
2.057285000000149,1200,,,,0,0.03125,-0.96875,0.02740977082831529,0.8782477638383649,22.845833623210723,0.32529928468642405,1585,0,7.431733335695504,4.54858442097516,61.204892795705746,0.19308155737166235,0.11817536019760504,0.1015625,,
2.0652700000000186,1200,,,,-0.0625,0.05078125,-0.939453125,0.02740977082831529,0.8782477638383649,22.84591755686626,0.3251784514267547,1584,0,7.4290000925650785,4.545760348379985,61.18939684668155,0.19320151009530326,0.1182188387259966,0.1015625,,
2.0725150000001302,1200,,,,-0.0625,0.048828125,-1.00390625,0.02740977082831529,0.8782477638383649,22.845832316610053,0.3248195570890898,1583,0,7.420773134412893,4.543971621061997,61.233129469891836,0.1932775635674205,0.11834990073549109,0.1015625,,
2.080564999999944,1200,,,,-0.03125,0.0546875,-1.029296875,0.02740977082831529,0.8782477638383649,22.845937791728044,0.32602736493911183,1583,0,7.448400897799965,4.543170564881415,60.995247533243436,0.1933116424523429,0.11791091482438507,0.1015625,,
2.088719999999972,1200,,,,0,-0.03515625,-0.953125,0.02740977082831529,0.8782477638383649,22.845908391415673,0.32643929876833255,1583,0,7.457802315019297,4.542851829192713,60.91408215586308,0.19332520558885008,0.11776227456038334,0.1015625,,
2.0973049999999347,1200,,,,-0.09375,0.0625,-0.96875,0.02740977082831529,0.8782477638383649,22.845812780266982,0.32629777997776094,1582,0,7.4545379919886745,4.541901667620919,60.928010193281736,0.1933656490406578,0.11781384235779735,0.1015625,,
2.105714999999851,1200,,,,0,0.0625,-1.029296875,0.02740977082831529,0.8782477638383649,22.84578659018537,0.3286490066226073,1582,0,7.508245068376505,4.541516739573509,60.48706053431355,0.19338203824849068,0.11697111053785393,0.103515625,,
2.1137299999999812,1200,,,,-0.0625,0.1015625,-0.98046875,0.02740977082831529,0.8782477638383649,22.845764861404703,0.32913783529273694,1582,0,7.519405592089618,4.541387378792787,60.395563494677106,0.1933875467086503,0.11679749856322125,0.103515625,,
2.1253799999998884,1200,,,,-0.01953125,0.02734375,-0.998046875,0.02740977082831529,0.8782477638383649,22.845913446342294,0.32891535182280224,1585,0,7.514371658916964,4.548362434693059,60.52884580569985,0.19309098086367263,0.1168757420716858,0.103515625,,
2.1337450000001117,1200,,,,0,0.009765625,-0.9375,0.02740977082831529,0.8782477638383649,22.845732576986265,0.33043438347207427,1585,0,7.549015559044339,4.550313128597222,60.27690753856738,0.19300820383521886,0.11633937656760453,0.1015625,,
2.1426100000001025,1200,,,,-0.125,0.10546875,-0.94140625,0.02740977082831529,0.8782477638383649,22.845637904880864,0.3308921682192464,1586,0,7.55944266069783,4.550997468804787,60.20281749692739,0.1929791809066895,0.11617890408831962,0.103515625,,
2.1510749999999534,1200,,,,-0.03125,-0.01953125,-1.03515625,0.02740977082831529,0.8782477638383649,22.845492096119923,0.33128086596714046,1585,0,7.568274405048071,4.55041467552154,60.124863766651934,0.19300389666963827,0.11604332993694969,0.103515625,,
2.1585700000000654,1200,,,,-0.0625,0.109375,-0.974609375,0.027813296171387104,0.8782477638383649,22.84561658658034,0.33025471029430875,1585,0,7.544872487295946,4.617171409696963,61.19614900677719,0.19021337652612869,0.11640326132975186,0.103515625,,
2.167010000000009,1200,,,,0,0.00390625,-0.87890625,0.027813296171387104,0.8782477638383649,22.845537632420225,0.3302484964371676,1585,0,7.544704453405508,4.617080461573861,61.19630649666888,0.19021712338515095,0.11640585383592379,0.103515625,,
2.1748600000001024,1200,,,,-0.03125,-0.0390625,-0.962890625,0.027813296171387104,0.8782477638383649,22.845463226716163,0.3300323741959338,1585,0,7.539742468319034,4.6170446999713946,61.236106131894886,0.19021859672352884,0.11648246177222125,0.103515625,,
2.1832050000000747,1200,,,,-0.0625,0.078125,-0.96875,0.027813296171387104,0.8782477638383649,22.84545686955178,0.3319726519182629,1585,0,7.584066901269401,4.617030279711463,60.87802678716714,0.19021919082870953,0.11580168994703437,0.103515625,,
2.192160000000149,1200,,,,-0.0625,0.099609375,-0.986328125,0.027813296171387104,0.8782477638383649,22.8455992245099,0.33259786999781393,1585,0,7.598397640895703,4.617024284511158,60.76313063245926,0.1902194378280928,0.11558328549581365,0.1015625,,
2.2000499999998135,1200,,,,0,0.009765625,-1.001953125,0.027813296171387104,0.8782477638383649,22.84571495710006,0.3312242623239882,1585,0,7.567055083929572,4.616749294099264,61.01117598448597,0.1902307679909902,0.11606202863562226,0.1015625,,
2.21125,1200,,,,-0.09375,0.0859375,-0.931640625,0.027813296171387104,0.8893644318500874,22.84582729954652,0.32989008145009846,1585,0,7.536611828642284,4.616499925407403,61.254314675764086,0.19264907315504864,0.11800586949033645,0.103515625,,
2.226614999999991,1200,,,,0,-0.0234375,-1.01953125,0.027813296171387104,0.8893644318500874,22.845617602503594,0.327548657366483,1583,0,7.483051372408142,4.611946798640415,61.631900799796746,0.19283926521274464,0.1188505046389757,0.103515625,,
2.236219999999972,1200,,,,-0.03125,0.109375,-0.97265625,0.027813296171387104,0.8893644318500874,22.84563658367803,0.3263860741008565,1583,0,7.4564976348815755,4.610055002861609,61.82601039522526,0.1929183993028349,0.11927374960727288,0.103515625,,
2.2433300000000744,1200,,,,0,-0.013671875,-0.978515625,0.027813296171387104,0.8893644318500874,22.845765518267665,0.3263534498479681,1583,0,7.455794391304406,4.609277572891677,61.82141474109608,0.19295093814281522,0.11928499971610557,0.103515625,,
2.2506149999999905,1200,,,,-0.0625,0.046875,-0.984375,0.027813296171387104,0.8893644318500874,22.845860840874025,0.3262367997709053,1583,0,7.453160528738185,4.611322681017254,61.87070120436474,0.1928653649659352,0.11932715368478132,0.103515625,,
2.2588250000001864,1200,,,,-0.09375,0.11328125,-0.990234375,0.027813296171387104,0.8893644318500874,22.845965056882367,0.3270601361511849,1584,0,7.472004442009159,4.614759638283378,61.76066508122295,0.19272172367809773,0.11902621829958988,0.103515625,,
2.2670499999998137,1200,,,,-0.0625,0.087890625,-0.994140625,0.027813296171387104,0.8893644318500874,22.84606663056128,0.32613015080760777,1585,0,7.4507911555856055,4.616141609475149,61.95505300151359,0.19266402703603527,0.11936510006502614,0.103515625,,
2.274885000000009,1200,,,,0.0625,0.01171875,-1.05078125,0.027813296171387104,0.8893644318500874,22.846160307612596,0.326954102533356,1585,0,7.469645839708656,4.616670280360381,61.80574527132398,0.19264196441177578,0.11906380181001673,0.103515625,,
2.2911149999999907,1200,,,,-0.09375,0.07421875,-0.958984375,0.027813296171387104,0.8893644318500874,22.846236136066167,0.3269600208685061,1583,0,7.469805843815013,4.610544523468938,61.7224144759594,0.19289791635737993,0.11906125144959152,0.1015625,,
2.2985699999998324,1200,,,,-0.09375,0.01171875,-1.0390625,0.027813296171387104,0.8893644318500874,22.846050621489525,0.32938019380656747,1583,0,7.525036581420871,4.609961046840553,61.26164300944972,0.19292233118967791,0.11818738981892875,0.103515625,,
2.306565000000177,1200,,,,0,0.0703125,-0.962890625,0.027813296171387104,0.8893644318500874,22.846048156882166,0.3297383053929037,1583,0,7.5332172041749965,4.6119699940106145,61.22178438522398,0.19283829534994165,0.11805904539128267,0.1015625,,
2.3150749999999536,1200,,,,-0.0625,0.10546875,-0.98046875,0.02864036477304132,0.8893644318500874,22.845750014531394,0.32975750313817237,1585,0,7.533557482110737,4.752272109522506,63.0813811510339,0.18714509846100713,0.11805371286566557,0.1015625,,
2.3233600000001022,1200,,,,-0.03125,0.0078125,-0.9765625,0.02864036477304132,0.8893644318500874,22.845860231198042,0.32977561057005156,1585,0,7.534007506741394,4.753507786869848,63.09401447525016,0.18709644997462552,0.11804666122966939,0.1015625,,
2.332159999999916,1200,,,,-0.09375,0.076171875,-0.978515625,0.02864036477304132,0.8893644318500874,22.845759183367434,0.3293227729718384,1586,0,7.523628764913405,4.755371439398299,63.20582245598122,0.18702312599215581,0.11820950496622806,0.1015625,,
2.3410500000000467,1200,,,,0,0.01953125,-0.982421875,0.02864036477304132,0.8893644318500874,22.84610420804815,0.32984751824179653,1587,0,7.5357307745181465,4.758771088450224,63.14943076976516,0.18688951733959622,0.11801966636831655,0.1015625,,
2.348629999999888,1200,,,,-0.0625,0.1484375,-0.99609375,0.02864036477304132,0.8893644318500874,22.846197935333993,0.3287892832684115,1587,0,7.5115850445667265,4.759915505726056,63.3676577910676,0.18684458385452535,0.11839903649807995,0.1015625,,
2.3569749999998604,1200,,,,-0.0625,0.033203125,-0.923828125,0.02864036477304132,0.9053405139857911,22.846580808422512,0.32949392744247663,1587,0,7.527809639199046,4.7603625678176815,63.23702107223026,0.19018310078024817,0.12026612751622645,0.1015625,,
2.367559999999823,1200,,,,-0.125,-0.015625,-0.953125,0.02864036477304132,0.9053405139857911,22.84645486403707,0.32931292145072416,1586,0,7.523632796068155,4.756708897571123,63.22356535073025,0.19032918210489555,0.120332894829599,0.1015625,,
2.384469999999972,1200,,,,-0.0625,0.1640625,-0.92578125,0.02864036477304132,0.9053405139857911,22.846261854512186,0.32898233157371093,1585,0,7.516016492640952,4.754592240618817,63.259470562286715,0.190413913153562,0.12045483333787574,0.1015625,,
2.3929499999999533,1200,,,,-0.03125,-0.00390625,-0.966796875,0.02864036477304132,0.9053405139857911,22.846141856566703,0.3293890341192836,1585,0,7.525268599486643,4.753973446140652,63.17347192716759,0.19043869812120223,0.12030673749606113,0.1015625,,
2.4006799999999346,1200,,,,-0.0625,0.03125,-1.013671875,0.02864036477304132,0.9053405139857911,22.846430170759096,0.3300662992141588,1585,0,7.540836656717157,4.753753778526175,63.040137254420834,0.19044749815933407,0.1200583642372548,0.1015625,,
2.4077349999998696,1200,,,,-0.0625,0.09375,-0.9140625,0.02864036477304132,0.9053405139857911,22.846238019045547,0.3278094358399676,1585,0,7.48921239608894,4.753673282580354,63.47360751930129,0.19045072308679173,0.1208859444897815,0.1015625,,
2.416030000000028,1200,,,,0,0.021484375,-0.97265625,0.02864036477304132,0.9053405139857911,22.846455408012854,0.3283491753426377,1584,0,7.501614792723366,4.749382853794618,63.31147339638876,0.19062276970626837,0.12068608413004352,0.1015625,,
2.425019999999786,1200,,,,-0.0625,0.1171875,-0.97265625,0.02864036477304132,0.9053405139857911,22.846394356781012,0.3267914050669761,1583,0,7.466005312566701,4.747598976640393,63.58954725962068,0.1906943948805148,0.12126170235399264,0.1015625,,
2.433130000000121,1200,,,,-0.03125,0.068359375,-0.962890625,0.02864036477304132,0.9053405139857911,22.846670336293222,0.32663507031437505,1583,0,7.4625237717444834,4.74698680339881,63.6110108134252,0.1907189869029283,0.12131827538207673,0.1015625,,
2.4413249999999533,1200,,,,-0.09375,-0.02734375,-0.974609375,0.02864036477304132,0.9053405139857911,22.846637733973992,0.3249044265643327,1583,0,7.422973731879866,4.74865296605715,63.97238004039865,0.19065206921985364,0.12196466627620867,0.1015625,,
2.449125,1200,,,,-0.03125,0.0625,-0.974609375,0.02864036477304132,0.9053405139857911,22.84650688523437,0.3266729227298649,1584,0,7.463335178367494,4.751246280069485,63.66116711253959,0.19054800795814583,0.12130508577585047,0.1015625,,
2.456619999999879,1200,,,,-0.0625,0.1171875,-0.9453125,0.029222756439877408,0.9053405139857911,22.846580764438038,0.3262000608205469,1585,0,7.452556034901225,4.848892791676469,65.06348652688439,0.18671077148578827,0.12148053764989777,0.1015625,,
2.4735100000000094,1200,,,,-0.125,0.015625,-0.9453125,0.029222756439877408,0.9053405139857911,22.84652859310924,0.326871915405264,1584,0,7.467888561590749,4.8458998698071865,64.88982568286949,0.18682608768427025,0.12123112262844786,0.1015625,,
2.4826949999998322,1200,,,,-0.03125,0.041015625,-0.978515625,0.029222756439877408,0.9053405139857911,22.84650205650439,0.3270354701835949,1583,0,7.471616542099381,4.844628007944859,64.84042617347184,0.18687513520152518,0.12117063407692062,0.1015625,,
2.4913400000000836,1200,,,,-0.0625,0.03515625,-1.015625,0.029222756439877408,0.9053405139857911,22.846510978921735,0.3279110823092186,1583,0,7.491624142087672,4.8441161618475626,64.66042703121602,0.18689488107578558,0.1208470282030863,0.1015625,,
2.5003899999998977,1200,,,,-0.0625,0.09765625,-0.98046875,0.029222756439877408,0.9053405139857911,22.846595246189548,0.3277910780012892,1584,0,7.4889100844076015,4.847187240409986,64.72486898330033,0.18677646830684744,0.12089082440324248,0.1015625,,
2.508719999999972,1200,,,,0,0.046875,-0.93359375,0.029222756439877408,0.9261008519520036,22.846598861985264,0.32813067726274414,1584,0,7.496669957733464,4.848207276230814,64.67147818384973,0.19101923642835475,0.12353496381371978,0.1015625,,
2.5191799999999347,1200,,,,-0.09375,0.013671875,-0.970703125,0.029222756439877408,0.9261008519520036,22.846463133405674,0.328235100449816,1584,0,7.49901112151643,4.8486032302189015,64.65656806811656,0.19100363712586,0.12349639665086,0.1015625,,
2.5378300000000746,1200,,,,-0.01953125,0.056640625,-0.94140625,0.029222756439877408,0.9261008519520036,22.846297799070793,0.3343090145481004,1583,0,7.637723303279793,4.844319615118139,63.42622562718252,0.1911725330966666,0.12125352217909192,0.1015625,,
2.546244999999879,1200,,,,-0.0625,-0.01171875,-1.0390625,0.029222756439877408,0.9261008519520036,22.846251069774528,0.33621263196140444,1583,0,7.681198202619946,4.844022051086275,63.06336489838328,0.19118427665793242,0.12056723801712653,0.1015625,,
2.553415000000037,1200,,,,-0.0625,0.052734375,-0.947265625,0.029222756439877408,0.9261008519520036,22.846334927798978,0.3337378231309643,1587,0,7.624686085324547,4.856798887516854,63.69834552093725,0.1906813259927864,0.1214608498747898,0.1015625,,
2.561505000000121,1200,,,,-0.0625,0.0546875,-0.9765625,0.029222756439877408,0.9261008519520036,22.84635124037392,0.332491935852876,1589,0,7.59622755108668,4.862010246848988,64.00558980297335,0.1904769436782242,0.12191589123992475,0.1015625,,
2.5692150000000837,1200,,,,-0.0625,0.048828125,-1.021484375,0.029222756439877408,0.9261008519520036,22.846336000103488,0.33238915208943415,1589,0,7.593874251424713,4.863923998014687,64.05062603060814,0.1904019989477655,0.12195367230083573,0.1015625,,
2.5766450000000187,1200,,,,0,0.0625,-0.90625,0.029222756439877408,0.9261008519520036,22.84622180154028,0.3320661696990399,1590,0,7.58645736573218,4.8645915082681,64.12204371227772,0.19037587233747308,0.12207290007786452,0.099609375,,
2.585219999999972,1200,,,,-0.03125,0.0390625,-0.984375,0.029222756439877408,0.9261008519520036,22.846210818084554,0.3316465130944169,1590,0,7.576866155237688,4.864637650048792,64.20382187543323,0.19037406659522008,0.12222742661381374,0.099609375,,
2.593155000000028,1200,,,,-0.03125,0.025390625,-0.984375,0.029222756439877408,0.9261008519520036,22.846102809819804,0.3309356148540019,1590,0,7.560589080385458,4.8646555151232,64.34228157887385,0.1903733674610564,0.12249056814297711,0.099609375,,
2.6010249999999067,1200,,,,-0.0625,0.005859375,-0.98828125,0.029222756439877408,0.9261008519520036,22.84626266241526,0.330251631441167,1589,0,7.545015516596059,4.8634933766677575,64.45968687499702,0.19041885743998388,0.12274339925676056,0.099609375,,
2.6090149999998977,1200,,,,0,0.0859375,-1.05078125,0.02948383867848216,0.9261008519520036,22.846249868383563,0.33024557552660105,1588,0,7.544872936408863,4.9041457617257045,64.99971309072745,0.18884040094805846,0.12274571881561737,0.099609375,,
2.617320000000065,1200,,,,-0.0625,0.12890625,-0.90625,0.02948383867848216,0.9261008519520036,22.846140152211888,0.3300281299422222,1588,0,7.539868910832404,4.903037155822521,65.02814855014799,0.18888309888743707,0.12282718213064553,0.099609375,,
2.6262949999999257,1200,,,,-0.0625,-0.0078125,-0.958984375,0.02948383867848216,0.9261008519520036,22.846315742328592,0.3300336014392274,1588,0,7.540051864058421,4.902570594719517,65.02038292453754,0.1889010742546966,0.12282420182896875,0.099609375,,
2.6339199999999257,1200,,,,-0.0625,0.00390625,-0.978515625,0.02948383867848216,0.9261008519520036,22.846399019592827,0.3297168164843077,1586,0,7.5328419528703545,4.896684640375779,65.0044786683719,0.18912813872386383,0.12294176059264288,0.099609375,,
2.6409550000000745,1200,,,,0,0.09375,-0.94921875,0.02948383867848216,0.9261008519520036,22.846239677319726,0.328250972484475,1585,0,7.499300391693598,4.894554757093383,65.26681825566965,0.18921043852045205,0.12349163302989899,0.099609375,,
2.6488349999999627,1200,,,,-0.0625,0.0625,-0.953125,0.02948383867848216,0.9261008519520036,22.8462278273745,0.3299579539707075,1585,0,7.538294589869131,4.893537385132783,64.9157090744279,0.18924977558475822,0.12285283374260932,0.099609375,,
2.6569099999999164,1200,,,,-0.03125,0.015625,-0.998046875,0.02948383867848216,0.935416438011886,22.8463144946391,0.32996624452561446,1585,0,7.538512595047175,4.893434524741833,64.91246732089874,0.19115744438436855,0.12408501361746843,0.099609375,,
2.6652650000001303,1200,,,,-0.125,0.0625,-0.9609375,0.02948383867848216,0.935416438011886,22.846331788342923,0.33018513860201326,1585,0,7.543519228081589,4.893975601874384,64.87655766364347,0.1911363100489555,0.12400265840507096,0.099609375,,
2.676149999999907,1200,,,,-0.03125,0.01171875,-0.958984375,0.02948383867848216,0.935416438011886,22.846350236390954,0.32994263078178954,1585,0,7.537984900756991,4.894204554399905,64.92722682302549,0.19112736862846155,0.12409370015028132,0.099609375,,
2.693244999999879,1200,,,,-0.0625,0.064453125,-0.947265625,0.02948383867848216,0.935416438011886,22.846518716194304,0.33059069783613027,1585,0,7.552846565512886,4.893236975670986,64.78665935058227,0.19116516176566678,0.12384952215011205,0.099609375,,
2.7015799999998418,1200,,,,-0.09375,-0.0234375,-0.990234375,0.02948383867848216,0.935416438011886,22.846492151170445,0.33123465248310346,1585,0,7.567549888150893,4.893018412121351,64.65789435736306,0.19117370081718932,0.12360888951343961,0.099609375,,
2.709030000000028,1200,,,,-0.0625,0.0859375,-1.05859375,0.02948383867848216,0.935416438011886,22.84631379999624,0.330778342045551,1585,0,7.557065800615148,4.892939320519031,64.74654911858441,0.19117679103215596,0.12378037490896833,0.099609375,,
2.7183950000000188,1200,,,,-0.03125,0.060546875,-0.96875,0.02948383867848216,0.935416438011886,22.846259913250865,0.3324151728909693,1583,0,7.594443438975307,4.888264042810302,64.36632364293254,0.19135963806777254,0.12317116396064681,0.099609375,,
2.7271750000000465,1200,,,,-0.09375,0.107421875,-0.970703125,0.02948383867848216,0.935416438011886,22.846572928729206,0.33370954766024,1583,0,7.624119517632908,4.886598575870353,64.0939398256904,0.19142485790236588,0.12269173323535575,0.099609375,,
2.7352249999998604,1200,,,,-0.03125,0.033203125,-0.970703125,0.02948383867848216,0.935416438011886,22.846643372797253,0.3339611223824551,1582,0,7.629890663451051,4.8860271460919265,64.03797068150834,0.19144724538832655,0.1225989308723319,0.1015625,,
2.7445100000000093,1200,,,,0,-0.0390625,-0.96875,0.02948383867848216,0.935416438011886,22.84664486609403,0.3347155012166313,1581,0,7.64712618747304,4.882063596561236,63.8418077180245,0.19160267364619388,0.12232261049179709,0.1015625,,
2.7524299999999347,1200,,,,-0.125,0.087890625,-0.97265625,0.02948383867848216,0.935416438011886,22.84677750677429,0.3344892672410422,1581,0,7.642001867060058,4.880745211720089,63.867364816514396,0.191654429279709,0.12240463353508031,0.1015625,,
2.7603899999998975,1200,,,,-0.03125,0.033203125,-1.02734375,0.029631381275837688,0.935416438011886,22.846639885385162,0.3342730162465666,1581,0,7.6370152255868105,4.904647505274779,64.22204696990003,0.1907204211935471,0.12248455848011101,0.1015625,,
2.768434999999823,1200,,,,0,0.08203125,-0.9765625,0.029631381275837688,0.935416438011886,22.846510504631006,0.33375042510744063,1582,0,7.6250325931422065,4.907953055846675,64.36632231920929,0.19059196927272087,0.12267704125660785,0.1015625,,
2.7767249999998604,1200,,,,-0.09375,0.099609375,-0.9609375,0.029631381275837688,0.935416438011886,22.8466472407763,0.33483584903841357,1582,0,7.6498765265464606,4.909247714879722,64.17420853583377,0.1905417066604071,0.12227863217998632,0.1015625,,0.26457499999995343,3263,
2.7852600000000094,1200,,,,0.0625,-0.078125,-0.953125,0.029631381275837688,0.935416438011886,22.846648479630748,0.33481595288098104,1582,0,7.649422380844386,4.909794404733588,64.18516536658572,0.19052049045272457,0.12228589185431142,0.1015625,,
2.7949499999999534,1500,,,,-0.0625,0.09765625,-1.01171875,0.029631381275837688,0.935416438011886,22.846493286028345,0.3360680356071789,1581,0,7.6779761191481475,4.907126946079326,63.91172452127605,0.1906240552344505,0.12183112105272711,0.1015625,,
2.803274999999907,1500,,,,-0.09375,0.099609375,-1.00390625,0.029631381275837688,0.9392743036219738,22.846263056141147,0.3337616538069829,1581,0,7.625206540927045,4.9049341659294985,64.32526305488342,0.19149580235884345,0.12318017860638569,0.1015625,,
2.811165000000037,1500,,,,0,-0.029296875,-0.986328125,0.029631381275837688,0.9392743036219738,22.846282978604087,0.3337965437177845,1580,0,7.626010295056495,4.904116681356864,64.3077637140868,0.19152772347212926,0.12316719585742646,0.1015625,,
2.819064999999944,1500,,,,-0.03125,0.037109375,-0.966796875,0.029631381275837688,0.9392743036219738,22.84636705360738,0.3332988398685059,1580,0,7.614667634177395,4.903578643088829,64.3964894945616,0.19154873858213733,0.12335066331801135,0.1015625,,
2.8293300000000743,1500,,,,-0.5625,-0.05859375,-0.83984375,0.029631381275837688,0.9392743036219738,22.838334679756155,0.6568824106970872,1580,0,15.002100340745113,4.9031253028053605,32.68292566667259,0.19156644907372875,0.06260952015305096,0.10546875,,
2.8377900000000373,1500,,,,-0.041015625,0.1015625,-1.052734375,0.029631381275837688,0.9392743036219738,22.81013198389226,1.4378653323790047,1580,0,32.79789800662821,4.902947800648658,14.948969594508188,0.19157338438269897,0.028638246982539965,0.111328125,,
2.8454799999999816,1500,,,,0.3125,0.0859375,-1.24609375,0.029631381275837688,0.9392743036219738,22.796097695118405,1.8516981164631934,1708,0,42.211491164761696,5.298525178392227,12.552328837924245,0.17727089557909492,0.02225162574702131,0.1171875,,
2.8527600000000093,1500,,,,-0.0625,-0.24609375,-0.85546875,0.029631381275837688,0.9392743036219738,22.782525493747055,2.256900515303456,1768,0,51.41789352675185,5.486725853437566,10.670849148230696,0.17119031070843385,0.018267459812084396,0.125,,
2.861225000000093,1500,,,,0.0625,-0.23046875,-1.05078125,0.029631381275837688,0.9392743036219738,22.769598929656077,2.5865318422224766,1926,0,58.89429266619026,5.97688229229836,10.148491512029889,0.15715121323909886,0.015948477536621944,0.12890625,,
2.8706400000001304,1500,,,,-0.28125,0.046875,-0.931640625,0.029631381275837688,0.9392743036219738,22.758900300636455,2.892868024578393,2136,0,65.83849495427877,6.626935279843477,10.065441630227909,0.14173584982471094,0.014266339233213767,0.1328125,,
2.8793999999999067,1500,,,,-0.21875,-0.134765625,-0.986328125,0.029631381275837688,0.9392743036219738,22.74932418598386,3.1400073785099667,2281,0,71.43304580010457,7.0792325336403685,9.91030475369987,0.13268024452630445,0.013149016580510962,0.13671875,,
2.8872600000000093,1500,,,,-0.1875,0.046875,-1.4296875,0.029631381275837688,0.9392743036219738,22.743511263002674,3.295091695703818,2463,0,74.94195509386635,7.643524522611325,10.199259564335694,0.12288497287388582,0.012533357348971123,0.140625,,
2.895185000000056,1500,,,,0.09375,0.185546875,-0.83203125,0.029631381275837688,0.9392743036219738,22.738502660380117,3.423289867591983,2682,0,77.8404857614926,8.323263809679904,10.69271822786773,0.1128492770503806,0.012066655217183002,0.142578125,,
2.903185000000056,1500,,,,0.0625,-0.037109375,-0.97265625,0.029631381275837688,0.9392743036219738,22.734307930369088,3.5319550643574065,2768,0,80.29655402932785,8.590136226999801,10.698013545964006,0.10934335367927286,0.011697566788219944,0.142578125,,
2.9111700000001584,1500,,,,-0.0625,-0.296875,-1.08984375,0.03020965187782264,0.9392743036219738,22.7311333124578,3.6173707593792317,2902,0,82.22693697203603,9.180551026823153,11.164894820228195,0.10231132106097572,0.011422951385643913,0.146484375,,
2.9196099999998695,1500,,,,-0.125,-0.048828125,-1.03515625,0.03020965187782264,0.9392743036219738,22.72830677183772,3.687029512875362,3206,0,83.79993784545061,10.143061918903571,12.10390148213484,0.09260263923573742,0.011208532222950398,0.146484375,,
2.9285,1500,,,,-0.0625,0.0390625,-0.9375,0.03020965187782264,0.9392743036219738,22.72593834693253,3.742572404315315,4347,0,85.0534697194009,13.750392569057,16.16676264286547,0.0683089081933309,0.01104333905154869,0.146484375,,
2.9374199999999253,1500,,,,-0.0625,0.09765625,-0.9453125,0.03020965187782264,0.9392743036219738,22.724290171191953,3.777445868501258,5070,0,85.83977602179279,16.038355098264915,18.68405981650411,0.05856425411877729,0.010942180270641819,0.146484375,,
2.946469999999972,1500,,,,-0.25,-0.06640625,-0.94140625,0.03020965187782264,0.9392743036219738,22.72310166065942,3.80053656045907,5323,0,86.35997862836433,16.838145427431638,19.497625746170886,0.0557825271001501,0.010876268365743617,0.146484375,,
2.9545250000001397,1500,,,,0.125,0.24609375,-0.982421875,0.03020965187782264,0.946790296003642,22.722163743013958,3.816609507866557,5408,0,86.72162618088782,17.108580473709342,19.728159199901885,0.05534008490409647,0.010917580051241021,0.1484375,,
2.9624249999998136,1500,,,,-0.1875,-0.251953125,-1.017578125,0.03020965187782264,0.946790296003642,22.7219599033428,3.8221793534013337,4168,0,86.84740601136981,13.185512800661485,15.1823910537239,0.07180534502656157,0.010901768279408263,0.150390625,,
2.970290000000037,1500,,,,0.125,0.13671875,-0.875,0.03020965187782264,0.946790296003642,22.721994627258944,3.813619197554322,3722,0,86.65303491724087,11.774880711025515,13.588538153650672,0.08040763377900774,0.010926221994508174,0.15234375,,
2.980870000000112,1500,,,,0.125,-0.158203125,-0.826171875,0.03020965187782264,0.946790296003642,22.722091583970744,3.7966198688400463,3556,0,86.26714436930652,11.24887344338037,13.039580161856698,0.08416756582507381,0.010975097216044002,0.154296875,,
3.0019850000001025,1500,,,,-0.15625,-0.416015625,-1.005859375,0.03020965187782264,0.946790296003642,22.723151758061196,3.75554429826709,3500,0,85.33780302364453,11.07246593718839,12.974866407236362,0.08550853092477959,0.011094617654280542,0.16015625,,
3.0089849999998695,1500,,,,0.03125,0.3671875,-1.111328125,0.03020965187782264,0.946790296003642,22.72366893237699,3.7300516072583503,3490,0,84.76045782401944,11.040718612763623,13.025789260938728,0.08575440867672372,0.011170188556194187,0.166015625,,
3.0174850000001023,1500,,,,-0.09375,-0.29296875,-0.953125,0.03020965187782264,0.946790296003642,22.724153968766384,3.706021127904392,3516,0,84.21619472200067,11.123504473492671,13.208272482758906,0.08511618782190852,0.01124237801445453,0.171875,,
3.026630000000121,1500,,,,0.09375,0.0078125,-0.9375,0.03020965187782264,0.946790296003642,22.724803439786506,3.6790633316889236,3558,0,83.60599105515685,11.257339966236282,13.464752733819696,0.08410426431495492,0.011324431228606836,0.17578125,,
3.0353549999999814,1500,,,,-0.21875,0.287109375,-0.751953125,0.03020965187782264,0.946790296003642,22.725482581875855,3.6551666748095575,3576,0,83.0654266022377,11.312403360490105,13.618666421422269,0.08369488479436811,0.011398127171938662,0.1796875,,
3.043399999999907,1500,,,,0,0.046875,-1.4140625,0.03020965187782264,0.946790296003642,22.72634592228739,3.6281103454882637,3595,0,82.45369075579589,11.373770393160797,13.79413133469869,0.08324331011402866,0.011482691524479631,0.18359375,,
3.0517150000000837,1500,,,,-0.03125,-0.16015625,-0.859375,0.03020965187782264,0.946790296003642,22.727196503236062,3.5981347795110676,3603,0,81.77551617907599,11.398542127493902,13.938820150682782,0.08306240266638418,0.01157791892050323,0.185546875,,
3.060619999999879,1500,,,,0.15625,-0.140625,-1.01953125,0.10412180588740251,0.946790296003642,22.728051036793698,3.5669997632103736,3607,0,81.0709526664764,39.33467692908857,48.518829044615174,0.024070117512608236,0.011678539166780369,0.1875,,
3.0699199999999256,1500,,,,-0.25,-0.03125,-0.7421875,0.10412180588740251,0.946790296003642,22.72900626578883,3.5373120266900937,3626,0,80.39958721868932,39.53223506667329,49.16969904229037,0.023949829661966442,0.01177605916593009,0.19140625,,
3.0781750000000465,1500,,,,-0.03125,0.3359375,-1.033203125,0.10412180588740251,0.946790296003642,22.73020256255328,3.503388503872137,3632,0,79.63273034833415,39.59693103424588,49.72444227522862,0.02391069891716606,0.011889461680669951,0.1953125,,
3.085625,1500,,,,-0.125,0,-0.8828125,0.10412180588740251,0.946790296003642,22.730710849639898,3.4895386332831215,3633,0,79.31969367180623,39.617161502336366,49.946185705477674,0.02389848894014798,0.011936383666849354,0.201171875,,
3.0934199999999255,1500,,,,-0.0625,0.609375,-1.35546875,0.10412180588740251,0.946790296003642,22.731097548186177,3.4747896888382708,3635,0,78.98578337641423,39.6320089813401,50.176129535197504,0.0238895357651291,0.011986844410868511,0.205078125,,
3.1006450000000187,1500,,,,0.03125,-0.380859375,-0.955078125,0.10412180588740251,2.754588031627691,22.73114090727675,3.4597749126302277,3655,0,78.64463104645881,39.85104905033083,50.67230721292224,0.0691220958361402,0.03502576075409949,0.208984375,,
3.107619999999879,1500,,,,-0.375,0.47265625,-0.78125,0.10412180588740251,2.754588031627691,22.731870830944526,3.434189151157742,3664,0,78.06554419314881,39.95074481802825,51.17589998371446,0.06894960392289484,0.03528558034274793,0.212890625,,
3.115344999999972,1500,,,,0.21875,-0.2421875,-0.998046875,0.10412180588740251,2.754588031627691,22.732494497615143,3.4130034511113267,3634,0,77.58608217272973,39.62171385483974,51.0680688407877,0.0695221827536171,0.03550363614823542,0.21875,,
3.123935000000056,1500,,,,-0.625,0.57421875,-1.26953125,0.10412180588740251,2.754588031627691,22.73332187987395,3.388950183236368,3636,0,77.04209535037016,39.64326571358834,51.456629694843656,0.06948438737436088,0.03575432390695558,0.224609375,,
3.1353149999999443,1500,,,,0.34375,-0.1640625,-1.015625,0.10412180588740251,2.754588031627691,22.734230696781342,3.367449396366838,3654,0,76.55637143674078,39.84417691608842,52.04553999664421,0.06913401768667064,0.03598117282640325,0.2265625,,
3.1434150000000374,1500,,,,-0.3125,0.4921875,-0.89453125,0.10412180588740251,2.754588031627691,22.735633735598327,3.331667766335469,3668,0,75.74757806410221,39.993960453017245,52.79899565788351,0.06887510015077485,0.03636536113797052,0.234375,,
3.1525749999999535,1500,,,,0.0625,-0.2265625,-1.119140625,0.10412180588740251,2.754588031627691,22.736565852010393,3.3044642161021085,3666,0,75.13216825501749,39.9676393754903,53.196440757346544,0.06892045851767045,0.036663230885044154,0.23828125,,
3.1709499999999533,1500,,,,-0.5,-0.017578125,-0.810546875,0.10412180588740251,2.754588031627691,22.738185488914613,3.2591133912064114,3670,0,74.10632481865692,40.01121686821856,53.99163562101974,0.06884539504759968,0.03717075483595159,0.25,,
3.1794699999999723,1500,,,,0.34375,-0.072265625,-1.240234375,0.10412180588740251,2.754588031627691,22.73877689299246,3.2363359019215596,3666,0,73.59032002457586,39.97317894463,54.31852848483436,0.06891090737224799,0.03743139085015234,0.25390625,,
3.1878549999999812,1500,,,,-0.6875,0.17578125,-0.47265625,0.10412180588740251,2.754588031627691,22.739361017313346,3.218627773632401,3664,0,73.18953892497866,39.95305397506085,54.58847611543756,0.06894561885925257,0.0376363626836237,0.259765625,,
3.1967950000001584,1500,,,,0.25,0.037109375,-1.072265625,0.10412180588740251,2.754588031627691,22.74013443620149,3.1979537270571687,3674,0,72.72189767403162,40.05672406519619,55.082066538948574,0.06876718193790218,0.0378783849119951,0.26171875,,
3.2058000000000466,1500,,,,-0.21875,0.15234375,-0.697265625,0.10412180588740251,2.754588031627691,22.74067201574843,3.18323204345641,3677,0,72.38883585026286,40.090442884566066,55.38207986586994,0.06870934400897194,0.03805266377436416,0.265625,,
3.215255000000121,1500,,,,0.1875,-0.458984375,-1.08984375,0.13546204828759442,2.754588031627691,22.74122161585764,3.1656032910577863,3670,0,71.98968598983342,52.06242540995594,72.31928392812873,0.05290932971211382,0.03826364837897337,0.2734375,,
3.2232700000000185,1500,,,,-0.28125,0.275390625,-1.072265625,0.13546204828759442,2.754588031627691,22.74188558211622,3.1487691542318568,3674,0,71.60894783003774,52.112124814571025,72.77320278222493,0.052858870012099046,0.03846709266229753,0.27734375,,
3.2318000000000464,1500,,,,0.5625,-0.30078125,-1.13671875,0.13546204828759442,2.754588031627691,22.74258507583879,3.1367367274888895,3674,0,71.33750188542422,52.118201321283756,73.05862967418071,0.05285270715017533,0.038613463589625814,0.279296875,,
3.2402700000000184,1500,,,,-0.34375,0.357421875,-0.736328125,0.13546204828759442,2.754588031627691,22.743168128670966,3.1220754161697837,3671,0,71.00588610033977,52.06915032973358,73.33075212406148,0.05290249628011906,0.038793798414614965,0.28515625,,
3.247909999999916,1500,,,,0.125,-0.109375,-1.046875,0.13546204828759442,4.188917740932493,22.743834288423542,3.10771868781866,3667,0,70.68143885078466,52.02433353760289,73.60395371609692,0.08051843158941704,0.05926474912000168,0.28515625,,
3.2568100000000557,1500,,,,0,-0.078125,-1.01953125,0.13546204828759442,4.188917740932493,22.744339902711047,3.0955257605152013,3672,0,70.40569007475585,52.08397156559225,73.97693497541202,0.08042623507804422,0.05949686362685678,0.2890625,,
3.26452500000014,1500,,,,0.0625,-0.0703125,-0.90625,0.13546204828759442,4.188917740932493,22.744587974394744,3.0821279505121897,3672,0,70.10173031876546,52.09632625393401,74.31532148642043,0.08040716192758737,0.059754840884593194,0.2890625,,
3.272854999999981,1500,,,,-0.3125,0.3046875,-0.955078125,0.13546204828759442,4.188917740932493,22.74504880327431,3.070110420655816,3673,0,69.82981134925757,52.101112820837976,74.61156175870425,0.08039977486348668,0.05998752767612954,0.29296875,,
3.280410000000149,1500,,,,0.4375,-0.234375,-1.16796875,0.13546204828759442,4.188917740932493,22.74532125083627,3.058897953753422,3668,0,69.57561663164729,52.03861119854314,74.79432266342683,0.08049634001473438,0.060206692282869595,0.294921875,,
3.2912000000001864,1500,,,,-0.25,0.25,-0.8359375,0.13546204828759442,4.188917740932493,22.745550989503972,3.0492572764630355,3673,0,69.35703686190598,52.10005486154044,75.1186285038024,0.08040140748536324,0.06039643460075838,0.30078125,,
3.301290000000037,1500,,,,0.125,-0.1015625,-1.02734375,0.13546204828759442,4.188917740932493,22.746242404475566,3.035696874991781,3680,0,69.05069698507201,52.209327676314985,75.61013857340507,0.08023312935387245,0.0606643802862423,0.302734375,,
3.3087299999999815,1500,,,,0.125,0.083984375,-1.048828125,0.13546204828759442,4.188917740932493,22.746491355511395,3.0287846271507126,3683,0,68.8942233391895,52.2511705790654,75.84260050630844,0.08016887840998524,0.06080216218287327,0.3046875,,
3.3163899999998976,1500,,,,-0.40625,0.158203125,-0.919921875,0.13546204828759442,4.188917740932493,22.746663534267395,3.022550312320284,3672,0,68.75293496974433,52.086619379202894,75.75912126824015,0.08042214662533927,0.06092711158841267,0.306640625,,
3.3244850000001023,1500,,,,0.0625,0.11328125,-1.03125,0.13546204828759442,4.188917740932493,22.746926882791943,3.0157287283780665,3673,0,68.598560882751,52.10817585517806,75.96103356197459,0.08038887702717834,0.06106422185870942,0.306640625,,
3.3317649999998977,1500,,,,-0.0625,-0.03515625,-0.890625,0.13546204828759442,4.188917740932493,22.747143802414733,3.008633936176824,3674,0,68.4378287950393,52.11598902073635,76.1508509815758,0.08037682522470736,0.06120763640058852,0.30859375,,
3.3409399999999443,1500,,,,0.0625,0.26953125,-1.08203125,0.13546204828759442,4.188917740932493,22.74756001026269,3.002236928182802,3674,0,68.293564688865,52.11992561101479,76.31747712755245,0.08037075440582028,0.06133693211090326,0.310546875,,
3.349,1500,,,,0,-0.193359375,-0.935546875,0.13546204828759442,4.188917740932493,22.747798958942006,2.992859381401939,3674,0,68.08096352051484,52.12131022802539,76.5578328108116,0.080368619334518,0.06152847322247791,0.314453125,,
3.357405000000028,1500,,,,0.1875,0.076171875,-1.12890625,0.13546204828759442,4.188917740932493,22.748107042773174,2.9850999344133067,3675,0,67.90537284140908,52.13269642130201,76.77256487944824,0.08035106619232635,0.06168757442383215,0.314453125,,
3.3650500000000467,1500,,,,-0.34375,0.12109375,-0.759765625,0.13333805101324298,4.188917740932493,22.7481985784662,2.978550564041492,3676,0,67.75665970681837,51.33017137730898,75.756643847872,0.08160732038358724,0.06182296705678602,0.318359375,,
3.3735700000000652,1500,,,,0.25,-0.0234375,-1.28515625,0.13333805101324298,4.188917740932493,22.74839502642893,2.9707699556748253,3675,0,67.58024848433769,51.314417326692364,75.93108708173058,0.08163237466507355,0.061984349493821575,0.3203125,,
3.381375,1500,,,,-0.15625,-0.029296875,-0.84375,0.13333805101324298,4.188917740932493,22.74866261928271,2.963751013400151,3671,0,67.42137189139727,51.25286575533984,76.0187227247441,0.08173041017703611,0.0621304138942771,0.322265625,,
3.3884600000001956,1500,,,,-0.125,0.3671875,-1.1875,0.13333805101324298,4.188917740932493,22.748863594863835,2.959212812840445,3669,0,67.31872862748061,51.23274294964245,76.10473934103445,0.08176251162366716,0.06222514634987488,0.322265625,,
3.396559999999823,1500,,,,0.15625,-0.279296875,-0.8671875,0.13333805101324298,4.188917740932493,22.749017078154466,2.954492967124951,3673,0,67.21181096641277,51.28697392939588,76.30649017183173,0.0816760557310158,0.06232413143912738,0.328125,,
3.4046100000001025,1500,,,,0.15625,0.083984375,-1.189453125,0.13333805101324298,4.8868684258735815,22.749262575898612,2.9512536021543507,3674,0,67.13884312347594,51.29782213078178,76.4055794593292,0.09526463742290467,0.07278749824279929,0.33203125,,
3.412600000000093,1500,,,,-0.3125,-0.1953125,-0.9921875,0.13333805101324298,4.8868684258735815,22.749460671858042,2.950533606672933,3674,0,67.12304824600135,51.30206065345092,76.42987318667711,0.09525676675805922,0.07280462603491346,0.3359375,,
3.4208300000000746,1500,,,,-0.09375,0.169921875,-0.953125,0.13333805101324298,4.8868684258735815,22.749586308973345,2.9458662864446974,3682,0,67.01723933816844,51.41114005267623,76.7133062483461,0.09505465976569397,0.07291957224938025,0.33984375,,
3.4297050000000744,1500,,,,-0.25,0.07421875,-0.896484375,0.13333805101324298,4.8868684258735815,22.749645315807655,2.941795364640773,3670,0,66.92480113726464,51.24215574025094,76.56676578709865,0.09536812718507322,0.07302029057733736,0.34375,,
3.440700000000186,1500,,,,0.125,0.1640625,-0.95703125,0.13333805101324298,4.8868684258735815,22.74977478612,2.9374444075747754,3669,0,66.82619871907383,51.237382883356716,76.67259827055271,0.09537701090234584,0.07312803241161688,0.34375,,
3.4614150000000374,1500,,,,0.25,-0.3125,-1.091796875,0.13333805101324298,4.8868684258735815,22.750074780516623,2.923883436844836,3672,0,66.51856683773397,51.27883294837106,77.08950355689583,0.09529991508960071,0.07346623143271645,0.35546875,,
3.4798900000001303,1500,,,,-0.375,0.0703125,-1.0078125,0.13333805101324298,4.8868684258735815,22.750473544489612,2.911735452397534,3672,0,66.24336037832259,51.27153467488765,77.3987526932068,0.09531348060597701,0.07377144513750777,0.36328125,,
3.488415000000037,1500,,,,0.28125,-0.1484375,-0.978515625,0.13333805101324298,4.8868684258735815,22.750627885951104,2.910025340135355,3673,0,66.20490365210776,51.292716373281166,77.47570579184456,0.09527412021444812,0.07381429707311414,0.365234375,,
3.4963000000000464,1500,,,,-0.6875,0.53125,-0.6484375,0.13333805101324298,4.8868684258735815,22.750629724061916,2.9079342234736987,3674,0,66.15733478017764,51.30003204373333,77.54247086009288,0.09526053359396582,0.07386737150326991,0.369140625,,
3.5035600000000557,1500,,,,0.34375,-0.08984375,-0.966796875,0.13333805101324298,4.8868684258735815,22.75068986440712,2.9056620862176405,3674,0,66.10581697430372,51.30277453277646,77.60705015221063,0.0952554412578884,0.073924938069719,0.369140625,,
3.5110849999999627,1500,,,,-0.25,0.046875,-1.05078125,0.1320557171842531,4.8868684258735815,22.750751610121,2.904250891391243,3673,0,66.07389064351467,50.78997268348812,76.86844559753996,0.09621718948989133,0.07396065795851905,0.369140625,,
3.5191450000000186,1500,,,,0,-0.0859375,-1.03515625,0.1320557171842531,4.8868684258735815,22.750617784923335,2.90286264755749,3673,0,66.04191857671107,50.797672012815205,76.91731722453082,0.09620260599030454,0.07399646362782804,0.37109375,,
3.5308849999997767,1500,,,,-0.21875,0.03515625,-0.97265625,0.1320557171842531,4.8868684258735815,22.750713708016395,2.9009779738647423,3675,0,65.99931935665822,50.81981699603607,77.00051681049527,0.09616068523534345,0.07404422459972806,0.373046875,,
3.549179999999935,1500,,,,-0.1875,0.130859375,-0.791015625,0.1320557171842531,5.1727954466239625,22.750541752429957,2.9004657524299597,3673,0,65.98716720215097,50.79095609145197,76.97096002902265,0.10184481342131173,0.07839093063015055,0.37890625,,
3.557560000000056,1500,,,,0.3125,-0.2890625,-0.9765625,0.1320557171842531,5.1727954466239625,22.75019468982058,2.907784331309014,3683,0,66.15265965328982,50.92519995036087,76.98133411001614,0.10157634043000563,0.07819482200315003,0.37890625,,
3.5655400000000372,1500,,,,-0.125,0.28515625,-0.8984375,0.1320557171842531,5.1727954466239625,22.75008442638555,2.906826128708101,3683,0,66.13053984093277,50.93766370486468,77.02593057214972,0.1015514860790513,0.07822097716223633,0.376953125,,
3.5739550000000744,1500,,,,0.125,-0.0625,-1.0546875,0.1320557171842531,5.1727954466239625,22.7500803161269,2.90372412436067,3679,0,66.05995704508051,50.87204720307373,77.00890142625694,0.10168247064984282,0.07830455359052009,0.376953125,,
3.5817649999998977,1500,,,,-0.3125,0.154296875,-1.05078125,0.1320557171842531,5.1727954466239625,22.75007643236649,2.9007967567633406,3677,0,65.99334793112683,50.84610373127742,77.04731662400633,0.10173435262537087,0.07838358878265259,0.37890625,,
3.5928400000000837,1500,,,,0.25,-0.37890625,-1.15625,0.1320557171842531,5.1727954466239625,22.75010583994986,2.8948834795804412,3676,0,65.85890555477737,50.84090265424318,77.19670138149633,0.10174476015508432,0.07854359866824011,0.37890625,,
3.6015999999998605,1500,,,,-0.21875,0.232421875,-0.8671875,0.1320557171842531,5.1727954466239625,22.7501700594116,2.8944406494747428,3678,0,65.84901700242416,50.86366100352219,77.24285542736303,0.10169923565403124,0.07855539356697658,0.37890625,,
3.6099099999999162,1500,,,,0,-0.193359375,-0.970703125,0.1320557171842531,5.1727954466239625,22.75016160754755,2.893185718779397,3680,0,65.8204426628799,50.89572350647666,77.32510060309853,0.10163516873801205,0.07858949647479675,0.3828125,,
3.6178600000001024,1500,,,,0.15625,0.1328125,-1.19140625,0.1320557171842531,5.1727954466239625,22.750250214070384,2.889415955471349,3678,0,65.73493595950045,50.866081007271035,77.38058958269896,0.10169439721303748,0.07869172413602017,0.3828125,,
3.6257749999999067,1500,,,,-0.1875,-0.21484375,-0.8828125,0.1320557171842531,5.1727954466239625,22.750337948756595,2.8916651257858432,3677,0,65.78635884626168,50.85397648127756,77.30170414222181,0.10171860303841496,0.07863021357835656,0.3828125,,
3.633160000000149,1500,,,,-0.0625,0.275390625,-0.947265625,0.1320557171842531,5.1727954466239625,22.75016267215643,2.895255639584327,3677,0,65.86753677802174,50.84940414503042,77.1994925457688,0.10172774949083659,0.07853330638515676,0.38671875,,
3.6409499999999535,1500,,,,-0.25,0.0625,-0.849609375,0.1320557171842531,5.1727954466239625,22.75005724329653,2.9006493568099447,3682,0,65.9899389101575,50.921436725546194,77.16545516866377,0.10158384718216094,0.0783876380559543,0.38671875,,
3.6500500000000464,1500,,,,0.0625,0.28515625,-1.078125,0.1320557171842531,5.1727954466239625,22.750154880940837,2.895904593447968,3679,0,65.88227802136927,50.87535800536706,77.22161335839868,0.10167585348644155,0.07851573445815183,0.384765625,,
3.657819999999832,1500,,,,0.15625,-0.03125,-0.884765625,0.1320557171842531,5.1727954466239625,22.75014729438333,2.8936407200705236,3678,0,65.83075259862984,50.857790491082376,77.25536847673969,0.10171097479217038,0.07857718835697505,0.388671875,,
3.6661449999997857,1500,,,,0.09375,0.025390625,-1.107421875,0.13135795403587477,5.1727954466239625,22.750238638705326,2.888422051248574,3677,0,65.71229095520381,50.58213697156355,76.97515371370248,0.10226526114410753,0.07871884196139602,0.388671875,,
3.6735450000001584,1500,,,,-0.125,-0.05859375,-1.01953125,0.13135795403587477,5.1727954466239625,22.750129771956807,2.8886478029707074,3684,0,65.71711238306152,50.67391320424461,77.10915980128448,0.10208004709986897,0.07871306664346442,0.38671875,,
3.6821400000001305,1500,,,,-0.09375,0.07421875,-0.935546875,0.13135795403587477,5.1727954466239625,22.75032173855876,2.884778010208616,3683,0,65.62962787656537,50.65771566010722,77.18726632944353,0.1021126866701082,0.07881799141620659,0.390625,,
3.6914350000000558,1500,,,,-0.375,0.06640625,-0.85546875,0.13135795403587477,5.1727954466239625,22.75041645962451,2.8813256622773604,3678,0,65.55135877261336,50.59443433985227,77.18289183807137,0.10224040478202263,0.07891210103771486,0.390625,,
3.6996750000000467,1500,,,,0.125,0.234375,-0.98046875,0.13135795403587477,5.305208401136695,22.75057284120397,2.878116196952798,3676,0,65.47879218422358,50.57279991991394,77.23538909763047,0.1049024062250442,0.08102178162068982,0.390625,,
3.707844999999972,1500,,,,-0.25,0.154296875,-0.978515625,0.13135795403587477,5.305208401136695,22.750708505894583,2.8754369168302674,3682,0,65.41822712189365,50.64958167577942,77.42426523024562,0.1047433804112471,0.0810967926607291,0.392578125,,
3.716375,1500,,,,0.25,-0.01953125,-1.13671875,0.13135795403587477,5.305208401136695,22.75087050110345,2.8741688468743507,3682,0,65.38984323354418,50.6551988419219,77.4664631952144,0.10473176539475233,0.08113199449322411,0.392578125,,
3.724875,1500,,,,-0.25,-0.056640625,-0.775390625,0.13135795403587477,5.305208401136695,22.75100554505058,2.873776979087277,3679,0,65.38131598645334,50.60551181122294,77.40057086294826,0.10483459629708049,0.0811425759958075,0.39453125,,
3.7331450000000186,1500,,,,0.375,-0.22265625,-1.44921875,0.13135795403587477,5.305208401136695,22.75105450420168,2.8728046694975595,3676,0,65.35933561566407,50.56757625421873,77.36855917810105,0.1049132427163561,0.08116986427666875,0.396484375,,
3.7436399999998975,1500,,,,-0.25,-0.033203125,-0.923828125,0.13135795403587477,5.305208401136695,22.751002945717826,2.8713546860668298,3675,0,65.32619892090713,50.55269623676783,77.3850263321977,0.10494412357927066,0.0812110376659127,0.396484375,,
3.7519599999999627,1500,,,,0.09375,0.1171875,-1.125,0.13135795403587477,5.305208401136695,22.750934644041507,2.8714289810028335,3675,0,65.32769308180217,50.548891791476564,77.37743276527482,0.10495202195572656,0.0812091802245888,0.396484375,,
3.759560000000056,1500,,,,-0.25,0.15234375,-0.783203125,0.13135795403587477,5.305208401136695,22.750794981871014,2.8697715899588054,3675,0,65.2895850879508,50.555693704635864,77.43301421893386,0.10493790139903107,0.08125658011136254,0.400390625,,
3.768104999999981,1500,,,,0.3125,-0.0078125,-0.93359375,0.13135795403587477,5.305208401136695,22.750722519241936,2.875230160092854,3675,0,65.41356355122808,50.54793758984413,77.27439822210258,0.1049540031521008,0.08110257434579245,0.3984375,,
3.7772350000001023,1500,,,,-0.28125,0.095703125,-0.986328125,0.13135795403587477,5.305208401136695,22.750245185642793,2.8791773671421774,3692,0,65.50199103543801,50.79168430156524,77.54219909756,0.10445033422475428,0.08099308612262582,0.400390625,,
3.7849599999999626,1500,,,,0.25,-0.203125,-1.017578125,0.13135795403587477,5.305208401136695,22.750200623712903,2.8793256934685654,3707,0,65.50523718742114,50.99113186190277,77.8428321937204,0.10404178545211698,0.08098907246084203,0.40234375,,
3.793125,1500,,,,-0.5,0.4375,-0.9140625,0.13135795403587477,5.305208401136695,22.750190688736353,2.879791259396337,3664,0,65.51580029502288,50.394591966142926,76.91975331021227,0.10527336752127972,0.08097601459872147,0.40234375,,
3.8013549999999814,1500,,,,0.09375,-0.1796875,-1.08984375,0.13135795403587477,5.305208401136695,22.750277244972445,2.8785587179366265,3677,0,65.48800889899069,50.57663541578232,77.23037585978861,0.10489445091638534,0.08101037869878587,0.400390625,,
3.813125,1500,,,,-0.21875,0.35546875,-0.80078125,0.1323451871976672,5.305208401136695,22.75069853800507,2.874512871843188,3679,0,65.39717579091958,50.98717536093456,77.96540866526861,0.10404985888277797,0.08112289769359314,0.40234375,,
3.8209650000000837,1500,,,,0.125,-0.09375,-0.953125,0.1323451871976672,5.305208401136695,22.750762016228208,2.8758401605315145,3677,0,65.42755508896401,50.96240809919728,77.8913533142145,0.10410042615745738,0.0810852307399081,0.40625,,
3.8285149999998977,1500,,,,0.0625,0.029296875,-1.181640625,0.1323451871976672,5.305208401136695,22.750565874966334,2.8766647000191035,3675,0,65.44574975797488,50.93873727330521,77.83353000260811,0.1041488007971671,0.08106268811581961,0.404296875,,
3.8359150000000373,1500,,,,0,-0.109375,-0.8984375,0.1323451871976672,5.305208401136695,22.750630581094182,2.877208745242239,3676,0,65.45831326769971,50.93963886845954,77.81996865720586,0.10414695743792439,0.0810471296356263,0.40234375,,
3.8442399999999908,1500,,,,-0.21875,0.248046875,-1.005859375,0.1323451871976672,5.305208401136695,22.7505988277923,2.8777884781453,3676,0,65.47141117752665,50.95077758898578,77.82141345759607,0.10412418911313223,0.08103091571909987,0.40625,,
3.8524099999999164,1500,,,,0.3125,-0.26171875,-0.7890625,0.1323451871976672,5.3601618495223375,22.750730519631237,2.8768526592051593,3677,0,65.4504995942611,50.96545991666267,77.86871029649325,0.10517244145912012,0.0818964237515512,0.40625,,
3.8603700000001115,1500,,,,-0.40625,0.166015625,-1.025390625,0.1323451871976672,5.3601618495223375,22.75079213538771,2.875848787643324,3676,0,65.42783798048,50.93978526641833,77.85643976439495,0.10522545043109915,0.08192478943170198,0.408203125,,
3.868245000000112,1500,,,,0.6875,-0.69921875,-1.01171875,0.1323451871976672,5.3601618495223375,22.750720988927096,2.8747824518009883,3676,0,65.40337346478805,50.94009607013776,77.88603763315504,0.10522480841304471,0.0819554338799993,0.412109375,,
3.8771450000000187,1500,,,,-0.34375,0.37890625,-1.064453125,0.1323451871976672,5.3601618495223375,22.750790574999016,2.8691717293180043,3676,0,65.27592513742168,50.95137493965449,78.05538540034395,0.10520151528532404,0.08211544820296142,0.4140625,,
3.8849199999999255,1500,,,,0.15625,-0.220703125,-1.0859375,0.1323451871976672,5.3601618495223375,22.750652855110516,2.8694942707728073,3682,0,65.28286802408064,51.02982481275816,78.16725330439677,0.10503978544292834,0.08210671515756869,0.416015625,,
3.896369999999879,1500,,,,-0.0625,0.037109375,-0.95703125,0.1323451871976672,5.3601618495223375,22.75052343881201,2.8688443675021618,3679,0,65.26771102516174,50.98631025651194,78.11873506159256,0.10512943224476105,0.08212578264704136,0.419921875,,
3.9164499999999536,1500,,,,0.46875,-0.177734375,-1.013671875,0.1323451871976672,5.3601618495223375,22.750380408842613,2.8686122773054885,3672,0,65.26202055417617,50.88534160278019,77.97083383365148,0.10533803411136929,0.08213294354061086,0.423828125,,
3.925084999999963,1500,,,,-0.4375,0.30078125,-0.935546875,0.1323451871976672,5.3601618495223375,22.75039648543082,2.8650998248244433,3668,0,65.18215698509447,50.83049430721006,77.98222191210047,0.10545169632084465,0.08223357583499534,0.4296875,,
3.9331350000000094,1500,,,,0.21875,-0.302734375,-1.0703125,0.1323451871976672,5.3601618495223375,22.75037711167901,2.8675280481796626,3679,0,65.23734447440418,50.98161696476728,78.1479034370718,0.10513911030375271,0.08216401039477308,0.431640625,,
3.9420250000001396,1500,,,,0.03125,0.130859375,-0.9765625,0.1323451871976672,5.3601618495223375,22.7504656359412,2.8665538124590833,3670,0,65.2154340039266,50.866142433218414,77.99709257498122,0.10537779342240536,0.08219161508914598,0.435546875,,
3.9500400000000373,1500,,,,-0.125,-0.12109375,-0.9296875,0.1323451871976672,5.3601618495223375,22.75040971470779,2.870653206966786,3671,0,65.30853660733423,50.88297171327634,77.91167029083624,0.10534294026156041,0.08207444429125954,0.435546875,,
3.9581700000001585,1500,,,,-0.1875,0.212890625,-0.947265625,0.1323451871976672,5.3601618495223375,22.750389633354594,2.8712193570035374,3674,0,65.32135909466032,50.917668882215544,77.94949399082205,0.1052711557145643,0.08205833319779324,0.4375,,
3.9659550000000747,1500,,,,0.375,-0.40625,-1.33203125,0.13281966853947502,5.3601618495223375,22.750337847001727,2.871865656464695,3675,0,65.33591393577322,51.113970362058964,78.23257881156331,0.10486686539031011,0.08204005311369036,0.439453125,,
3.9729850000001026,1500,,,,-0.21875,0.306640625,-0.80078125,0.13281966853947502,5.3601618495223375,22.750582489144293,2.8717500728088905,3679,0,65.33398691964479,51.1653214134399,78.3134840314718,0.10476161785850431,0.08204247287273128,0.44140625,,
3.982310000000056,1500,,,,0.15625,-0.09765625,-1.00390625,0.13281966853947502,5.3601618495223375,22.7506600266493,2.872677373941594,3682,0,65.3553063007929,51.21693681790235,78.36691420613995,0.10465604119551228,0.08201571001522957,0.44140625,,
3.9900399999998046,1500,,,,0.03125,-0.06640625,-1.04296875,0.13281966853947502,5.3601618495223375,22.75066030147059,2.870919586313562,3671,0,65.31531626105831,51.05465513394554,78.16643638359731,0.10498869957028542,0.08206592505957325,0.443359375,,
3.9982950000001583,1500,,,,-0.0625,-0.2734375,-0.90234375,0.13281966853947502,5.365378467956464,22.750627662159516,2.873728750664121,3674,0,65.37913280840226,51.106815258861545,78.16991915238971,0.10498361991018695,0.08206561080704526,0.443359375,,
4.0072050000000745,1500,,,,-0.25,0.443359375,-0.982421875,0.13281966853947502,5.365378467956464,22.750776178385898,2.87359878197966,3676,0,65.37660271530159,51.12463775571447,78.20020562761452,0.1049470217000559,0.08206878676950095,0.4453125,,
4.016104999999981,1500,,,,-0.15625,0.029296875,-0.919921875,0.13281966853947502,5.365378467956464,22.750770028593376,2.8770989602301476,3676,0,65.4562167937012,51.12353296998143,78.1034032735314,0.10494928961789261,0.08196896690296909,0.447265625,,
4.0243349999999625,1500,,,,0.25,-0.08984375,-0.97265625,0.13281966853947502,5.365378467956464,22.75057215483697,2.878287664986316,3699,0,65.4826912046484,51.45297325906324,78.57492157471188,0.10427732603404746,0.0819358271514594,0.44921875,,
4.033074999999953,1500,,,,0.09375,-0.068359375,-0.9921875,0.13281966853947502,5.365378467956464,22.75042185312365,2.876106599961154,3692,0,65.4326384436694,51.35479907938049,78.48498899152837,0.10447667139468414,0.08199850404283311,0.44921875,,
4.041699999999953,1500,,,,0.09375,0.07421875,-1.076171875,0.13281966853947502,5.365378467956464,22.750494189472256,2.8751938240056227,3667,0,65.41208038664644,50.999906737698794,77.9671070484867,0.10520369175480102,0.08202427496942566,0.4453125,,
4.05176000000001,1500,,,,-0.0625,-0.0546875,-0.8046875,0.13281966853947502,5.365378467956464,22.750372888988394,2.87405702161511,3671,0,65.38586894595913,51.06350825589338,78.09563301528797,0.10507265660379357,0.08205715630071236,0.443359375,,
4.068725000000093,1500,,,,-0.375,0.30859375,-0.6171875,0.13281966853947502,5.365378467956464,22.750407539341307,2.86665386524787,3941,0,65.21754370861704,54.81668618778235,84.0520557362536,0.0978785629174408,0.08226894425721139,0.4453125,,
4.077510000000009,1500,,,,0.21875,-0.07421875,-1.06640625,0.13281966853947502,5.365378467956464,22.75028844312606,2.8658132871737543,3778,0,65.19807890734617,52.54869522785699,80.59853312938041,0.10210298171422877,0.0822935055430279,0.447265625,,
4.085449999999954,1500,,,,-0.28125,0.205078125,-0.9375,0.13281966853947502,5.365378467956464,22.75004425679221,2.8658728371355675,3714,0,65.19873387917282,51.66130551845597,79.23666986263169,0.10385681147836431,0.0822926788409673,0.44921875,,
4.092969999999972,1500,,,,0.3125,-0.20703125,-1.19140625,0.13281966853947502,5.365378467956464,22.75013845840861,2.865092679088897,3691,0,65.18125514544528,51.338616246540816,78.76285311165606,0.10450960427508564,0.08231474610275871,0.447265625,,
4.101339999999851,1500,,,,-0.34375,0.240234375,-0.859375,0.13281966853947502,5.365378467956464,22.750031786413356,2.8669228912769094,3678,0,65.22258690574577,51.158720378739986,78.43712248437843,0.10487710459204824,0.08226258298693456,0.447265625,,
4.109385000000009,1500,,,,0.21875,-0.1796875,-0.982421875,0.13216538263583255,5.365378467956464,22.7500302237205,2.8676740461897228,3672,0,65.23967122259505,50.81829638207761,77.89477695049641,0.1055796602785902,0.0822410408790997,0.447265625,,
4.117289999999804,1500,,,,-0.6875,0.328125,-0.79296875,0.13216538263583255,5.365378467956464,22.750061045976196,2.868063624447112,3673,0,65.24862253991554,50.839571108174034,77.91669636715038,0.10553547858498383,0.08222975840868085,0.44921875,,
4.125324999999953,1500,,,,0.3125,-0.333984375,-1.0703125,0.13216538263583255,5.365378467956464,22.75015536653089,2.8665355730115536,3674,0,65.2141296497005,50.85505953716917,77.98165797862906,0.10550333667459365,0.08227325116162314,0.44921875,,
4.133444999999832,1500,,,,-0.375,0.15234375,-0.82421875,0.13216538263583255,5.365378467956464,22.750047850679977,2.8682926915310913,3674,0,65.253795982088,50.854195588640074,77.93293067977137,0.10550512904298096,0.08222323908066968,0.451171875,,
4.150965000000084,1500,,,,-0.40625,0.154296875,-0.841796875,0.13216538263583255,5.367648530970317,22.749890103396055,2.8706597003110956,3675,0,65.30719270632528,50.8589116258239,77.87643216349429,0.10553998029806173,0.08219077116218529,0.453125,,
4.158739999999991,1500,,,,0.21875,-0.169921875,-1.015625,0.13216538263583255,5.367648530970317,22.74979847664835,2.8696410675156505,3675,0,65.28375598629509,50.86098809796484,77.90757031296116,0.10553567147833486,0.08222027746223944,0.453125,,
4.167375,1500,,,,-0.625,0.37890625,-1.08203125,0.13216538263583255,5.367648530970317,22.749709952469154,2.868337063457706,3675,0,65.25383623957993,50.86005669340002,77.94186460803157,0.10553760416210592,0.08225797654658888,0.455078125,,
4.185619999999879,1500,,,,-0.4375,0.1953125,-0.875,0.13216538263583255,5.367648530970317,22.74958757505826,2.8738691542010018,3669,0,65.3793380027543,50.77371696112921,77.66018823713115,0.10571706883464181,0.08210007465576034,0.458984375,,
4.192714999999851,1500,,,,0.0625,-0.302734375,-1.248046875,0.13216538263583255,5.367648530970317,22.749519559550407,2.8722729894377994,3669,0,65.34283055358354,50.77469877070096,77.70508002261063,0.10571502462694403,0.0821459444822894,0.458984375,,
4.20322499999986,1500,,,,-0.3125,0.25390625,-0.40625,0.13216538263583255,5.367648530970317,22.7496440604908,2.873316110257359,3673,0,65.36691878162885,50.833749324960664,77.76678214676276,0.10559222174734738,0.08211567305018629,0.4609375,,
4.211260000000009,1500,,,,0.0625,0.017578125,-1.212890625,0.13216538263583255,5.367648530970317,22.74971058085658,2.8729061595864867,3676,0,65.35778365655274,50.87168230170137,77.83569064860878,0.10551348585519059,0.0821271504428097,0.4609375,,
4.220659999999916,1500,,,,-0.1875,0.138671875,-0.904296875,0.13216538263583255,5.367648530970317,22.749691488984006,2.872167441095811,3675,0,65.34092318963434,50.86056321708545,77.8387582150874,0.105536553106183,0.08214834240085911,0.4609375,,
4.2282099999999625,1500,,,,-0.21875,0.126953125,-1.017578125,0.13216538263583255,5.367648530970317,22.749607931428915,2.871698468727361,3675,0,65.33001426083224,50.86342337983988,77.85613390005699,0.10553061855246312,0.08216205968576408,0.462890625,,
4.236064999999944,1500,,,,0.1875,0.203125,-1.0625,0.13216538263583255,5.367648530970317,22.74965923710001,2.871471547109248,3675,0,65.32499920576375,50.868035404568644,77.86917110299859,0.10552105046479206,0.08216836733611042,0.462890625,,
4.2446500000001395,1500,,,,0.09375,-0.15625,-1.0703125,0.13216538263583255,5.367648530970317,22.749576581148716,2.870384222241963,3672,0,65.30002568121454,50.81669720825527,77.82033265397962,0.10562765440998263,0.08219979203644445,0.4609375,,
4.252854999999982,1500,,,,0.03125,-0.05078125,-1.05078125,0.13216538263583255,5.367648530970317,22.74975737854709,2.8687594641226832,3674,0,65.26358178620181,50.8528447893609,77.91917543837953,0.10555257140881331,0.08224569329575408,0.462890625,,
4.2610100000000095,1500,,,,-0.25,-0.15625,-0.98828125,0.13155328152739296,5.367648530970317,22.749807114108417,2.868664225329054,3673,0,65.26155780137923,50.59575415578319,77.52765312432354,0.1060889124103862,0.08224824401689164,0.462890625,,
4.268540000000037,1500,,,,-0.21875,0.302734375,-0.9921875,0.13155328152739296,5.367648530970317,22.74990781052268,2.8665964504966963,3668,0,65.21480497877138,50.52792486163045,77.47922404748158,0.10623132744258738,0.08230720819785606,0.4609375,,
4.276469999999972,1500,,,,-0.125,0.0078125,-0.8203125,0.13155328152739296,5.367648530970317,22.749625377501363,2.8648536830356153,3669,0,65.17434805041528,50.54731136975324,77.55706482963609,0.10619058433604914,0.082358300336479,0.462890625,,
4.284854999999982,1500,,,,0.125,0.08984375,-1.1796875,0.13155328152739296,5.367648530970317,22.749610626460576,2.866944542525926,3672,0,65.22187203012096,50.58024265761393,77.55104397226563,0.10612144681283603,0.08229828988182697,0.462890625,,
4.293364999999991,1500,,,,0.0625,-0.130859375,-0.96484375,0.13155328152739296,5.367648530970317,22.749735754908244,2.8660396280107725,3674,0,65.2016442003406,50.614853532410336,77.62818584281335,0.10604888004927718,0.0823238216888751,0.462890625,,
4.301564999999944,1500,,,,-0.5,0.41796875,-1.06640625,0.13155328152739296,5.372212453575946,22.749715960290555,2.8656599278669455,3673,0,65.19294939775973,50.59576940095642,77.60926583066217,0.10617908408512895,0.08240480762419003,0.462890625,,
4.31014000000013,1500,,,,0.21875,-0.203125,-1.0078125,0.13155328152739296,5.372212453575946,22.74962256751315,2.869752391009832,3671,0,65.2857837576921,50.56578002073872,77.4529723169341,0.10624205641389536,0.08228763054319588,0.462890625,,
4.318324999999954,1500,,,,-0.25,0.201171875,-0.953125,0.13155328152739296,5.372212453575946,22.749641258139757,2.867467759240037,3672,0,65.2338628419927,50.590808344416665,77.55298573527072,0.10618949626190026,0.08235312488834734,0.46484375,,
4.327540000000037,1500,,,,-0.125,-0.01953125,-0.962890625,0.13155328152739296,5.372212453575946,22.749770041330144,2.8662595261436237,3682,0,65.20674509853934,50.71960899738647,77.78276452955879,0.10591983179233047,0.08238737335313316,0.46484375,,
4.33563500000001,1500,,,,0.0625,0.21875,-0.984375,0.13155328152739296,5.372212453575946,22.749814713654118,2.864564556873177,3670,0,65.16831290416549,50.551866756924284,77.57123746822217,0.10627129714928071,0.08243596027222856,0.462890625,,
4.344334999999963,1500,,,,0.0625,-0.06640625,-0.904296875,0.13155328152739296,5.372212453575946,22.749935845503508,2.8619349275433694,3665,0,65.10883599561738,50.49424234914646,77.55359403529398,0.10639257474999536,0.0825112655053081,0.462890625,,
4.355430000000168,1500,,,,0.125,-0.033203125,-1.087890625,0.13155328152739296,5.372212453575946,22.749906597197864,2.8611274589184057,3665,0,65.0903824530718,50.48543451940228,77.56204928708287,0.10641113629538689,0.08253465798037289,0.4609375,,
4.372779999999795,1500,,,,0.25,-0.12109375,-1.052734375,0.13155328152739296,5.372212453575946,22.74970805253126,2.8583753795182836,3672,0,65.02720538858419,50.582012368223786,77.78592370064187,0.10620796212036106,0.08261484437895068,0.462890625,,
4.3801900000001766,1500,,,,-0.125,0.12109375,-0.701171875,0.13155328152739296,5.372212453575946,22.74956367678639,2.858579791084624,3671,0,65.0314429824544,50.57254630527391,77.76629886394875,0.10622784190353711,0.08260946101142765,0.462890625,,
4.388730000000214,1500,,,,0.3125,-0.20703125,-1.140625,0.13155328152739296,5.372212453575946,22.749585075329897,2.857822997415375,3673,0,65.01428740993536,50.59663315413161,77.82386790630197,0.10617727146410458,0.0826312594907404,0.462890625,,
