Time (s),ESC signal (µs),Servo 1 (µs),Servo 2 (µs),Servo 3 (µs),AccX (g),AccY (g),AccZ (g),Torque (N·m),Thrust (N),Voltage (V),Current (A),Motor Electrical Speed (RPM),Motor Optical Speed (RPM),Electrical Power (W),Mechanical Power (W),Motor Efficiency (%),Propeller Mech. Efficiency (N/W),Overall Efficiency (N/W),Vibration (g),App message,90% settling time (s),Max acceleration (RPM/s),
0,1000,,,,-0.0625,0.052734375,-0.95703125,0.0021415022533587823,-0.0012020169429215494,22.846802295566555,0.039962039484444545,0,0,0.9130048154287289,0,0,0,0,0.068359375,,
0,1200,,,,-0.0625,0.046875,-0.95703125,0.0021415022533587823,-0.0012020169429215494,22.84665168995523,0.04119974180354714,0,0,0.9412761507017293,0,0,0,0,0.068359375,,
0.008709999999962748,1200,,,,-0.0625,0.048828125,-0.955078125,0.0021415022533587823,-0.0012020169429215494,22.846578029808047,0.04097367986078821,0,0,0.9361083741078724,0,0,0,0,0.068359375,,
0.01721999999997206,1200,,,,-0.0625,0.046875,-0.953125,0.0021415022533587823,-0.0012020169429215494,22.846385969777973,0.040999481470721084,0,0,0.9366899782408542,0,0,0,0,0.068359375,,
0.02534000000008382,1200,,,,-0.0625,0.048828125,-0.95703125,0.0021415022533587823,-0.0012020169429215494,22.846401463377404,0.041973253948358,0,0,0.9589378104284776,0,0,0,0,0.068359375,,
0.03340500000002794,1200,,,,-0.0625,0.05078125,-0.95703125,0.0021415022533587823,-0.0012020169429215494,22.84618538736045,0.04205658390564741,0,0,0.9608325126675006,0,0,0,0,0.068359375,,
0.044625,1200,,,,-0.0625,0.048828125,-0.955078125,0.0021415022533587823,-0.0008265767946410132,22.846011871818067,0.05625321195184299,0,0,1.285161548079703,0,0,0,0,0.068359375,,
0.06174499999987893,1200,,,,-0.03125,0.009765625,-0.998046875,0.0021415022533587823,-0.0008265767946410132,22.842865534114996,0.15413375350387468,0,0,3.520856605557435,0,0,0,0,0.0703125,,
0.06936499999999068,1200,,,,-0.09375,0.056640625,-1.001953125,0.0021415022533587823,-0.0008265767946410132,22.841951646446155,0.18852273680068468,0,0,4.306227238256935,0,0,0,0,0.0703125,,
0.07684999999986031,1200,,,,0.125,0.01171875,-0.99609375,0.0021354883618005744,-0.0008265767946410132,22.841168057788362,0.21234102278022268,0,0,4.850116986885733,0,0,0,0,0.0703125,,
0.08489999999990687,1200,,,,0.03125,-0.068359375,-0.93359375,0.0021354883618005744,-0.0008265767946410132,22.84052112925388,0.22804421944207576,0,0,5.20864881257094,0,0,0,0,0.07421875,,
0.09273999999999069,1200,,,,-0.1875,0.068359375,-1.037109375,0.0021354883618005744,-0.0008265767946410132,22.840102755763866,0.24407592660193475,0,0,5.574719243796469,0,0,0,0,0.076171875,,
0.10015999999991618,1200,,,,0.125,-0.015625,-0.9296875,0.0021354883618005744,-0.0008265767946410132,22.839774635930485,0.252455257145566,0,0,5.766021178860607,0,0,0,0,0.076171875,,
0.10798500000010244,1200,,,,-0.03125,-0.064453125,-0.947265625,0.0021354883618005744,-0.0008265767946410132,22.839199333410257,0.27040709749621894,1,0,6.175881600885046,0.00026161541530324425,0.00423608210471122,3.1595110467130145,0.00013383948204618416,0.078125,,
0.11550499999988824,1200,,,,-0.3125,0.42578125,-0.8203125,0.0021354883618005744,-0.0008265767946410132,22.838627114508366,0.2848604421485895,2,0,6.505821417905619,0.0003355822181060403,0.005158183671971623,2.4631126145659605,0.00012705187270681468,0.080078125,,
0.12410999999986962,1200,,,,-0.15625,-0.037109375,-1.115234375,0.0021354883618005744,-0.0008265767946410132,22.83780874466045,0.3168943889819294,2,0,7.237173447825337,0.0003707996010181853,0.0051235417209684955,2.229173905180321,0.00011421265506485647,0.083984375,,
0.1327849999999162,1200,,,,0.0625,-0.08203125,-1.07421875,0.0021354883618005744,-0.0008265767946410132,22.837503134514996,0.3210164017712685,2,0,7.33121308168207,0.0003843814067236811,0.005243080543983982,2.1504078505941147,0.00011274761563080414,0.0859375,,
0.14173999999999068,1200,,,,-0.0625,0.001953125,-0.951171875,0.0021354883618005744,-0.0008265767946410132,22.837567136600477,0.32008581399468966,2,0,7.309981266577138,0.0003895394792908572,0.005328871102199925,2.121933304798186,0.0001130750906873464,0.0859375,,
0.15122999999974854,1200,,,,-0.03125,0.029296875,-0.953125,0.0021354883618005744,-0.0008265767946410132,22.837591538346977,0.3199182746581861,2,0,7.306162882296356,0.00039141049092789406,0.005357264780892377,2.1117900868765567,0.00011313418657061434,0.0859375,,
0.1600549999999348,1200,,,,-0.125,0.05859375,-1,0.0021354883618005744,-0.0008265767946410132,22.83772217330787,0.3195309071215306,2,0,7.297358082626557,0.0003920555625516753,0.005372568511953325,2.1083154368765404,0.00011327069129428019,0.0859375,,
0.16751999999978578,1200,,,,-0.0625,0.025390625,-0.998046875,0.0021354883618005744,-0.0008265767946410132,22.837768430142166,0.3158047843015641,2,0,7.212276533010117,0.00039227778103644495,0.0054390285680397206,2.1071211131486933,0.00011460691930735398,0.087890625,,
0.17590500000002793,1200,,,,0.0625,-0.0390625,-0.88671875,0.0021354883618005744,-0.0008265767946410132,22.83781245358279,0.3115181046161541,2,0,7.11439204911931,0.00039236564455761577,0.005515097310474852,2.106649259705094,0.000116183756663134,0.087890625,,
0.18384499999997206,1200,,,,-0.0625,0.05859375,-0.998046875,0.0021354883618005744,-0.0008265767946410132,22.83811765830722,0.3060183256228739,366,0,6.988882526173365,0.08193463442254476,1.1723567267828519,0.010088246569555403,0.00011827023727262308,0.087890625,,
0.19478000000002793,1200,,,,-0.03125,0.0390625,-0.978515625,0.0021354883618005744,-0.00032894412515751013,22.8383072949597,0.2989295277456272,509,0,6.827044414191816,0.11382022198712674,1.667196155198893,0.00289003236344693,0.000048182508447390914,0.087890625,,
0.2024749999998603,1200,,,,-0.03125,0.076171875,-0.984375,0.0021354883618005744,-0.00032894412515751013,22.83835482076931,0.2923637211424192,575,0,6.6771064001710245,0.12858151729731018,1.9257071789962303,0.0025582535660775827,0.00004926447257888308,0.087890625,,
0.211375,1200,,,,0,0.01171875,-0.9609375,0.0021354883618005744,-0.00032894412515751013,22.838437129943692,0.2854672754990662,592,0,6.519626424141738,0.13233117231110178,2.0297355047996053,0.002485764460577621,0.00005045444382203436,0.087890625,,
0.22423500000010244,1200,,,,-0.03125,0.03515625,-0.939453125,0.0021354883618005744,-0.00032894412515751013,22.8388082716938,0.27759387811961056,599,0,6.339913359769723,0.13399593677995922,2.113529462882537,0.002454881342392375,0.00005188464045026918,0.0859375,,
0.23194499999983237,1200,,,,-0.01953125,0.021484375,-1.015625,0.010073860441654823,-0.00032894412515751013,22.838985197626283,0.2694559812449151,601,0,6.154101167064481,0.6344230759472732,10.308947784975956,0.0005184933172021766,0.000053451205338962136,0.087890625,,
0.2388949999997858,1200,,,,-0.0625,0.02734375,-0.953125,0.010073860441654823,-0.00032894412515751013,22.839201926594967,0.2639204125537968,675,0,6.027731594866414,0.711823192017442,11.809138824689445,0.00046211493085132567,0.00005457179371385068,0.0859375,,
0.2467249999998603,1200,,,,-0.0625,0.078125,-0.98046875,0.010073860441654823,-0.00032894412515751013,22.839595562223487,0.25785383468633344,707,0,5.88927729840429,0.7462243146655618,12.670897919304167,0.000440811319991542,0.00005585475237286554,0.0859375,,
0.25484499999997207,1200,,,,-0.0625,0.078125,-0.962890625,0.010073860441654823,-0.00032894412515751013,22.839939799503302,0.25260331847774714,722,0,5.769444587186505,0.7615113611792195,13.199041080496343,0.0004319622029645518,0.00005701486862150819,0.0859375,,
0.2630149999998976,1200,,,,-0.03125,0.02734375,-0.994140625,0.010073860441654823,-0.00032894412515751013,22.840041315519965,0.24712600388088732,728,0,5.644368138778813,0.7676205028999424,13.599759690125756,0.0004285244126685178,0.000058278290336441236,0.0859375,,
0.2707900000000373,1200,,,,-0.03125,0.02734375,-0.95703125,0.010073860441654823,-0.00032894412515751013,22.840135783220525,0.24045237455295995,730,0,5.491964884187405,0.7699948372609275,14.020388940903732,0.00042720302687697257,0.00005989552593546506,0.0859375,,
0.2800249999999069,1200,,,,-0.0625,0.0625,-0.966796875,0.010073860441654823,-0.00032894412515751013,22.84020143231368,0.2331151796078003,731,0,5.324397659172141,0.7710094414568953,14.480688536264868,0.0004266408522001223,0.00006178053297556586,0.0859375,,
0.2885800000000745,1200,,,,0,0,-0.9453125,0.010073860441654823,-0.00032894412515751013,22.840264422691178,0.22776580623920267,731,0,5.202231240950833,0.7713762372989085,14.827796027727535,0.00042643798091234717,0.00006323135399444253,0.0859375,,
0.2969499999999534,1200,,,,-0.03125,0.046875,-0.978515625,0.010073860441654823,-0.00032894412515751013,22.840513401462452,0.22160329603852094,758,0,5.061533052976089,0.7999096840169369,15.803703653512734,0.000411226581863141,0.00006498903034212075,0.0859375,,
0.3050399999998044,1200,,,,-0.15625,0.01953125,-0.896484375,0.010073860441654823,-0.00032894412515751013,22.838721631183034,0.2618878457292392,769,0,5.9811836072003,0.8111382512115628,13.561500607255963,0.0004055339822356796,0.000054996493463520974,0.0859375,,
0.31437499999976715,1200,,,,0.3125,-0.140625,-1.19921875,0.010073860441654823,-0.00032894412515751013,22.835991064484105,0.34925712090782834,773,0,7.975632492258613,0.8155520010007606,10.225546397635043,0.00040333924109543486,0.000041243641238082765,0.08984375,,
0.3227949999999255,1200,,,,-0.0625,-0.111328125,-0.939453125,0.010073860441654823,-0.00032894412515751013,22.833635073030685,0.41306259898782216,775,0,9.431720647605545,0.8174165655859721,8.66667489556629,0.00040241920583259,0.00003487636428683032,0.091796875,,
0.33145999999996273,1200,,,,-0.125,0.146484375,-0.935546875,0.010073860441654823,-0.00032894412515751013,22.83149902837053,0.4633467542929374,775,0,10.57890097043784,0.818081778202541,7.733145252882373,0.00040209198386040817,0.00003109435716212171,0.09375,,
0.33974499999987895,1200,,,,-0.1875,0.111328125,-0.99609375,0.010073860441654823,0.09267036700870142,22.829891717863966,0.5018510876499311,850,0,11.457205989540187,0.8969778606154273,7.82894068095066,0.10331399589407832,0.008088391453667193,0.095703125,,
0.3494899999999907,1200,,,,-0.125,0.33203125,-0.97265625,0.010073860441654823,0.09267036700870142,22.828715911937742,0.5337875020990218,912,0,12.18568324276144,0.9623639664981274,7.897496983353744,0.0962945104292636,0.007604856056286349,0.09765625,,
0.36806999999983236,1200,,,,0.03125,-0.078125,-0.998046875,0.010073860441654823,0.09267036700870142,22.826983353943177,0.5857536196874067,947,0,13.370988126116394,0.9986764188998353,7.468979924895805,0.09279318631633378,0.006930704457638131,0.103515625,,
0.37587999999988825,1200,,,,-0.03125,0.056640625,-0.94921875,0.04390289178678935,0.09267036700870142,22.82683781840836,0.5958371905408331,1056,0,13.601078914651676,4.853921215765536,35.68776599433358,0.01909185643716426,0.006813457049269294,0.10546875,,
0.38398999999999067,1200,,,,-0.09375,0.130859375,-0.955078125,0.04390289178678935,0.09267036700870142,22.826600676136376,0.6041933409156786,1153,0,13.791680124262925,5.298845942049143,38.420597739409445,0.017488783033549452,0.006719294978838123,0.10546875,,
0.39200499999988825,1200,,,,0.0625,-0.1015625,-0.96875,0.04390289178678935,0.09267036700870142,22.82628078319809,0.6110049818305078,1191,0,13.946971275196018,5.473336489950986,39.24390738285263,0.0169312387752596,0.00664447966373251,0.10546875,,
0.4009149999998044,1200,,,,-0.09375,0.078125,-0.978515625,0.04390289178678935,0.09267036700870142,22.82616735866879,0.6122545450845552,1206,0,13.975424712205685,5.543735864061259,39.66774519002302,0.0167162305854905,0.006630951754029064,0.10546875,,
0.40906999999983235,1200,,,,-0.03125,0.021484375,-0.974609375,0.04390289178678935,0.09267036700870142,22.82612205260604,0.6130804759920799,1311,0,13.994249773065023,6.027350737056605,43.07019550742586,0.015374975018287393,0.0066220317995942645,0.10546875,,
0.4182599999997765,1200,,,,-0.125,0.1640625,-0.96875,0.04390289178678935,0.09267036700870142,22.826214651413228,0.6131462868731461,1347,0,13.995808756883426,6.1937867183541835,44.254582396376,0.014961827267007644,0.006621294175881349,0.10546875,,
0.42693999999994414,1200,,,,-0.03125,0.046875,-0.994140625,0.04390289178678935,0.09267036700870142,22.82616099363571,0.6097852982522645,1363,0,13.919057389458358,6.266292615836747,45.019518495430184,0.014788707245253182,0.0066578047935117795,0.10546875,,
0.4356500000001397,1200,,,,-0.03125,0.0859375,-0.935546875,0.04390289178678935,0.09267036700870142,22.826250354717875,0.6072684175170421,1399,0,13.861660930757344,6.43336175069812,46.411189703993344,0.014404656632070354,0.00668537251571903,0.10546875,,
0.4442049999998417,1200,,,,-0.09375,0.0390625,-0.955078125,0.04390289178678935,0.09267036700870142,22.82641923477069,0.6016055265672109,1432,0,13.732499963378132,6.581484146480864,47.92633653036508,0.014080466494514384,0.006748251757206262,0.10546875,,
0.45324499999987894,1200,,,,0,0.02734375,-0.97265625,0.04390289178678935,0.09267036700870142,22.8267031226902,0.5952995627992507,1443,0,13.588726389085767,6.632868751797053,48.811555710802004,0.013971385606506096,0.006819650668890697,0.103515625,,
0.46087000000011175,1200,,,,-0.0625,0.029296875,-1.005859375,0.04390289178678935,0.09267036700870142,22.82691643606427,0.5878080950700451,1457,0,13.417846266606041,6.698378745753265,49.92141520076886,0.013834745768512105,0.006906500877069729,0.103515625,,
0.47012999999988825,1200,,,,-0.0625,0.06640625,-0.97265625,0.04390289178678935,0.09267036700870142,22.82720403341025,0.5805937557592032,1482,0,13.253332123239291,6.81571814708026,51.42644946721827,0.013596566790016083,0.006992231549544202,0.103515625,,
0.4778200000000652,1200,,,,-0.03125,0.056640625,-0.96875,0.04390289178678935,0.09267036700870142,22.827494221504395,0.5742844117617996,1491,0,13.10947409099253,6.853195437436768,52.276661823875706,0.013522212791783738,0.007068961452265646,0.103515625,,
0.4862849999999162,1200,,,,0,0.0625,-0.94921875,0.04390289178678935,0.21762105861080813,22.82786280427268,0.5659785242429314,1494,0,12.920080101582357,6.869059985501663,53.16576934116988,0.031681344910385836,0.016843630759236197,0.1015625,,
0.49343999999994415,1200,,,,0.03125,-0.02734375,-1.021484375,0.04390289178678935,0.21762105861080813,22.828052622211935,0.5602327135931693,1514,0,12.789021866589456,6.958977616234914,54.41368142793485,0.031271987152697564,0.017016239465453567,0.1015625,,
0.5027199999999721,1200,,,,0.03125,-0.0625,-1.001953125,0.04390289178678935,0.21762105861080813,22.828221411151766,0.553178621488969,1521,0,12.628084051265901,6.994856244307419,55.39127088409125,0.031111584142692474,0.017233101848810765,0.1015625,,
0.5104599999999627,1200,,,,-0.03125,-0.05078125,-1.01171875,0.04390289178678935,0.21762105861080813,22.828543647036796,0.5432281433954412,1526,0,12.401107381801593,7.014031264426888,56.55971719686788,0.03102653102139969,0.017548518201702147,0.103515625,,
0.5184299999999348,1200,,,,0,0.05078125,-0.98046875,0.04390289178678935,0.21762105861080813,22.828746137647233,0.5367887566304912,1532,0,12.254214254660786,7.0429988653922635,57.47409600508265,0.03089892001547094,0.017758874954225467,0.1015625,,
0.5256449999997858,1200,,,,-0.0625,0.009765625,-1.0078125,0.054440879056852735,0.21762105861080813,22.82890507205406,0.5282811416857902,1541,0,12.060080034901246,8.783042514382318,72.82739823421278,0.02477741150113432,0.018044744146060727,0.103515625,,
0.533059999999823,1200,,,,-0.0625,0.1328125,-0.96484375,0.054440879056852735,0.21762105861080813,22.829122108160046,0.5215084055184596,1544,0,11.90557907001276,8.801204194697632,73.92504088159569,0.024726282199192238,0.01827891422425158,0.103515625,,
0.5412599999997765,1200,,,,0,0.12109375,-0.9609375,0.054440879056852735,0.21762105861080813,22.829463547343302,0.5145937090150798,1545,0,11.74789832165195,8.809909327873378,74.99136515027786,0.024701849986387955,0.018524254522166054,0.1015625,,
0.5522499999997672,1200,,,,-0.0625,0.044921875,-0.9453125,0.054440879056852735,0.21762105861080813,22.829869017879055,0.5042285247173431,1554,0,11.511471174375336,8.859771843018779,76.96472248256792,0.02456282875752457,0.018904712987097172,0.1015625,,
0.5609899999997578,1200,,,,-0.08203125,0.060546875,-0.98828125,0.054440879056852735,0.21762105861080813,22.830231259531146,0.4972762093343345,1557,0,11.352930858965877,8.875478313839517,78.17785930432393,0.0245193612012405,0.01916871170222479,0.1015625,,
0.5698549999999813,1200,,,,0.0625,-0.05859375,-0.98046875,0.054440879056852735,0.21762105861080813,22.830633223984357,0.4890445637653391,1558,0,11.165197065509888,8.880657061333503,79.5387399723244,0.02450506275693643,0.019491018146294573,0.103515625,,
0.577839999999851,1200,,,,-0.03125,0.072265625,-0.98828125,0.054440879056852735,0.21762105861080813,22.830988410925013,0.4829529543142136,1563,0,11.026293302969808,8.90881125107069,80.7960663323839,0.02442762030508321,0.019736556305117905,0.1015625,,
0.5849099999999162,1200,,,,0,0.078125,-0.99609375,0.054440879056852735,0.21762105861080813,22.831032054598335,0.48047919607397394,1565,0,10.969835927132538,8.919396028607762,81.30838134549246,0.024398631691295896,0.019838132498641046,0.1015625,,
0.5938800000001211,1200,,,,-0.09375,0.076171875,-0.96484375,0.054440879056852735,0.21762105861080813,22.83097616185187,0.48221109393648715,1565,0,11.00934999064445,8.924613906402325,81.0639494065163,0.024384366751674436,0.019766930726676745,0.1015625,,
0.6023349999999628,1200,,,,-0.0625,0.013671875,-0.970703125,0.054440879056852735,0.21762105861080813,22.83109292152869,0.4791916152009547,1570,0,10.940468293870417,8.948840435114548,81.79577139424907,0.02431835277304534,0.019891384241087193,0.1015625,,
0.6102549999998882,1200,,,,-0.03125,0.1328125,-0.9921875,0.054440879056852735,0.21762105861080813,22.831236689744284,0.47117477641341515,1575,0,10.757502842532023,8.980731622499318,83.48342318806674,0.02423199665221091,0.020229700312083397,0.1015625,,
0.6182800000000279,1200,,,,-0.125,0.05078125,-1.0390625,0.054440879056852735,0.21762105861080813,22.831467614700774,0.46371086838161474,1577,0,10.58719967403961,8.993078534729234,84.94293875254617,0.02419872769601698,0.02055511044572313,0.1015625,,
0.6276199999998789,1200,,,,-0.03125,0.013671875,-1.015625,0.054440879056852735,0.21762105861080813,22.831795957950934,0.454290249051282,1581,0,10.372262272025583,9.014773999422856,86.9123221434158,0.0241404896700395,0.020981060149022752,0.1015625,,
0.6361549999997951,1200,,,,-0.0625,0.076171875,-0.8984375,0.054440879056852735,0.5294207343498466,22.83180706758598,0.44684355929635977,1585,0,10.202245935247902,9.038477310663358,88.5930153814091,0.058574106694415214,0.05189256735330625,0.1015625,,
0.644964999999851,1200,,,,-0.03125,0.01953125,-1.03515625,0.054440879056852735,0.5294207343498466,22.8321106753539,0.4399548268678379,1587,0,10.045097299202638,9.047115372868639,90.06498497119368,0.05851818093726587,0.05270439086656444,0.103515625,,
0.6558899999998975,1200,,,,-0.0625,0.046875,-0.94921875,0.054440879056852735,0.5294207343498466,22.83230213744373,0.4345521914041752,1587,0,9.921826928628407,9.049501551008532,91.2080165891337,0.05850275082729222,0.05335919867965624,0.1015625,,
0.6759949999998789,1200,,,,-0.0625,0.013671875,-0.98828125,0.04333829065835008,0.5294207343498466,22.832850113156223,0.41903071629230604,1587,0,9.567665537910713,7.203785910692031,75.29303655262513,0.07349201390952884,0.055334368896161897,0.1015625,,
0.6830199999997858,1200,,,,0,0.0390625,-1.03515625,0.04333829065835008,0.5294207343498466,22.832928479343924,0.41744111222515157,1586,0,9.531403059774666,7.1977656459616615,75.5163285071676,0.07355348317666893,0.05554488998415757,0.1015625,,
0.6911799999999348,1200,,,,-0.03125,0.07421875,-0.974609375,0.04333829065835008,0.5294207343498466,22.83288286918111,0.4179495859200347,1585,0,9.542993940534899,7.19494421719149,75.39504124203816,0.07358232647375594,0.055477425391739464,0.1015625,,
0.7002249999998603,1200,,,,-0.09375,0.013671875,-0.96484375,0.04333829065835008,0.5294207343498466,22.832834539321677,0.41789390107573,1585,0,9.541702298253805,7.193771546184563,75.39295737094074,0.07359432127513711,0.05548493526639729,0.1015625,,
0.7078549999999814,1200,,,,0.0625,0.03515625,-0.984375,0.04333829065835008,0.5294207343498466,22.83285916697392,0.4118574611081501,1587,0,9.403883406349829,7.202254119359737,76.58808396642311,0.07350764435355842,0.056298096379243,0.1015625,,
0.715905000000028,1200,,,,-0.0625,0.05859375,-0.98828125,0.04333829065835008,0.5294207343498466,22.83310858532644,0.4078906889469237,1592,0,9.31341239166872,7.22317412284463,77.55668727078053,0.07329474900452078,0.0568449792713397,0.1015625,,
0.7231499999999069,1200,,,,-0.0625,0.091796875,-0.96875,0.04333829065835008,0.5294207343498466,22.833406318947755,0.4025659597731715,1593,0,9.191952129678002,7.230980407670755,78.66642804115712,0.0732156228480757,0.057596115262666454,0.1015625,,
0.7321899999999442,1200,,,,0.125,-0.0625,-0.96875,0.04333829065835008,0.5294207343498466,22.833476041857406,0.39927362593585186,1594,0,9.11680477195181,7.2348610399265905,79.35741985157904,0.0731763514776807,0.05807086447421023,0.103515625,,
0.7404750000000931,1200,,,,-0.09375,0.0078125,-1.01171875,0.04333829065835008,0.5294207343498466,22.833468985155108,0.39411452885269066,1594,0,8.99900187115693,7.235512484893769,80.4035001713313,0.07316976308936872,0.05883105059092329,0.103515625,,
0.7483449999999721,1200,,,,-0.03125,0.087890625,-0.982421875,0.04333829065835008,0.5294207343498466,22.833397547819512,0.3910012676841205,1594,0,8.927887386732918,7.2357640523960125,81.04676659730895,0.07316721917909098,0.059299665353819336,0.103515625,,
0.7573400000000838,1200,,,,0.0625,-0.05078125,-1.04296875,0.04333829065835008,0.5294207343498466,22.833685773011176,0.38553790128890325,1594,0,8.803251291617018,7.235870084249309,82.19542808166497,0.07316614701281937,0.06013922774804721,0.103515625,,
0.7656899999999441,1200,,,,-0.0625,0.087890625,-0.9921875,0.04333829065835008,0.5294207343498466,22.834026200019004,0.3813795464190823,1593,0,8.70843055508469,7.231122005913019,83.03588069254226,0.07321418915583637,0.0607940467574525,0.103515625,,
0.7743500000000931,1200,,,,-0.0625,-0.001953125,-0.943359375,0.04333829065835008,0.5294207343498466,22.834437040881937,0.3780702790545105,1593,0,8.633021984098885,7.229432152617158,83.7416163880158,0.07323130270448541,0.0613250765867368,0.103515625,,
0.7817449999998789,1200,,,,0,0.0234375,-1.046875,0.04333829065835008,0.5294207343498466,22.83450978838216,0.3750296388062378,1593,0,8.563617958254463,7.22882441353658,84.41320536221168,0.07323745937976608,0.06182208698830831,0.103515625,,
0.7900349999999162,1200,,,,-0.09375,0.1015625,-0.98828125,0.04333829065835008,0.6820842053309086,22.834584540062412,0.3711455553912133,1592,0,8.474954561249076,7.224622804988525,85.24674383532893,0.09441104729508326,0.08048234363989086,0.103515625,,
0.7982099999999628,1200,,,,0,0.052734375,-0.970703125,0.04333829065835008,0.6820842053309086,22.83465355718031,0.36978169404599703,1591,0,8.443836875327587,7.219134409382925,85.49590092718189,0.09448282393030158,0.08077894154065435,0.103515625,,
0.8086899999999442,1200,,,,-0.03125,0.0390625,-0.984375,0.04333829065835008,0.6820842053309086,22.834723105942942,0.3659411455604,1590,0,8.356164731943297,7.216892100749492,86.36608219511659,0.09451218000890889,0.0816264670708908,0.103515625,,
0.8240849999999628,1200,,,,-0.03125,0.06640625,-0.96484375,0.036659226657684986,0.6820842053309086,22.834726241804614,0.3618289834882943,1588,0,8.262265784305642,6.09626212548415,73.78438656698911,0.11188564259394262,0.08255413504447445,0.103515625,,
0.8327049999998417,1200,,,,-0.03125,0.068359375,-0.98046875,0.036659226657684986,0.6820842053309086,22.83498614905017,0.3599458428494,1587,0,8.219358335874238,6.094076268590681,74.14296858177426,0.11192577435343581,0.08298509171377547,0.103515625,,
0.841339999999851,1200,,,,-0.0625,-0.029296875,-1.044921875,0.036659226657684986,0.6820842053309086,22.834748773088368,0.3575924544001645,1587,0,8.165533859379815,6.091818815792459,74.60404819453093,0.11196725082543006,0.08353210176789518,0.103515625,,
0.8492299999999814,1200,,,,-0.0625,0.06640625,-0.96484375,0.036659226657684986,0.6820842053309086,22.834942333568964,0.3564493869224244,1586,0,8.139501195209572,6.088495307639448,74.80182337491117,0.112028370043264,0.08379926348955424,0.103515625,,
0.857660000000149,1200,,,,-0.03125,0.03515625,-0.94140625,0.036659226657684986,0.6820842053309086,22.83518706019087,0.3564358336083554,1586,0,8.139278935401864,6.08720599779113,74.78802540253014,0.11205209838116488,0.08380155180137365,0.103515625,,
0.8651599999999162,1200,,,,-0.125,0.12109375,-0.9765625,0.036659226657684986,0.6820842053309086,22.83522731497662,0.35642265101769705,1586,0,8.138992256195696,6.086685878292976,74.784269190815,0.11206167345737916,0.08380450353809853,0.103515625,,
0.8724599999999627,1200,,,,-0.03125,0.0625,-1.041015625,0.036659226657684986,0.6820842053309086,22.835260948337027,0.35471111339302835,1585,0,8.099920835604967,6.085475009268471,75.13005537681849,0.11208397114310083,0.08420874958834891,0.103515625,,
0.8813899999998975,1200,,,,-0.0625,0.078125,-0.9921875,0.036659226657684986,0.6820842053309086,22.835448566387313,0.3528797874765175,1585,0,8.058168237037702,6.0848809913679895,75.51196267409874,0.1120949129980542,0.08464506886265415,0.103515625,,
0.8908649999999907,1200,,,,-0.0625,-0.0234375,-0.94140625,0.036659226657684986,0.6820842053309086,22.835622605766012,0.35118100196936297,1585,0,8.019436827287144,6.084670135860226,75.87403288914714,0.11209879748632887,0.08505387847311562,0.103515625,,
0.8993099999998231,1200,,,,0,0.060546875,-0.984375,0.036659226657684986,0.6820842053309086,22.835753489786907,0.34930608295375687,1585,0,7.9766676028150485,6.084592778052573,76.2798837938948,0.11210022267902957,0.08550991959226106,0.103515625,,
0.9073499999998603,1200,,,,-0.03125,0.056640625,-1.0078125,0.036659226657684986,0.6820842053309086,22.83589741617893,0.3477163650076975,1585,0,7.940415241242409,6.084566547516059,76.6278130633887,0.1121007059425392,0.08590031939238801,0.10546875,,
0.9152249999998603,1200,,,,-0.125,0.01953125,-1.05078125,0.036659226657684986,0.6820842053309086,22.835902496565716,0.3449228049215484,1585,0,7.876623542030437,6.084556270969483,77.24828079572032,0.11210089527567614,0.08659601435707068,0.10546875,,
0.9237250000000932,1200,,,,0,0.03515625,-0.955078125,0.036659226657684986,0.6820842053309086,22.836126387967333,0.3430472464576881,1585,0,7.833870277151944,6.084552019243382,77.66980820437406,0.11210097360885513,0.08706861119723378,0.103515625,,
0.9321999999999534,1200,,,,-0.09375,0.03125,-0.919921875,0.036659226657684986,0.6820842053309086,22.836185560950817,0.34241363091351085,1585,0,7.819421214139859,6.084550569399897,77.8133112767631,0.1121010003205842,0.08722950032382139,0.103515625,,
0.9402749999999068,1200,,,,-0.0625,-0.005859375,-0.98828125,0.036659226657684986,0.7432534916397658,22.83617640485064,0.34148394573705554,1585,0,7.798187624275844,6.084549995060791,78.02518082688239,0.12215422541405874,0.09531105526699685,0.103515625,,
0.9482600000000093,1200,,,,0,0.14453125,-1.05078125,0.036659226657684986,0.7432534916397658,22.836103288758412,0.34072445385398864,1585,0,7.780818821215484,6.08454977241324,78.19935037971672,0.1221542298839604,0.09552381423060281,0.10546875,,
0.9596650000000373,1200,,,,-0.03125,0.02734375,-0.966796875,0.036659226657684986,0.7432534916397658,22.8360975991813,0.33905773410482215,1584,0,7.742755507774981,6.081655648101522,78.54639917267896,0.12221236035811782,0.09599340840524008,0.10546875,,
0.9762299999999814,1200,,,,-0.0625,0.076171875,-0.96484375,0.03371596941057683,0.7432534916397658,22.836147778123152,0.33698815757616957,1584,0,7.695511365886859,5.5920783048845975,72.6667538907617,0.13291185336059133,0.09658272937319098,0.103515625,,
0.9841750000000465,1200,,,,-0.03125,0.03125,-1.03515625,0.03371596941057683,0.7432534916397658,22.836336364561085,0.3360154920946434,1584,0,7.6733628011767925,5.5924728932894014,72.88164313606723,0.13290247549194578,0.09686150790703914,0.103515625,,
0.9921399999998975,1200,,,,-0.0625,0.08203125,-0.9921875,0.03371596941057683,0.7432534916397658,22.8362548098667,0.3353044948905459,1584,0,7.657098884214153,5.592628533226871,73.03847864308783,0.13289877688531523,0.09706724477230594,0.103515625,,
1.0012049999998416,1200,,,,-0.03125,0.056640625,-0.9375,0.03371596941057683,0.7432534916397658,22.836045669679564,0.33601019034356727,1584,0,7.673144052163425,5.592690415968327,72.88655573189038,0.13289730636933134,0.09686426927306378,0.103515625,,
1.008719999999972,1200,,,,-0.03125,0.03125,-0.990234375,0.03371596941057683,0.7432534916397658,22.83589742488324,0.33545101943402544,1585,0,7.660325070867919,5.597485476662116,73.07112198083152,0.13278346049108136,0.09702636438580729,0.103515625,,
1.0167099999999627,1200,,,,-0.0625,0.01953125,-1.0546875,0.03371596941057683,0.7432534916397658,22.835802765962967,0.3335618477684167,1586,0,7.617152565889728,5.599132813050059,73.5069012287277,0.1327443939010419,0.09757629051151209,0.103515625,,
1.0242900000000372,1200,,,,-0.0625,0.095703125,-0.998046875,0.03371596941057683,0.7432534916397658,22.835811157568937,0.3328638051117231,1586,0,7.601214994721138,5.5997185849635605,73.6687304444412,0.13273050785722698,0.09778088005087839,0.103515625,,
1.032100000000093,1200,,,,0,0.05078125,-0.98828125,0.03371596941057683,0.7432534916397658,22.835522610396456,0.33305138200042855,1586,0,7.605402364094574,5.598317686088843,73.60975025488116,0.13276372176710563,0.09772704402185176,0.103515625,,
1.0401650000000373,1200,,,,-0.03125,0.01171875,-0.9609375,0.03371596941057683,0.7432534916397658,22.835738415200634,0.3333287262583691,1585,0,7.611807599108136,5.596950978471714,73.52985352818824,0.13279614105941595,0.09764480801207479,0.103515625,,
1.063184999999823,1200,,,,-0.01953125,0.06640625,-0.98046875,0.03371596941057683,0.7432534916397658,22.835774064944438,0.34114878993629266,1586,0,7.79039668951437,5.600176162252918,71.88563542329724,0.13271966275802996,0.09540637290526705,0.103515625,,
1.0710900000000838,1200,,,,-0.0625,0.03125,-0.94921875,0.03371596941057683,0.7432534916397658,22.83584831609164,0.3397975478802866,1587,0,7.759565261574111,5.604631990966042,72.22868552598631,0.1326141471621681,0.09578545531673109,0.103515625,,
1.0790749999999534,1200,,,,-0.0625,-0.033203125,-0.970703125,0.03371596941057683,0.7432534916397658,22.83605391690339,0.33738429616323595,1588,0,7.704525977900158,5.606470703013673,72.76853526220049,0.13257065469730203,0.09646972361073627,0.103515625,,
1.0874749999998603,1200,,,,0,0.10546875,-0.94140625,0.03371596941057683,0.7569172230263508,22.83611706215021,0.3357413088025023,1589,0,7.667027830413465,5.610729648762439,73.1799828155817,0.13490531007732734,0.09872368273189533,0.103515625,,
1.0951950000000652,1200,,,,-0.09375,0.0625,-0.96875,0.03371596941057683,0.7569172230263508,22.83620924315933,0.3341926204771669,1591,0,7.6316926087363175,5.615921691405279,73.58684343465956,0.13478058716252264,0.09918077965560039,0.103515625,,
1.103655000000028,1200,,,,-0.03125,0.041015625,-0.9921875,0.03371596941057683,0.7569172230263508,22.836133108868783,0.3365590471562117,1591,0,7.685707199853296,5.617982303946016,73.09649142050651,0.1347311511634167,0.09848374435091656,0.103515625,,
1.1157700000000186,1200,,,,0.0625,0.046875,-0.92578125,0.03371596941057683,0.7569172230263508,22.83590903762053,0.3411525473074596,1591,0,7.790528538265682,5.6181226636181485,72.1147818921776,0.1347277851243792,0.09715864839060775,0.103515625,,
1.1242249999998604,1200,,,,-0.08203125,0.0234375,-0.984375,0.031049730644321594,0.7569172230263508,22.83584147395675,0.34250976513318143,1591,0,7.821498699863491,5.172407500695351,66.13064451171775,0.1463375078093895,0.09677393707673458,0.103515625,,
1.132875,1200,,,,-0.0625,0.07421875,-1.0078125,0.031049730644321594,0.7569172230263508,22.835945266567656,0.34066437749079403,1591,0,7.7793930786491154,5.17208550486689,66.48443461562451,0.1463466182672537,0.09729772173406988,0.103515625,,
1.1404799999999813,1200,,,,-0.0625,0.09375,-0.98828125,0.031049730644321594,0.7569172230263508,22.83601323394595,0.3401485684960399,1593,0,7.767637211683337,5.178718770210253,66.67045111763098,0.14615916727905662,0.09744497617471994,0.103515625,,
1.1481999999999535,1200,,,,-0.03125,0.078125,-0.966796875,0.031049730644321594,0.7569172230263508,22.83601260623504,0.338059393247414,1596,0,7.719928565854116,5.188115510080045,67.20419063237851,0.1458944430893507,0.09804717965581423,0.103515625,,
1.1560799999998417,1200,,,,-0.1875,-0.015625,-0.984375,0.031049730644321594,0.7569172230263508,22.836012014776223,0.335774306649911,1597,0,7.667746100910523,5.191802553317594,67.70963050929768,0.14579083377172652,0.0987144348632604,0.103515625,,
1.164314999999944,1200,,,,0,0.09375,-0.939453125,0.031049730644321594,0.7569172230263508,22.836011448275364,0.334541765097165,1597,0,7.639599577685107,5.193272472293678,67.97833341243395,0.1457495687092359,0.09907812776434888,0.103515625,,
1.1722649999998975,1200,,,,-0.0625,0.029296875,-0.99609375,0.031049730644321594,0.7569172230263508,22.836108855693325,0.33177433977232584,1595,0,7.576434938566616,5.1868415351344925,68.46018710900181,0.14593027720225585,0.09990414082134938,0.103515625,,
1.1805849999999627,1200,,,,0.03125,0.025390625,-0.97265625,0.031049730644321594,0.7569172230263508,22.8363009517909,0.33105106116430577,1594,0,7.559981663157823,5.184290162593877,68.57543303125402,0.1460020946527498,0.10012156864282452,0.103515625,,
1.1884549999998417,1200,,,,-0.125,0.08984375,-0.9140625,0.031049730644321594,0.7569172230263508,22.8363518771697,0.3310055263705729,1594,0,7.558958673486178,5.1832889632522114,68.57146846738466,0.14603029628342953,0.10013511856882026,0.103515625,,
1.1965999999998602,1200,,,,-0.03125,-0.033203125,-0.984375,0.031049730644321594,0.7569172230263508,22.836334652297136,0.3309624713630824,1592,0,7.557969753398656,5.1768414954548305,68.4951338039811,0.14621216888539273,0.10014822071575259,0.103515625,,
1.2056950000000652,1200,,,,-0.125,0.12109375,-0.96484375,0.031049730644321594,0.7569172230263508,22.836611336604527,0.33067602456524947,1591,0,7.551519851330093,5.174134774331741,68.51779345346475,0.14628865617906317,0.1002337592866197,0.10546875,,
1.2161299999998882,1200,,,,0,0.095703125,-0.96875,0.031049730644321594,0.7569172230263508,22.83650494947905,0.3292231730159569,1591,0,7.518306620062097,5.173176939863362,68.80774090882495,0.14631574211075468,0.10067655674039257,0.103515625,,
1.222689999999944,1200,,,,-0.0625,0.001953125,-1.013671875,0.031049730644321594,0.7569172230263508,22.83654966449916,0.3276318084095924,1590,0,7.48198006441533,5.1691761950595385,69.08834493751725,0.14642898490281248,0.10116536217816013,0.103515625,,
1.2300649999999442,1200,,,,-0.125,0.0546875,-0.96875,0.031049730644321594,0.7569172230263508,22.83661394592642,0.3268779298238064,1589,0,7.464785090829896,5.166768987060622,69.21524095057649,0.1464972064595753,0.10139839443685855,0.10546875,,
1.2370849999999627,1200,,,,0,0.037109375,-0.943359375,0.031049730644321594,0.7573558072504839,22.83675626869812,0.32728814944331996,1589,0,7.474199698470344,5.1657695026043315,69.11468399301063,0.14661045307357629,0.10132935134252338,0.103515625,,
1.2455400000000372,1200,,,,-0.03125,0.02734375,-1.017578125,0.031049730644321594,0.7573558072504839,22.836718817290684,0.32581588039943205,1588,0,7.440565646889841,5.16450551064581,69.41011954923852,0.1466463353924814,0.1017873967104986,0.103515625,,
1.253089999999851,1200,,,,-0.125,0.08984375,-0.94921875,0.031049730644321594,0.7573558072504839,22.83674921048227,0.326887189126832,1588,0,7.46504075820895,5.162460988510879,69.15516144816712,0.14670441266984655,0.10145367343341773,0.103515625,,
1.2619599999999627,1200,,,,-0.0625,0.029296875,-0.9609375,0.031049730644321594,0.7573558072504839,22.836908451891237,0.32704601245666565,1587,0,7.468719846028955,5.161663469001704,69.11041752016057,0.1467270797096272,0.10140369740246216,0.103515625,,
1.271185000000056,1200,,,,0,0.00390625,-0.9453125,0.031049730644321594,0.7573558072504839,22.836798910063642,0.3318594537804324,1587,0,7.5786076123872945,5.161348951641076,68.10418503795883,0.14673602082449372,0.099933371139651,0.10546875,,
1.2781850000000559,1200,,,,-0.125,0.0703125,-0.9609375,0.02961322379152349,0.7573558072504839,22.83675447747977,0.3368324553675314,1588,0,7.6921600832749775,4.9257310832589125,64.03573287520243,0.1537550049828156,0.09845814427304998,0.10546875,,
1.2859049999997951,1200,,,,0,0.02734375,-0.95703125,0.02961322379152349,0.7573558072504839,22.836551531965135,0.3354344515966278,1589,0,7.660166139482856,4.926708020691003,64.31594212163667,0.15372451626314557,0.09886937090657065,0.10546875,,
1.293589999999851,1200,,,,-0.0625,0.072265625,-1.009765625,0.02961322379152349,0.7573558072504839,22.83652440624381,0.3332505047286643,1589,0,7.610283284629211,4.927172887977773,64.74361996391616,0.1537100127130551,0.09951742647742763,0.10546875,,
1.3017099999999628,1200,,,,-0.0625,0.015625,-0.92578125,0.02961322379152349,0.7573558072504839,22.836629097228574,0.33097569945300603,1591,0,7.558369288604097,4.935349547740911,65.29648604470854,0.153455353045288,0.1002009531860747,0.10546875,,
1.314964999999851,1200,,,,-0.0625,0.041015625,-1.00390625,0.02961322379152349,0.7573558072504839,22.83690774957943,0.32767668019549234,1596,0,7.4831221173129,4.949351520164861,66.14019446126737,0.15302121988402567,0.10120853239829812,0.10546875,,
1.3218249999999534,1200,,,,-0.03125,0.0859375,-0.984375,0.02961322379152349,0.7573558072504839,22.83686789982581,0.32640913461734855,1597,0,7.4541622885528485,4.951960034120609,66.43214679837595,0.1529406138240327,0.10160173308991868,0.10546875,,
1.3290449999999254,1200,,,,-0.0625,0.05859375,-0.9453125,0.02961322379152349,0.7573558072504839,22.836831127390862,0.324910864425475,1595,0,7.41993454233916,4.947575369911186,66.67950157349293,0.15307615359563068,0.102070416245441,0.10546875,,
1.3394749999998603,1200,,,,-0.03125,0.041015625,-1.025390625,0.02961322379152349,0.7573558072504839,22.83693437052459,0.3247163683950435,1594,0,7.415526394072693,4.942142861384666,66.6458805316231,0.1532444181587846,0.1021310918474845,0.10546875,,
1.3473499999998604,1200,,,,0,-0.0546875,-0.916015625,0.02961322379152349,0.7573558072504839,22.836808910046315,0.32669649081849306,1593,0,7.460705332404626,4.940245650409205,66.21687133188165,0.15330326887444382,0.10151262829815903,0.10546875,,
1.355749999999767,1200,,,,-0.0625,0.048828125,-0.94921875,0.02961322379152349,0.7573558072504839,22.836769284614427,0.3255889558300252,1592,0,7.435399865908802,4.937168585448111,66.40084829983329,0.15339881434932695,0.10185811400983948,0.10546875,,
1.3644100000001491,1200,,,,-0.0625,0.056640625,-0.96875,0.02961322379152349,0.7573558072504839,22.83672511171931,0.3241041629362553,1591,0,7.401477676539149,4.933211275459612,66.65170782175929,0.15352186739253804,0.1023249464969832,0.103515625,,
1.3722950000001584,1200,,,,0.0625,0.0390625,-0.9921875,0.02961322379152349,0.7573558072504839,22.83668939879446,0.3226898399332081,1590,0,7.369167646701374,4.9319479525902254,66.92679810043255,0.1535611921558754,0.10277358903478001,0.103515625,,
1.3803149999999442,1200,,,,-0.09375,0.033203125,-0.962890625,0.02961322379152349,0.7573558072504839,22.83665552812586,0.3236962434704672,1590,0,7.392139607883419,4.93145243793246,66.71211177712695,0.15357662205660647,0.10245420776993908,0.103515625,,
1.3878850000000094,1200,,,,-0.03125,-0.029296875,-0.984375,0.02961322379152349,0.7575387911263954,22.83681085828553,0.3242972823665301,1590,0,7.405915699260464,4.929543344068478,66.5622394886392,0.1536732184407936,0.1022883356884607,0.103515625,,
1.3959999999997672,1200,,,,0,0.10546875,-0.9609375,0.02961322379152349,0.7575387911263954,22.83690326949992,0.3245875689709367,1589,0,7.412574915071415,4.928726567489282,66.49142334424282,0.1536986847927921,0.10219644318010876,0.103515625,,
1.4029499999999535,1200,,,,-0.09375,0.12109375,-0.98046875,0.02961322379152349,0.7575387911263954,22.836864536315773,0.3242666272273011,1589,0,7.405233039637879,4.928433503922575,66.55338836120652,0.1537078243063369,0.10229776525215736,0.103515625,,
1.4107799999997952,1200,,,,0,-0.05859375,-1.0390625,0.02961322379152349,0.7575387911263954,22.836919401319005,0.3236068162040314,1588,0,7.390182779368918,4.9252277512437805,66.64554718448207,0.15380787029292042,0.10250609676951525,0.103515625,,
1.4179499999999534,1200,,,,-0.0625,0.046875,-0.978515625,0.02961322379152349,0.7575387911263954,22.836937485854072,0.32408061110004033,1588,0,7.401008656069006,4.924016796653733,66.53169892749578,0.15384569598568473,0.10235615526610622,0.103515625,,
1.4268599999998697,1200,,,,0,0.0625,-0.91796875,0.02939482058345379,0.7575387911263954,22.83707016905449,0.3232143876477929,1588,0,7.381269650360625,4.887183209144256,66.21060387497812,0.155005195980578,0.102629876296334,0.103515625,,
1.458589999999851,1200,,,,-0.046875,0.03515625,-0.951171875,0.02939482058345379,0.7575387911263954,22.836539895519888,0.32647936463396915,1588,0,7.4556590355276215,4.8868036665163865,65.54489205085487,0.15501723474526563,0.10160587917400464,0.1015625,,
1.467225000000093,1200,,,,-0.0625,0.046875,-1.056640625,0.02939482058345379,0.7575387911263954,22.836594893473222,0.3268035232946221,1589,0,7.463079671239024,4.890180267258891,65.52496399180234,0.1549101975234588,0.10150485114687628,0.1015625,,
1.474469999999972,1200,,,,0,0.072265625,-0.947265625,0.02939482058345379,0.7575387911263954,22.836566894725173,0.32573420184526836,1589,0,7.438650890339383,4.892465105260142,65.77086594578614,0.1548378526628481,0.10183819650821567,0.1015625,,
1.4825,1200,,,,-0.0625,0.0546875,-1,0.02939482058345379,0.7575387911263954,22.836636040057993,0.32469061567515795,1590,0,7.414841415795931,4.893407803038515,65.99477357147553,0.154808023695881,0.10216520470857285,0.1015625,,
1.4919150000000372,1200,,,,-0.125,0.046875,-0.96875,0.02939482058345379,0.7575387911263954,22.83649003457178,0.32715634146382677,1591,0,7.471102531585643,4.896935449047935,65.54501732970628,0.15469650335572152,0.10139584993295733,0.1015625,,
1.5009449999998323,1200,,,,0,-0.015625,-0.919921875,0.02939482058345379,0.7575387911263954,22.836463124009835,0.32910889336437127,1592,0,7.51568310709915,4.899741618273971,65.19356322575366,0.15460790591509868,0.10079440289477358,0.103515625,,
1.5090549999999348,1200,,,,-0.09375,0.072265625,-0.986328125,0.02939482058345379,0.7575387911263954,22.836635415431555,0.3278906638900689,1592,0,7.487919547381312,4.90068716279174,65.44791422746545,0.15457807567844295,0.10116812638449396,0.103515625,,
1.5170849999999627,1200,,,,0,0.033203125,-0.99609375,0.02939482058345379,0.7575387911263954,22.836800733166577,0.3270414708999301,1594,0,7.4685809024233984,4.906812685090562,65.69939790701609,0.154385104902861,0.10143008437929486,0.103515625,,
1.5253299999998418,1200,,,,-0.0625,0.04296875,-0.94921875,0.02939482058345379,0.7575387911263954,22.83686757437196,0.3264883389571065,1595,0,7.455970961340108,4.909384780544754,65.84500940253609,0.15430422038387007,0.10160162842026926,0.103515625,,
1.5343249999999535,1200,,,,0,0.005859375,-0.9140625,0.02939482058345379,0.7628693128962714,22.836922597577068,0.32634890264220806,1595,0,7.45280462944432,4.910235129776917,65.88439351244638,0.15536309213993388,0.1023600309985787,0.103515625,,
1.5431699999999255,1200,,,,-0.125,0.08984375,-1.044921875,0.02939482058345379,0.7628693128962714,22.836637488541587,0.3265677925696887,1595,0,7.457710294347226,4.9091639057039504,65.82669092717352,0.15539699377523222,0.10229269880254116,0.103515625,,
1.5511899999999441,1200,,,,0,0.03125,-0.923828125,0.02939482058345379,0.7628693128962714,22.83641854162104,0.33124472648969444,1594,0,7.5644432138234485,4.906232640969581,64.85913770895671,0.15548983685076773,0.10084936740647155,0.103515625,,
1.5600500000000466,1200,,,,0,0.015625,-1.04296875,0.02939482058345379,0.7628693128962714,22.836323839333083,0.3349334322540782,1593,0,7.6486483235734575,4.904955772034325,64.12839974505094,0.15553031430900593,0.0997391016848135,0.103515625,,
1.5684550000000745,1200,,,,-0.09375,0.078125,-0.94140625,0.02939482058345379,0.7628693128962714,22.836242846389936,0.3327911735299164,1593,0,7.599700055864265,4.904514233919284,64.53562900992051,0.15554431621796905,0.10038150286044614,0.103515625,,
1.5785800000000745,1200,,,,-0.03125,0.037109375,-1.01953125,0.029678902940058236,0.7628693128962714,22.836229616096848,0.3312236044444448,1599,0,7.563898285364578,4.968294081958893,65.68430582378491,0.15354753569569057,0.10085663293124271,0.103515625,,
1.5863599999998697,1200,,,,-0.03125,0.0703125,-0.974609375,0.029678902940058236,0.7628693128962714,22.836298488852048,0.3289902774437919,1601,0,7.512920175636681,4.974566047309791,66.2134819885561,0.15335394196018878,0.10154098473855037,0.103515625,,
1.5939099999999162,1200,,,,0,0.041015625,-0.955078125,0.029678902940058236,0.7628693128962714,22.836410841092118,0.32677980458506783,1601,0,7.4624778720764064,4.974412571448691,66.6589925855898,0.15335867339891793,0.10222734673034357,0.103515625,,
1.6012499999997671,1200,,,,-0.125,0.109375,-0.9296875,0.029678902940058236,0.7628693128962714,22.83639255635575,0.32576939303219904,1599,0,7.439397742129041,4.970657522076238,66.81532154044653,0.15347452716428986,0.10254449880750023,0.103515625,,
1.6095150000001304,1200,,,,-0.0625,-0.11328125,-0.94140625,0.029678902940058236,0.7628693128962714,22.836309394501686,0.32409849511483474,1599,0,7.4012135087347595,4.9689877680635055,67.13747363454937,0.15352609998345274,0.10307354489854248,0.10546875,,
1.61675,1200,,,,-0.03125,0.078125,-0.970703125,0.029678902940058236,0.7628693128962714,22.836382487110175,0.325485001098784,1599,0,7.432899978909306,4.96835820268046,66.84279644254691,0.15354555403929987,0.10263414213307008,0.10546875,,
1.624899999999907,1200,,,,-0.0625,0.07421875,-1.0234375,0.029678902940058236,0.7628693128962714,22.836560879765727,0.32442978163340874,1597,0,7.408860459480439,4.962378685975143,66.97897352925904,0.153730571802656,0.10296715899407952,0.10546875,,
1.6330999999998603,1200,,,,-0.0625,0.02734375,-0.94140625,0.029678902940058236,0.7628693128962714,22.83666523446765,0.324281987337014,1595,0,7.405519186383266,4.957174632289586,66.93892092541574,0.1538919585215263,0.10301361642529809,0.10546875,,
1.641880000000121,1200,,,,0,0.041015625,-0.904296875,0.029678902940058236,0.7628693128962714,22.83655732572908,0.3238950557331423,1594,0,7.3966480077701195,4.955049198078953,66.99046909997223,0.15395796941673798,0.10313716592906452,0.10546875,,
1.6507900000000373,1200,,,,-0.0625,-0.04296875,-0.982421875,0.029678902940058236,0.7628693128962714,22.836306600993098,0.32853929953226263,1593,0,7.502624174594257,4.952378482618987,66.00861735003289,0.15404099577075137,0.10168033146049561,0.10546875,,
1.6587700000000187,1200,,,,-0.0625,0.171875,-0.9921875,0.029678902940058236,0.7628693128962714,22.836357278456436,0.3288316500064437,1592,0,7.50931704401149,4.947898234657198,65.89012297200895,0.15418047759204262,0.10158970628422759,0.10546875,,
1.6672699999997858,1200,,,,-0.03125,0.08984375,-0.998046875,0.029678902940058236,0.7628693128962714,22.836339543895775,0.3276010640458914,1591,0,7.481209133493523,4.9461322824605105,66.11407586932141,0.15423552572612823,0.10197139249601915,0.10546875,,
1.6756749999998137,1200,,,,0.03125,-0.0234375,-0.986328125,0.029678902940058236,0.7628693128962714,22.836393773841287,0.3272655470790814,1592,0,7.473564901709497,4.9469773274930855,66.1930068522121,0.154209179139873,0.10207569251479616,0.107421875,,
1.684369999999879,1200,,,,-0.125,0.08203125,-0.90234375,0.029678902940058236,0.766921314951624,22.8365745029854,0.32588715214638686,1593,0,7.442146229556702,4.950270269822323,66.51670253618748,0.15492514007303898,0.10305109457615513,0.107421875,,
1.6927049999998416,1200,,,,-0.0625,-0.001953125,-1.009765625,0.029678902940058236,0.766921314951624,22.8364720568502,0.32471667306792756,1593,0,7.41538323090909,4.951594332951468,66.77462484085838,0.1548837128776843,0.10342301821366595,0.107421875,,
1.6998100000000558,1200,,,,0,0.095703125,-0.970703125,0.029678902940058236,0.766921314951624,22.83662543360374,0.3235367672236471,1593,0,7.388487967085472,4.952026452876121,67.02354358478493,0.15487019753422332,0.10379949434419265,0.10546875,,
1.7078950000000186,1200,,,,-0.125,0.11328125,-0.9453125,0.029678902940058236,0.766921314951624,22.83679003257346,0.3219539608252809,1591,0,7.352395003522321,4.946015716219456,67.27081058416968,0.1550584063929803,0.10430904685945384,0.10546875,,
1.7156400000001304,1200,,,,-0.03125,-0.0234375,-1.001953125,0.029678902940058236,0.766921314951624,22.836882398224333,0.32107499433658343,1591,0,7.3323518866751,4.943621126828205,67.4220387023722,0.15513351352709256,0.1045941775305862,0.107421875,,
1.7239899999999906,1200,,,,0,0.0625,-0.958984375,0.029678902940058236,0.766921314951624,22.83683930258983,0.3202453545118249,1590,0,7.3133916983874565,4.942682227225981,67.58399428155614,0.15516298230283945,0.104865341086643,0.107421875,,
1.7345649999999442,1200,,,,-0.125,0.00390625,-0.94140625,0.029798127457118358,0.766921314951624,22.83686376958911,0.31933821609984786,1590,0,7.292683337495834,4.960148815589786,68.01541471143878,0.1546165938693582,0.105163117532945,0.107421875,,
1.7509199999999254,1200,,,,0,-0.05859375,-0.9453125,0.029798127457118358,0.766921314951624,22.836978602058483,0.3182250048056477,1588,0,7.267297625386535,4.9558811095095985,68.19427750141173,0.15474974035999695,0.10553046737381047,0.10546875,,
1.7602099999999627,1200,,,,0,-0.044921875,-0.951171875,0.029798127457118358,0.766921314951624,22.83703484258639,0.31816354277902625,1587,0,7.265911912085349,4.95331289617591,68.17193706872628,0.1548299756196924,0.10555059354298092,0.10546875,,
1.7682199999997392,1200,,,,-0.09375,0.142578125,-0.98828125,0.029798127457118358,0.766921314951624,22.837115030324693,0.31832487040411916,1587,0,7.26962168243207,4.95140623892621,68.11092041958509,0.15488959660032717,0.10549672987866524,0.107421875,,
1.776034999999916,1200,,,,0.0625,0.0078125,-1.05859375,0.029798127457118358,0.766921314951624,22.837452158950146,0.3191151255358698,1587,0,7.287776412622796,4.950656040328503,67.93095397045546,0.15491306782458966,0.10523392479814248,0.107421875,,
1.7841949999998323,1200,,,,-0.09375,0.08203125,-1.017578125,0.029798127457118358,0.766921314951624,22.83757727201844,0.3196561977285751,1586,0,7.300173116105939,4.950359078476043,67.81152994241135,0.15492236074069177,0.10505522304116473,0.107421875,,
1.7929899999997578,1200,,,,-0.03125,0.08984375,-0.96484375,0.029798127457118358,0.766921314951624,22.837637625561566,0.32071457354119126,1586,0,7.324363211770241,4.949291931623046,67.57299970691706,0.15495576449056292,0.10470825828505917,0.107421875,,
1.8014799999999813,1200,,,,-0.0625,0.0234375,-1.03515625,0.029798127457118358,0.766921314951624,22.837548074519834,0.3209921965712576,1586,0,7.330674720741816,4.948913284772113,67.5096559770874,0.15496762032817454,0.10461810735942961,0.107421875,,
1.8089150000000374,1200,,,,-0.03125,0.00390625,-1.001953125,0.029798127457118358,0.766921314951624,22.83748251529706,0.32027603184462317,1586,0,7.314298277320306,4.9487944042870256,67.65918228453877,0.15497134297744472,0.10485234343390712,0.107421875,,
1.817369999999879,1200,,,,-0.03125,0.080078125,-0.92578125,0.029798127457118358,0.766921314951624,22.83750840452573,0.3201179557711908,1586,0,7.310696505364166,4.948737025414576,67.69173117477219,0.15497313981588584,0.10490400119727326,0.10546875,,
1.8253850000000094,1200,,,,0,0.046875,-0.9921875,0.029798127457118358,0.766921314951624,22.83769382230093,0.3193407981061115,1586,0,7.293007372116591,4.948714807851542,67.85561230572726,0.15497383557743927,0.10515844504474244,0.10546875,,
1.8329849999998695,1200,,,,-0.03125,0.01953125,-0.982421875,0.029798127457118358,0.7778815245011218,22.83774242477407,0.31944585566118966,1586,0,7.295422170251805,4.948706077396583,67.83303230312957,0.15718887166367132,0.10662597809254305,0.10546875,,
1.8408899999998976,1200,,,,0,0.0078125,-0.99609375,0.029798127457118358,0.7778815245011218,22.837658553989193,0.3187063268030394,1586,0,7.278506270523908,4.948044255880992,67.98158951815853,0.15720989632955923,0.10687378640468352,0.10546875,,
1.85,1200,,,,-0.09375,0.0390625,-0.990234375,0.029798127457118358,0.7778815245011218,22.837714068613334,0.3186182664367367,1585,0,7.276512865919453,4.9470550252355245,67.98661826608918,0.15724133257727158,0.10690306453582137,0.10546875,,
1.8581299999998881,1200,,,,-0.03125,0.095703125,-0.970703125,0.029798127457118358,0.7778815245011218,22.83762992514564,0.317904692860985,1585,0,7.2601897270262645,4.946721156136018,68.1348744609484,0.1572519452680734,0.1071434154958011,0.10546875,,
1.8654650000000839,1200,,,,-0.0625,0.05859375,-0.943359375,0.029798127457118358,0.7778815245011218,22.837550156595174,0.3178656337355014,1585,0,7.259272353492425,4.945999988599743,68.13355041322055,0.15727487389690575,0.10715695549387731,0.103515625,,
1.872119999999879,1200,,,,0,-0.046875,-0.984375,0.02950205008288497,0.7778815245011218,22.837569116169654,0.3172864721640071,1585,0,7.246051737671151,4.896328908056022,67.57237024130993,0.15887035759000148,0.10735246623440885,0.10546875,,
1.8799450000000653,1200,,,,-0.125,0.0546875,-1.05859375,0.02950205008288497,0.7778815245011218,22.83767720879637,0.3184356134218657,1585,0,7.272329751113634,4.8960865150152575,67.32486950643987,0.15887822286545067,0.10696455621831538,0.10546875,,
1.8909599999999627,1200,,,,0,0.072265625,-0.966796875,0.02950205008288497,0.7778815245011218,22.83759517562293,0.3183706036612928,1585,0,7.2708189622353,4.895977607944083,67.33736094068406,0.15888175698331464,0.10698678216875507,0.10546875,,
1.9077299999999813,1200,,,,-0.09375,0.021484375,-0.96484375,0.02950205008288497,0.7778815245011218,22.837717360149135,0.3180199792191669,1585,0,7.262850400287835,4.8959147495258035,67.41037581239141,0.15888379685869,0.10710416456743946,0.10546875,,
1.915594999999972,1200,,,,-0.03125,-0.00390625,-0.951171875,0.02950205008288497,0.7778815245011218,22.837732230578126,0.31729010497259863,1585,0,7.246186456776233,4.8959095322531505,67.5653264162802,0.1588839661714771,0.10735047036689072,0.10546875,,
1.9244499999999534,1200,,,,-0.0625,0.04296875,-1,0.02950205008288497,0.7778815245011218,22.83771050148337,0.3179896293117557,1585,0,7.262155096695887,4.897295772563192,67.43584662342654,0.15883899209419958,0.10711441908684104,0.10546875,,
1.9318299999998416,1200,,,,0,0.11328125,-1.013671875,0.02950205008288497,0.7778815245011218,22.83763400440426,0.31736766710545294,1585,0,7.247926626185944,4.897747604255939,67.57446448976081,0.15882433872769905,0.10732469637464642,0.10546875,,
1.9401199999998788,1200,,,,-0.09375,0.044921875,-0.958984375,0.02950205008288497,0.7778815245011218,22.837552914708304,0.31735471029690554,1585,0,7.247604989137504,4.897950349979414,67.5802607526254,0.15881776435410194,0.10732945927199228,0.10546875,,
1.9481650000000372,1200,,,,0,-0.125,-1.046875,0.02950205008288497,0.7778815245011218,22.837672003879227,0.31713174738416466,1585,0,7.242550828776636,4.8978099699333395,67.62548286817677,0.15882231635697966,0.1074043583388308,0.10546875,,
1.9560049999998883,1200,,,,-0.0625,0.126953125,-0.99609375,0.02950205008288497,0.7778815245011218,22.83749365504977,0.31871240176780236,1585,0,7.278592453157859,4.897535916744881,67.28685454314807,0.15883120363477318,0.10687252095886113,0.10546875,,
1.9638749999997671,1200,,,,0.0625,0.03515625,-0.9765625,0.02950205008288497,0.7778815245011218,22.837551405286312,0.3192739408412646,1585,0,7.291435036330721,4.8974261606627945,67.16683528359779,0.15883476319648013,0.10668428376927243,0.10546875,,
1.972244999999879,1200,,,,-0.09375,0.05859375,-0.978515625,0.02950205008288497,0.7778815245011218,22.83747520270578,0.3185277185383076,1585,0,7.274368873493045,4.89738303311136,67.32382036545954,0.1588361619342086,0.10693457233597703,0.10546875,,
1.9801799999999348,1200,,,,-0.0625,0.033203125,-1,0.02950205008288497,0.7921306500100584,22.83750126856251,0.31781169447737,1586,0,7.258024975790938,4.90045795722268,67.5177885660094,0.1616442089545027,0.10913859523109959,0.10546875,,
1.9883049999999347,1200,,,,0,0.0078125,-0.90625,0.02950205008288497,0.7921306500100584,22.83749309453775,0.3184120252048434,1587,0,7.271732426833391,4.901649451870484,67.4069006414885,0.16160491642415983,0.10893286544579395,0.10546875,,
1.9971749999998136,1200,,,,-0.03125,0.01953125,-0.970703125,0.02950205008288497,0.7921306500100584,22.83741140479722,0.31834059334949727,1587,0,7.270075097169722,4.902150539738791,67.42915959213714,0.16158839749794113,0.10895769843126367,0.10546875,,
2.0051299999998884,1200,,,,-0.0625,0.060546875,-1.005859375,0.02950205008288497,0.7921306500100584,22.837341912304417,0.3176381011061838,1586,0,7.254009919337039,4.900559768931573,67.55656283110578,0.16164085071097092,0.10919900287129097,0.10546875,,
2.0132099999999626,1200,,,,0,0.03125,-0.9765625,0.02950205008288497,0.7921306500100584,22.83747126142279,0.3171904507486401,1586,0,7.24382780336981,4.899938886480123,67.64295092990315,0.16166133259247373,0.10935249587815454,0.10546875,,
2.020795000000158,1200,,,,-0.0625,-0.009765625,-0.92578125,0.02950205008288497,0.7921306500100584,22.837497047895514,0.3171863811098901,1586,0,7.243743042229777,4.899691839289414,67.64033194889785,0.16166948371286521,0.1093537754434514,0.10546875,,
2.0287949999999255,1200,,,,0.125,0.0078125,-0.97265625,0.02919672089456804,0.7921306500100584,22.837288654865237,0.3163133455577546,1586,0,7.223739177888576,4.8484458765892455,67.11823000794439,0.16337825979142448,0.1096565961897852,0.10546875,,
2.037649999999907,1200,,,,-0.125,0.1328125,-1.0234375,0.02919672089456804,0.7921306500100584,22.837125781061385,0.3163526618223579,1586,0,7.224585529210763,4.847801623977533,67.10144968699848,0.16339997208056745,0.10964375005421154,0.10546875,,
2.0487649999998974,1200,,,,-0.03125,0,-1.025390625,0.02919672089456804,0.7921306500100584,22.837137078680417,0.31615788964686936,1585,0,7.220141064371872,4.847537790747679,67.13910085037097,0.16340886532580928,0.10971124288954197,0.10546875,,
2.056649999999907,1200,,,,-0.03125,0.076171875,-0.955078125,0.02919672089456804,0.7921306500100584,22.83699510827996,0.31686937131895954,1585,0,7.236344282774826,4.844767090878664,66.95047805299977,0.1635023180993402,0.10946558359524466,0.10546875,,
2.065064999999944,1200,,,,-0.03125,0.0078125,-0.955078125,0.02919672089456804,0.7921306500100584,22.837142574001366,0.31752038707683455,1584,0,7.251258349825771,4.84288210213947,66.78678194186574,0.16356595789521988,0.10924043963060444,0.10546875,,
2.0739799999999815,1200,,,,-0.03125,0.060546875,-0.982421875,0.02919672089456804,0.7921306500100584,22.837081865257208,0.31888185756200216,1584,0,7.282331086488732,4.842108537198397,66.49118914933983,0.16359208884408413,0.10877432522667604,0.103515625,,
2.082280000000028,1200,,,,-0.0625,0.1015625,-0.96875,0.02919672089456804,0.7921306500100584,22.837129366720198,0.3191266578817348,1584,0,7.287936770414235,4.842272347703632,66.44229361814845,0.16358655464427016,0.10869065895655884,0.103515625,,
2.0995200000000187,1200,,,,-0.0625,0.044921875,-0.923828125,0.02919672089456804,0.7921306500100584,22.836951908034838,0.31872028487386955,1584,0,7.278599817779722,4.843592211003315,66.54565894901492,0.16354197783425173,0.10883008680805474,0.103515625,,
2.108339999999851,1200,,,,-0.09375,0.1015625,-0.978515625,0.02919672089456804,0.7921306500100584,22.836901928037573,0.31897751806106656,1584,0,7.284458297209411,4.843500183704003,66.49087668687032,0.1635450851587017,0.10874256090030941,0.103515625,,
2.1171349999997764,1200,,,,-0.0625,0.044921875,-1.0234375,0.02919672089456804,0.7921306500100584,22.836852671863223,0.3188753600114701,1584,0,7.282109617269288,4.843236261586122,66.50869756341683,0.16355399720901537,0.10877763335662323,0.103515625,,
2.1263799999998882,1200,,,,0,0.046875,-0.94921875,0.02919672089456804,0.7921306500100584,22.837006562670123,0.3196372715066166,1584,0,7.299558467070574,4.843146438705814,66.34848478238771,0.16355703054515355,0.10851761152177644,0.103515625,,
2.136840000000084,1200,,,,-0.0625,0.041015625,-0.919921875,0.02919672089456804,0.7990465158028034,22.8369432669632,0.3200241777525287,1584,0,7.308373991391045,4.8440839405122285,66.28128153017832,0.16495306968572263,0.10933300851106503,0.103515625,,
2.1442899999998044,1200,,,,-0.03125,-0.005859375,-0.99609375,0.02919672089456804,0.7990465158028034,22.83694656556769,0.319854146422238,1585,0,7.3044920506199125,4.846264171861383,66.3463542471799,0.1648788608021549,0.10939111306651234,0.103515625,,
2.1518100000000557,1200,,,,0,0.06640625,-0.978515625,0.02919672089456804,0.7990465158028034,22.83699311253808,0.31915824133214615,1585,0,7.288614559111989,4.846905484315475,66.49968172971955,0.16485704505452145,0.10962941027027714,0.103515625,,
2.1588249999999536,1200,,,,-0.1875,0.14453125,-0.9765625,0.02919672089456804,0.7990465158028034,22.836950554731768,0.3213032122043788,1585,0,7.337585570187887,4.847176344323865,66.05955457633931,0.16484783284984092,0.10889774410935325,0.103515625,,
2.166844999999972,1200,,,,0.03125,-0.013671875,-0.966796875,0.02919672089456804,0.7990465158028034,22.836999822652395,0.3217169965257234,1585,0,7.347050992602206,4.844758972032847,65.94154548418224,0.1649300863913826,0.10875744793487462,0.103515625,,
2.1742650000001302,1200,,,,-0.125,0.06640625,-0.94140625,0.0297021635032736,0.7990465158028034,22.836832648597174,0.32190261744631504,1584,0,7.351236203766893,4.927640450510946,67.0314531314603,0.16215601033146615,0.10869553006518264,0.103515625,,
2.1823249999999534,1200,,,,-0.0625,0.0625,-0.9765625,0.0297021635032736,0.7990465158028034,22.836791685755074,0.32166655811964845,1584,0,7.345832180052239,4.927208891764868,67.07489050927147,0.16217021306693458,0.10877549285329864,0.103515625,,
2.1905149999998974,1200,,,,0,-0.0546875,-1.0078125,0.0297021635032736,0.7990465158028034,22.836753353537883,0.3214457946993478,1584,0,7.340778330080981,4.927478928212389,67.12474763092364,0.16216132579032352,0.10885038069171456,0.103515625,,
2.2007099999999626,1200,,,,-0.03125,0.087890625,-1.00390625,0.0297021635032736,0.7990465158028034,22.836712014249187,0.32120755688252706,1585,0,7.335324473326835,4.928528385613421,67.18896217249618,0.16212679592862916,0.10893131158796673,0.103515625,,
2.2087049999998416,1200,,,,-0.0625,0.05859375,-0.953125,0.0297021635032736,0.7990465158028034,22.83666917686903,0.32174481737937466,1585,0,7.34757995386492,4.928921439419517,67.08224300202194,0.1621138672270881,0.10874961835325042,0.1015625,,
2.2177049999998415,1200,,,,0,-0.01171875,-1.015625,0.0297021635032736,0.7990465158028034,22.836433676919494,0.3221676883847787,1584,0,7.357161048645466,4.928145213360592,66.98433241811279,0.16213940158186188,0.10860799573633319,0.1015625,,
2.2251949999998324,1200,,,,-0.125,0.140625,-0.98828125,0.0297021635032736,0.7990465158028034,22.836412649811034,0.3219220561900493,1584,0,7.351544916231621,4.926974570576601,67.0195806013269,0.1621779256939196,0.10869096562799649,0.103515625,,
2.234709999999963,1200,,,,-0.0625,0.078125,-0.958984375,0.0297021635032736,0.7990465158028034,22.83650067444915,0.32201598514115226,1584,0,7.353718261859331,4.926476424927317,66.99299931680677,0.16219432447899962,0.1086588426901156,0.103515625,,
2.244219999999972,1200,,,,0.03125,-0.0546875,-0.98046875,0.0297021635032736,0.7990465158028034,22.836475634122934,0.32220477046132845,1584,0,7.3580213898383,4.926159631296312,66.94951496199128,0.16220475494265202,0.10859529667939212,0.103515625,,
2.252689999999944,1200,,,,-0.03125,0.03515625,-0.916015625,0.0297021635032736,0.7990465158028034,22.836684286100812,0.323443967631648,1584,0,7.386387773047756,4.925703501651985,66.68622949400816,0.1622197754157997,0.10817825171844485,0.103515625,,
2.2603699999998788,1200,,,,-0.125,0.044921875,-1.01171875,0.0297021635032736,0.7990465158028034,22.836716502471994,0.32356015331208016,1584,0,7.38905149268435,4.925563100523728,66.66028928611964,0.1622243994230511,0.10813925394807607,0.103515625,,
2.2684449999998324,1200,,,,0,0.03515625,-1.05078125,0.0297021635032736,0.7990465158028034,22.836878522323424,0.3232417348027657,1584,0,7.381832231035844,4.9255083441609955,66.72473973944312,0.16222620285478614,0.10824501164403712,0.103515625,,
2.2765749999999536,1200,,,,-0.03125,0.138671875,-0.939453125,0.0297021635032736,0.7990465158028034,22.836966003080498,0.322093631354397,1585,0,7.3556413090491075,4.929451749970981,67.01593434017286,0.16209642701290408,0.10863043509473401,0.103515625,,
2.2859199999999253,1200,,,,-0.125,0,-0.974609375,0.0297021635032736,0.8067420765191268,22.836913188610517,0.3203955055251722,1585,0,7.316844345699339,4.93110427938566,67.39386607676083,0.1636027207722394,0.11025819853517999,0.10546875,,
2.2942600000000093,1200,,,,-0.0625,0.02734375,-0.974609375,0.0297021635032736,0.8067420765191268,22.836787966270563,0.32045408454029956,1586,0,7.318141981572163,4.931704496207065,67.39011771875437,0.16358280937951286,0.11023864780849929,0.10546875,,
2.3026099999998695,1200,,,,0.0625,0.06640625,-0.97265625,0.0297021635032736,0.8067420765191268,22.836619397425515,0.3196557437692199,1586,0,7.2998565586586475,4.933666875953297,67.5858057799955,0.16351774386130313,0.11051478478193084,0.10546875,,
2.3105200000000186,1200,,,,0,-0.01171875,-0.962890625,0.0297021635032736,0.8067420765191268,22.836589282385113,0.3182646767700784,1586,0,7.268079706489335,4.934443466111737,67.8919833763793,0.16349200919203696,0.11099796770236627,0.10546875,,
2.317959999999963,1200,,,,-0.0625,0.08203125,-0.986328125,0.0297021635032736,0.8067420765191268,22.83662574529145,0.31842065539002784,1587,0,7.271653336712486,4.934752915160199,67.86287363626165,0.16348175691648326,0.11094341811457349,0.103515625,,
2.3264149999998045,1200,,,,-0.0625,-0.00390625,-0.94921875,0.030017642950705338,0.8067420765191268,22.83679123591651,0.3189944505271983,1585,0,7.284809672105526,4.983271189317953,68.40633336516038,0.16189006093997935,0.11074305477166356,0.103515625,,
2.3354550000000747,1200,,,,-0.0625,0.021484375,-1.009765625,0.030017642950705338,0.8067420765191268,22.836821228438478,0.31961035075648314,1585,0,7.298884442984322,4.98163767956041,68.25204205484789,0.1619431456906588,0.11052950390173202,0.103515625,,
2.3432849999999164,1200,,,,0,0.12109375,-0.9921875,0.030017642950705338,0.8067420765191268,22.836976940632965,0.32033767738457486,1585,0,7.315544151647458,4.981090617145998,68.08913341086539,0.16196093155626298,0.11027779476082429,0.103515625,,
2.354685000000056,1200,,,,-0.0625,0.1484375,-0.953125,0.030017642950705338,0.8067420765191268,22.83712611010428,0.32146319324309,1585,0,7.341295483849268,4.981171594971777,67.85139769854347,0.1619582985925418,0.10989096928382006,0.10546875,,
2.366625,1200,,,,-0.0625,0.00390625,-1,0.030017642950705338,0.8067420765191268,22.83720748011874,0.3228772234388405,1585,0,7.373614142277458,4.981978281543275,67.56494421071662,0.16193207415372776,0.10940931556122242,0.10546875,,
2.3747099999999626,1200,,,,-0.0625,0.091796875,-0.92578125,0.030017642950705338,0.8067420765191268,22.837151820794727,0.3226111374497135,1585,0,7.367519525018382,4.982111937117503,67.62264993257784,0.16192772998711125,0.10949982199295413,0.103515625,,
2.3821649999998042,1200,,,,0,0.0390625,-1.01953125,0.030017642950705338,0.8067420765191268,22.837160598423935,0.32506882155710287,1585,0,7.423648883439971,4.983497378531517,67.13002536593923,0.16188271313124455,0.10867190638807511,0.103515625,,
2.3893199999998322,1200,,,,-0.03125,0.072265625,-1.005859375,0.030017642950705338,0.8067420765191268,22.837110302407478,0.3275460938755062,1586,0,7.4802062749576494,4.984018203768653,66.62942197803056,0.16186579653924835,0.10785024461423617,0.103515625,,
2.3971000000000933,1200,,,,-0.125,0.046875,-0.953125,0.030017642950705338,0.8067420765191268,22.837250907081653,0.330522556097183,1586,0,7.54822654404134,4.984259750387792,66.03219605699866,0.16185795221775104,0.10687836034226855,0.103515625,,
2.404774999999907,1200,,,,0.0625,-0.0703125,-0.97265625,0.030017642950705338,0.8067420765191268,22.837190925519824,0.3292544609386473,1586,0,7.519246987534998,4.984354958113405,66.2879536524894,0.1618548605182969,0.10729027492467003,0.103515625,,
2.412614999999991,1200,,,,-0.0625,0.072265625,-0.962890625,0.030017642950705338,0.8067420765191268,22.837066759911096,0.32823111897401247,1588,0,7.495835976689844,4.992912008747066,66.60914171913261,0.16157746723871722,0.1076253641392222,0.103515625,,
2.4199499999999534,1200,,,,-0.0625,0.09765625,-0.96875,0.030017642950705338,0.8067420765191268,22.837194459369428,0.3271792821815532,1589,0,7.471856890257033,4.996065722454418,66.86511526966027,0.16147547316947594,0.10797076126699942,0.103515625,,
2.4275299999997952,1200,,,,0,0.02734375,-0.95703125,0.030017642950705338,0.8067420765191268,22.83714215750574,0.3255984475354114,1590,0,7.435738032629364,4.997434929868304,67.20832428386605,0.16143123179002286,0.10849522575687802,0.103515625,,
2.4355,1200,,,,-0.125,0.01953125,-0.9453125,0.030017642950705338,0.8322978774200157,22.83695425620832,0.3249649192681604,1590,0,7.421208996199408,4.997165099161463,67.33626693063947,0.16655400830356343,0.11215125161496689,0.103515625,,
2.443144999999786,1200,,,,-0.0625,-0.005859375,-0.990234375,0.030017642950705338,0.8322978774200157,22.837005322475214,0.32331249865404976,1590,0,7.383489252585295,4.99705982727836,67.67883931744957,0.16655751705765057,0.11272419434058097,0.103515625,,
2.4512349999998695,1200,,,,0,0.00390625,-0.96875,0.030017642950705338,0.8322978774200157,22.83708701021197,0.32364774911034044,1590,0,7.391171807092099,4.997017923033548,67.60792542041476,0.1665589137840737,0.11260702621218945,0.103515625,,
2.459604999999981,1200,,,,0,0.1171875,-0.951171875,0.030017642950705338,0.8322978774200157,22.837327124126475,0.32460062652636645,1589,0,7.413010692679037,4.995510730215455,67.38841932534828,0.166609166183118,0.11227528354194591,0.103515625,,
2.467875,1200,,,,-0.0625,0.0078125,-1,0.030017642950705338,0.8322978774200157,22.83745791131021,0.3246586501549277,1588,0,7.414378258455947,4.9919288148620415,67.32767928543232,0.16672871514956034,0.112254574612618,0.103515625,,
2.4747299999999814,1200,,,,-0.125,-0.03515625,-0.96484375,0.030487596694634876,0.8322978774200157,22.83732195427456,0.32471360084237655,1588,0,7.415589045369153,5.0686477818247555,68.3512496554808,0.16420511214144407,0.11223624614686066,0.103515625,,
2.482385000000009,1200,,,,-0.03125,0.064453125,-0.955078125,0.030487596694634876,0.8322978774200157,22.837264305806134,0.32324574911347864,1587,0,7.38204860823281,5.068112458752128,68.65455279039926,0.16422245642610392,0.11274619304074993,0.103515625,,
2.490929999999935,1200,,,,-0.0625,0.1171875,-0.9765625,0.030487596694634876,0.8322978774200157,22.837134981418092,0.32445133566894085,1587,0,7.409538947572993,5.067863293136964,68.39647283043098,0.1642305305565633,0.11232789021139247,0.103515625,,
2.499584999999963,1200,,,,-0.0625,0.09375,-1.056640625,0.030487596694634876,0.8322978774200157,22.837073227170617,0.3235785965935927,1587,0,7.389588105152978,5.067761613725201,68.57975764834987,0.16423382567283223,0.11263115962304175,0.103515625,,
2.5107399999997577,1200,,,,-0.03125,0.037109375,-0.9375,0.030487596694634876,0.8322978774200157,22.83712418120428,0.3246530985842748,1587,0,7.4141431281818395,5.067724742131791,68.35212990249545,0.16423502060017195,0.11225813462601969,0.103515625,,
2.518714999999851,1200,,,,0,-0.03515625,-0.974609375,0.030487596694634876,0.8322978774200157,22.837178816434992,0.3253996763688577,1586,0,7.431210596045679,5.06363554935398,68.14011639030198,0.16436765033893497,0.11200030824895486,0.103515625,,
2.5266149999999907,1200,,,,-0.09375,0.130859375,-0.9765625,0.030487596694634876,0.8322978774200157,22.837122609925643,0.32593572734307324,1586,0,7.443434168289058,5.062483942841301,68.01274557392854,0.16440504045389454,0.1118163818746216,0.103515625,,
2.534540000000037,1200,,,,0,0.015625,-0.953125,0.030487596694634876,0.8322978774200157,22.837066978781184,0.32571358089090197,1586,0,7.438342862704191,5.062010223323264,68.05292948654133,0.16442042601676202,0.11189291657865792,0.103515625,,
2.5432599999997767,1200,,,,-0.03125,0.001953125,-0.958984375,0.030487596694634876,0.8322978774200157,22.837009052633533,0.3250107790692169,1586,0,7.422274103807183,5.062134007939645,68.20192756480218,0.16441640543585134,0.1121351577400108,0.103515625,,
2.5512749999999067,1200,,,,-0.03125,0.013671875,-0.93359375,0.030487596694634876,0.8322978774200157,22.83695979831353,0.32526080697745874,1586,0,7.427967972911242,5.062327667401173,68.15225490824372,0.16441011568247402,0.11204920113485806,0.103515625,,
2.559375,1200,,,,-0.0625,0.07421875,-0.96484375,0.030487596694634876,0.8322978774200157,22.83697831306325,0.324642084083924,1586,0,7.4138442337322275,5.0624048110665045,68.28312885281679,0.1644076103121185,0.11226266039326077,0.103515625,,
2.5673549999999814,1200,,,,-0.03125,-0.015625,-1.017578125,0.030487596694634876,0.8322978774200157,22.836833475410867,0.32617414695169916,1586,0,7.4487846779201465,5.062434736864371,67.96323099351433,0.1644066384420264,0.11173606345302631,0.103515625,,
2.5753899999998975,1200,,,,-0.125,0.11328125,-0.94921875,0.030487596694634876,0.8322978774200157,22.836792322686822,0.32658386788486765,1585,0,7.458127966826513,5.06108094123525,67.85993702101595,0.1644506158039982,0.11159608431526609,0.103515625,,
2.5857350000001023,1200,,,,0,0.05078125,-0.984375,0.030487596694634876,0.8446746886164788,22.83696778535617,0.3260652080799061,1585,0,7.4463406528462714,5.0605219047381516,67.95984955111918,0.16691454053891405,0.11343487062918782,0.103515625,,
2.5944200000001585,1200,,,,-0.03125,-0.046875,-0.96875,0.030487596694634876,0.8446746886164788,22.837031097867104,0.3261146605099512,1585,0,7.4474906435361286,5.059805302666411,67.93973359413278,0.16693818004644428,0.11341735479044797,0.103515625,,
2.602880000000121,1200,,,,-0.0625,0.09375,-0.98828125,0.030487596694634876,0.8446746886164788,22.83698033619138,0.325671007145822,1584,0,7.43734238625678,5.058687327023462,68.01740546961027,0.16697507357377758,0.11357211282585636,0.103515625,,
2.6116899999999443,1200,,,,-0.0625,0.048828125,-0.97265625,0.030487596694634876,0.8446746886164788,22.83707248904448,0.3252033228805245,1584,0,7.426691858300676,5.058224153694765,68.1087117952966,0.1669903632086942,0.11373498520372856,0.103515625,,
2.6203949999997858,1200,,,,0,0.029296875,-0.9609375,0.030487596694634876,0.8446746886164788,22.837159937943003,0.3254735500013652,1584,0,7.4328915169512655,5.058056854934771,68.04965259346909,0.16699588653148342,0.1136401206300583,0.103515625,,
2.6284549999998417,1200,,,,-0.0625,0.0546875,-0.8984375,0.030982655993656592,0.8446746886164788,22.83720139928462,0.3231375709399817,1584,0,7.379557787231983,5.140132037072761,69.65365927435587,0.16432937569002803,0.1144614234308083,0.1015625,,
2.6367849999999162,1200,,,,-0.09375,0.05859375,-1.017578125,0.030982655993656592,0.8446746886164788,22.837336995167405,0.3230556750631045,1584,0,7.377731319617417,5.140109520795765,69.67059788594081,0.1643300955357291,0.11448976006628019,0.1015625,,
2.6456450000000187,1200,,,,0,0.03515625,-1,0.030982655993656592,0.8446746886164788,22.837262817702637,0.3227255182843111,1584,0,7.370167479038111,5.1400999081670395,69.74196886008728,0.16433040285352934,0.11460725838576441,0.103515625,,
2.6535149999998975,1200,,,,-0.0625,0.10546875,-0.953125,0.030982655993656592,0.8446746886164788,22.83720105796661,0.32245063016669073,1585,0,7.3638698723847495,5.141475999644637,69.82029949939349,0.1642864206066235,0.1147052709043778,0.103515625,,
2.6639199999999255,1200,,,,-0.0625,-0.078125,-0.87890625,0.030982655993656592,0.8446746886164788,22.837077605714505,0.3230356858431225,1585,0,7.377191027014598,5.142018338532752,69.70157502636371,0.16426909299150852,0.11449814509660348,0.103515625,,
2.6726350000000094,1200,,,,-0.0625,0.029296875,-1.009765625,0.030982655993656592,0.8446746886164788,22.837001858980454,0.3229239733696278,1585,0,7.374615380151544,5.142273107985321,69.729373572831,0.1642609544220439,0.11453813454324463,0.103515625,,
2.6889499999999535,1200,,,,0.03125,0.0234375,-1.00390625,0.030982655993656592,0.8446746886164788,22.83716437872905,0.32260552035993206,1585,0,7.3673952979451895,5.143004138088958,69.80763119257864,0.16423760625834216,0.11465038245634296,0.1015625,,
2.6973299999998415,1200,,,,-0.0625,0.1171875,-0.91796875,0.030982655993656592,0.8446746886164788,22.837205596241322,0.3229759976702033,1585,0,7.375869261445591,5.143084332038361,69.72851808697015,0.16423504537047098,0.11451866331629251,0.1015625,,
2.706100000000093,1200,,,,-0.09375,0.052734375,-0.935546875,0.030982655993656592,0.8446746886164788,22.837211870149012,0.3222633038820303,1585,0,7.35959534872814,5.142655386472725,69.87687695847926,0.16424874410957355,0.11477189282729416,0.1015625,,
2.71472499999986,1200,,,,-0.0625,-0.015625,-0.98046875,0.030982655993656592,0.8446746886164788,22.837367939643066,0.3227034960071093,1585,0,7.369698473723492,5.1424742233366825,69.7786244806632,0.16425453039381763,0.11461455195597879,0.1015625,,
2.722819999999832,1200,,,,-0.03125,0.12109375,-0.958984375,0.030982655993656592,0.8446746886164788,22.8373662737362,0.3224313582021041,1585,0,7.363483025399689,5.142414698972307,69.836715603662,0.1642564316692086,0.11471129704554862,0.1015625,,
2.7306949999998325,1200,,,,-0.0625,0.0546875,-1.01953125,0.030982655993656592,0.8555018979857999,22.837496248412585,0.3223828213669764,1585,0,7.362416473520987,5.142622024764296,69.84964845794575,0.16635519660323675,0.11619852001888538,0.1015625,,
2.7389099999999162,1200,,,,-0.03125,0.00390625,-1,0.030982655993656592,0.8555018979857999,22.83783042887797,0.3224462305711302,1585,0,7.36397233621436,5.142941146640083,69.83922415553158,0.1663448741863797,0.11617396955426272,0.1015625,,
2.7468000000000465,1200,,,,0,0.00390625,-0.9609375,0.030982655993656592,0.8555018979857999,22.837745112430714,0.3217926002977322,1585,0,7.349017384665904,5.143056095053714,69.98290826995402,0.1663411563425433,0.11641037885838286,0.1015625,,
2.7547949999999255,1200,,,,-0.0625,0.064453125,-0.9765625,0.030982655993656592,0.8555018979857999,22.83805681167523,0.32220784260007274,1585,0,7.358601014467771,5.143570131086984,69.89875006097209,0.1663245326072783,0.11625876933724151,0.1015625,,
2.7639899999997577,1200,,,,-0.03125,0.08203125,-0.96875,0.030982655993656592,0.8555018979857999,22.83801762248766,0.32099120259096503,1586,0,7.330802741435965,5.144748925475229,70.17988489030698,0.16628642337619534,0.1166996205136224,0.1015625,,0.26859499999997205,4744,
2.7726649999998045,1200,,,,-0.03125,0.017578125,-0.96484375,0.030982655993656592,0.8555018979857999,22.837980130813147,0.31934985862728615,1586,0,7.293305726107949,5.145179009345382,70.54659714767081,0.16627252354717295,0.11729960735409017,0.1015625,,
2.7799599999999627,1500,,,,-0.0625,-0.0546875,-0.984375,0.031218415435305482,0.8555018979857999,22.837884637773733,0.3192416604707355,1586,0,7.290804213401988,5.184476616559184,71.10980441676182,0.1650122010876339,0.1173398534572102,0.1015625,,
2.788064999999944,1500,,,,-0.03125,0.0625,-1.02734375,0.031218415435305482,0.8555018979857999,22.837979653039234,0.3194380508670098,1585,0,7.295319706107282,5.180997101166724,71.01809529785855,0.16512302193590242,0.11726722507714307,0.1015625,,
2.796314999999944,1500,,,,0,0.08203125,-0.96875,0.031218415435305482,0.8555018979857999,22.83808937473669,0.3204895153223104,1584,0,7.319368194596969,5.179367212295047,70.76249034880315,0.16517498430212973,0.11688193232543169,0.1015625,,
2.8053400000000837,1500,,,,-0.375,0.015625,-1.2421875,0.031218415435305482,0.8555018979857999,22.821696130595043,0.796754297168266,1732,0,18.18328446071999,5.660906927411177,31.13247741154805,0.1511245298599238,0.04704881012194897,0.10546875,,
2.815465000000084,1500,,,,0,0.30859375,-1.00390625,0.031218415435305482,0.8555018979857999,22.80127582409625,1.3746719826385667,1928,0,31.34427504379921,6.301747477414376,20.10493931861104,0.13575629633715736,0.027293720999779274,0.109375,,
2.8242950000001583,1500,,,,0,0.2265625,-0.953125,0.031218415435305482,0.8555018979857999,22.778643270635612,1.965768451226778,2013,0,44.77753830316463,6.5801596089469445,14.695224119727667,0.13001233234868448,0.019105603621924382,0.115234375,,
2.832654999999795,1500,,,,-0.3125,-0.32421875,-1.18359375,0.031218415435305482,0.8555018979857999,22.765049303367363,2.357721540833386,2004,0,53.67364712068329,6.550225065192603,12.203800964865783,0.13060648900934288,0.015938955965899507,0.123046875,,
2.8412299999999813,1500,,,,0.03125,-0.3671875,-1.18359375,0.031218415435305482,0.8555018979857999,22.75460721035408,2.659310178005591,2000,0,60.51155855101402,6.5394601032603275,10.8069602896565,0.13082148747406214,0.014137826201659846,0.130859375,,
2.8487700000000187,1500,,,,0.25,-0.26953125,-1.265625,0.031218415435305482,0.8555018979857999,22.74557638153138,2.905955012158531,2252,0,66.09762169034582,7.360963850650476,11.136503345211308,0.11622145079685463,0.012943005755844828,0.134765625,,
2.856469999999972,1500,,,,-0.3125,-0.138671875,-0.916015625,0.031218415435305482,0.8555018979857999,22.738058358109715,3.10000031446843,2349,0,70.48798806054162,7.678211720923695,10.892936416810386,0.11141942018276131,0.012136846596486986,0.140625,,
2.864494999999879,1500,,,,-0.0625,0.24609375,-1.00390625,0.031218415435305482,0.8555018979857999,22.732178143403036,3.2566411053322954,2556,0,74.03054575554272,8.356769284495156,11.288271887242542,0.1023723246222756,0.011556066340653013,0.140625,,
2.87183499999973,1500,,,,-0.4375,-0.05078125,-1.158203125,0.031218415435305482,0.8555018979857999,22.728234643806037,3.370336357345418,2671,0,76.60179555829717,8.73168892377267,11.398804505995539,0.09797668073774739,0.011168170298759213,0.146484375,,
2.8798300000000747,1500,,,,0.03125,-0.0703125,-0.9375,0.031218415435305482,0.8687100447115458,22.72450272743059,3.470417786834705,2810,0,78.86351846224888,9.185646021471149,11.647522454718045,0.0945725583895748,0.01101535997442706,0.1484375,,
2.888809999999823,1500,,,,-0.0625,0.1015625,-1.1171875,0.031218415435305482,0.8687100447115458,22.72097463735433,3.5592020859077915,2925,0,80.86854032312957,9.562949610204605,11.825302610871367,0.09084122369363393,0.01074224959719079,0.1484375,,
2.897910000000149,1500,,,,-0.0625,0.0078125,-0.953125,0.031218415435305482,0.8687100447115458,22.71847861865724,3.6301847158948846,4405,0,82.47227384983424,14.401706135998225,17.462482193980602,0.06031993963132847,0.010533358717540584,0.1484375,,
2.906774999999907,1500,,,,-0.0625,0.125,-0.986328125,0.031218415435305482,0.8687100447115458,22.716592699523698,3.6759000997205087,5667,0,83.50392536948934,18.526122735579,22.18593036627243,0.04689108763396066,0.010403224050458291,0.1484375,,
2.914774999999907,1500,,,,-0.0625,0.013671875,-0.998046875,0.031218415435305482,0.8687100447115458,22.71528546155475,3.702510412589708,6214,0,84.10358094635407,20.31504387744607,24.15479061516314,0.04276190836466738,0.010329049428533337,0.150390625,,
2.92434999999986,1500,,,,0.125,0.1484375,-0.98046875,0.031218415435305482,0.8687100447115458,22.714597077071662,3.716752382148844,5287,0,84.42453279575727,17.283182136688847,20.47175336877601,0.05026331597046835,0.010289782080442884,0.15234375,,
2.932119999999879,1500,,,,-0.0625,-0.1640625,-0.970703125,0.031605979016458854,0.8687100447115458,22.714126227135967,3.729823515658034,4595,0,84.71968213959663,15.207526846894172,17.95040593027251,0.05712368970033824,0.01025393418355998,0.154296875,,
2.9402449999998788,1500,,,,0.375,0.2421875,-0.63671875,0.031605979016458854,0.8687100447115458,22.714030174616816,3.7347674385719123,3883,0,84.83162029489877,12.853143198320057,15.151358837234142,0.06758736219674957,0.010240403775050663,0.15625,,
2.9470249999999067,1500,,,,-0.1875,-0.103515625,-1.1640625,0.031605979016458854,0.8687100447115458,22.713744447522004,3.733855710166666,3614,0,84.80984440464644,11.96003439773332,14.102177031087763,0.07263441022177869,0.010243033114961735,0.158203125,,
2.955114999999991,1500,,,,-0.1875,0.390625,-1.212890625,0.031605979016458854,0.8687100447115458,22.714050737208527,3.731047066906999,3509,0,84.74719238063864,11.615103579670897,13.705591009436777,0.0747914160862059,0.010250605598941488,0.1640625,,
2.962674999999814,1500,,,,-0.125,-0.15625,-1.06640625,0.031605979016458854,0.8687100447115458,22.71422359219745,3.716983964136779,3477,0,84.42840485001521,11.50889089173754,13.631538949696816,0.07548164743965119,0.010289310170608882,0.166015625,,
2.9739949999998787,1500,,,,0.09375,-0.111328125,-0.814453125,0.031605979016458854,0.8687100447115458,22.71480263288567,3.6951486344848044,3505,0,83.93457193149933,11.601257991350712,13.821787285480802,0.07488067633348128,0.010349847800743146,0.16796875,,
2.991030000000028,1500,,,,-0.09375,0.189453125,-0.900390625,0.031605979016458854,0.8687100447115458,22.71639006898905,3.6378940947142473,3539,0,82.63982128520064,11.713640762347875,14.174329736172343,0.07416225769053054,0.01051200294484563,0.169921875,,
2.9988949999997856,1500,,,,-0.125,0.00390625,-1.0390625,0.031605979016458854,0.8687100447115458,22.71689348531644,3.6134217793556433,3554,0,82.08571767914475,11.761733442554508,14.328599146234636,0.07385901482586842,0.010582962167756695,0.171875,,
3.0067099999999627,1500,,,,-0.09375,-0.0390625,-0.83203125,0.031605979016458854,0.8687100447115458,22.717543676387837,3.589096758661367,3585,0,81.53546237367162,11.865410823873672,14.552454206361498,0.07321365080454417,0.010654383006136707,0.171875,,
3.014739999999991,1500,,,,0.1875,-0.068359375,-1.197265625,0.031605979016458854,0.8687100447115458,22.718345884244695,3.5628911254442266,3597,0,80.9429929357478,11.905597630770071,14.708620473449363,0.07296652143411606,0.010732368710422213,0.1796875,,
3.022934999999823,1500,,,,-0.375,0.0859375,-0.98046875,0.031605979016458854,0.8687100447115458,22.719078779953065,3.536401011714697,3602,0,80.34377318265192,11.921537503178016,14.83815986097122,0.0728689604407122,0.010812412839220756,0.18359375,,
3.0336549999997953,1500,,,,0,0.2890625,-0.986328125,0.031605979016458854,1.9591557896176317,22.7199069585401,3.5076971680407696,3602,0,79.69455329662088,11.92137300387359,14.958830322446975,0.1643397777236772,0.024583308501971383,0.1875,,
3.0413949999997856,1500,,,,-0.28125,0.048828125,-0.775390625,0.031605979016458854,1.9591557896176317,22.720909444489017,3.47784466490832,3611,0,79.01979369338119,11.952370242562726,15.125792771544369,0.16391357947070806,0.02479322835516,0.19140625,,
3.048790000000037,1500,,,,0.3125,-0.171875,-1.080078125,0.031605979016458854,1.9591557896176317,22.72152288574931,3.457883615926938,3621,0,78.56838171554149,11.986038101374847,15.25554916578345,0.16345315883760697,0.024935677009497247,0.197265625,,
3.0581999999999536,1500,,,,-0.25,0.05078125,-0.85546875,0.031605979016458854,1.9591557896176317,22.722520532771384,3.429441669816764,3635,0,77.9255587583532,12.03006380328222,15.437892258928027,0.1628549791301278,0.025141376216408853,0.197265625,,
3.0666999999999534,1500,,,,0.125,0.203125,-1.09765625,0.031605979016458854,1.9591557896176317,22.723802929040758,3.401033589347072,3644,0,77.284417039371,12.06131617478931,15.606401182588872,0.16243300160828883,0.025349945883910586,0.203125,,
3.0749749999998603,1500,,,,-0.375,0.12890625,-0.962890625,0.031605979016458854,1.9591557896176317,22.724788091254524,3.376061316228991,3646,0,76.72027799438565,12.065796616902697,15.72699804057757,0.16237268469063165,0.02553634893972884,0.208984375,,
3.0837900000000373,1500,,,,0.21875,-0.140625,-1.064453125,0.06046873758124972,1.9591557896176317,22.725708387232743,3.3499082624604593,3639,0,76.12903829665792,23.044104284744968,30.269795600132525,0.08501765854768237,0.025734671466402053,0.212890625,,
3.0919749999998603,1500,,,,-0.1875,0.2734375,-0.849609375,0.06046873758124972,1.9591557896176317,22.726402541606657,3.326562170107819,3653,0,75.6007909575509,23.13030316036615,30.595319000503036,0.0847008262725519,0.02591448799414914,0.21875,,
3.099975000000093,1500,,,,0.25,-0.26953125,-1.03125,0.06046873758124972,1.9591557896176317,22.726943605775578,3.305967182175543,3659,0,75.13452971184836,23.169760313916832,30.837699261279962,0.08455658423194269,0.02607530515105736,0.220703125,,
3.1094399999999442,1500,,,,-0.28125,0.068359375,-0.841796875,0.06046873758124972,1.9591557896176317,22.727441933627272,3.283724867224285,3660,0,74.63066624584786,23.17334290575564,31.050698153247303,0.08454351180946922,0.026251350660113273,0.224609375,,
3.118339999999851,1500,,,,0.125,-0.30859375,-1.1328125,0.06046873758124972,1.9591557896176317,22.728205565159495,3.2624905307008993,3658,0,74.15055543615634,23.161928951408274,31.236352600690502,0.08458517396058729,0.026421323186236495,0.23046875,,
3.1282949999999254,1500,,,,-0.125,0.34765625,-1.087890625,0.06046873758124972,1.9591557896176317,22.728856425472706,3.2437550990492876,3663,0,73.72684392568625,23.19664265830285,31.462953550112832,0.08445859249878925,0.026573167726973143,0.234375,,
3.13622499999986,1500,,,,0.4375,-0.38671875,-1.03515625,0.06046873758124972,1.9591557896176317,22.729582133451277,3.2202030577638525,3667,0,73.19386988783444,23.223098440497704,31.72820138638088,0.08436237716674141,0.02676666492180192,0.23828125,,
3.1455849999999628,1500,,,,-0.375,0.158203125,-0.806640625,0.06046873758124972,1.9591557896176317,22.730296181452882,3.202831221261544,3671,0,72.80130227847934,23.248029250052976,31.933534871566827,0.08427190832156956,0.026910999230803243,0.244140625,,
3.1545699999998322,1500,,,,0.15625,-0.423828125,-1.02734375,0.06046873758124972,1.9591557896176317,22.731046459869038,3.1814032298123336,3674,0,72.31662462444157,23.265946234181566,32.17233430764707,0.08420701096348725,0.027091361077650134,0.25,,
3.163244999999879,1500,,,,0.0625,0.064453125,-1.166015625,0.06046873758124972,1.9591557896176317,22.731893648514344,3.16807977580881,3675,0,72.01645253369504,23.2713022264128,32.31386913361864,0.08418763035074163,0.02720428069823326,0.25390625,,
3.1826699999999253,1500,,,,0.28125,-0.107421875,-1.044921875,0.06046873758124972,3.7720545559395986,22.732300793529824,3.14706032463959,3690,0,71.53992191509077,23.363584760398652,32.65810771799332,0.1614501624910422,0.05272656797719979,0.26171875,,
3.1907199999999722,1500,,,,-0.21875,0.203125,-0.80859375,0.06046873758124972,3.7720545559395986,22.732879513924807,3.131706611766575,3691,0,71.19270907825124,23.37166700844202,32.82873669374363,0.16139433077568255,0.05298371988897848,0.265625,,
3.1977700000000184,1500,,,,0.5625,-0.484375,-0.765625,0.06046873758124972,3.7720545559395986,22.733361678416657,3.1175974187329794,3677,0,70.873469687755,23.280817886572564,32.84842408469647,0.16202414255021375,0.053222377464487346,0.26953125,,
3.205875,1500,,,,-0.21875,0.193359375,-0.95703125,0.06046873758124972,3.7720545559395986,22.733686926584454,3.105422235373006,3683,0,70.59769687382398,23.320737485274897,33.033283687646325,0.16174679545710494,0.05343027779902252,0.26953125,,
3.2140749999999536,1500,,,,0.3125,0.05859375,-1.375,0.06046873758124972,3.7720545559395986,22.734063604114386,3.0889776372646227,3682,0,70.22501407726091,23.3170977271424,33.20340769385841,0.1617720438486955,0.053713831253769766,0.271484375,,
3.221979999999981,1500,,,,-0.40625,0.169921875,-0.92578125,0.06046873758124972,3.7720545559395986,22.73473839735356,3.072032362154426,3679,0,69.841852101785,23.29640728450715,33.35594143545307,0.16191571987360193,0.0540085126958309,0.2734375,,
3.237495000000112,1500,,,,-0.125,-0.005859375,-0.734375,0.10408491398661349,3.7720545559395986,22.735737596282533,3.0461794300146448,3691,0,69.25713619200646,40.22967730094984,58.087410933969686,0.093762983175869,0.0544644893413159,0.27734375,,
3.2568649999999906,1500,,,,-0.25,0.302734375,-0.818359375,0.10408491398661349,3.7720545559395986,22.73681963489981,3.0229760930767093,3683,0,68.73286218889923,40.147188582390314,58.41047106703251,0.09395563398414722,0.05487992840415728,0.28515625,,
3.265370000000112,1500,,,,0.0625,-0.064453125,-1.158203125,0.10408491398661349,3.7720545559395986,22.737126294514105,3.010320020253746,3677,0,68.44602648741368,40.0820063993459,58.56001941429931,0.09410842656821579,0.055109912868838776,0.287109375,,
3.272989999999758,1500,,,,-0.5,0.0703125,-0.44921875,0.10408491398661349,3.7720545559395986,22.73742579463763,3.0001944027951617,3681,0,68.21669760304215,40.125873451772684,58.82119020957012,0.09400554384126326,0.055295179750410296,0.2890625,,
3.295689999999944,1500,,,,-0.041015625,0.0859375,-1.033203125,0.10408491398661349,3.7720545559395986,22.738314087577205,2.9761245061093207,3683,0,67.67205378364932,40.13994076219266,59.31538725058043,0.09397259897036153,0.0557402109887049,0.291015625,,
3.3026999999999536,1500,,,,-0.34375,0.09375,-0.892578125,0.10408491398661349,3.7720545559395986,22.738300750413114,2.967923033094093,3684,0,67.48552653057178,40.15852310150985,59.50686786642695,0.0939291155305903,0.0558942746668919,0.294921875,,
3.317839999999851,1500,,,,-0.1875,-0.0703125,-1.12109375,0.10408491398661349,3.7720545559395986,22.73839485185853,2.9522316500257038,3686,0,67.12900895243827,40.1762548932549,59.84931927375878,0.0938876599115982,0.05619112533915324,0.296875,,
3.3261649999998046,1500,,,,0.09375,-0.0625,-0.908203125,0.10408491398661349,3.7720545559395986,22.738570179621956,2.94407340044064,3678,0,66.94401962987774,40.091272226047195,59.887757633475125,0.09408667638860571,0.05634640072100026,0.30078125,,
3.3342299999997485,1500,,,,-0.28125,0.1953125,-0.982421875,0.10408491398661349,4.617621859874242,22.73903523276106,2.9397387127794374,3692,0,66.84682216500327,40.241994961633544,60.20031118652292,0.11474634555957407,0.06907765710202651,0.302734375,,
3.3419199999999254,1500,,,,-0.0625,0.203125,-0.99609375,0.10408491398661349,4.617621859874242,22.739082450095378,2.9329918333074674,3690,0,66.6935431230349,40.21728805535509,60.301621674474625,0.114816838308902,0.06923641545562732,0.3046875,,
3.3500900000000837,1500,,,,-0.15625,0.078125,-0.904296875,0.10408491398661349,4.617621859874242,22.739321926287438,2.9260822056960847,3681,0,66.53712525810448,40.124097393428826,60.30332275069482,0.11508350741443658,0.06939917890894749,0.30859375,,
3.358030000000028,1500,,,,0.1875,-0.0703125,-0.9140625,0.10408491398661349,4.617621859874242,22.739224017305197,2.9184657978915096,3678,0,66.36364756509839,40.086874528808345,60.40486923128472,0.11519036877159873,0.06958059162351884,0.310546875,,
3.3670749999999536,1500,,,,0.03125,-0.091796875,-1.044921875,0.10408491398661349,4.617621859874242,22.739341608268923,2.9153598012048443,3685,0,66.29336243061194,40.16926422773995,60.59319176906194,0.11495410604721558,0.06965436192360017,0.3125,,
3.3746450000000188,1500,,,,0.125,0.0234375,-1.0390625,0.11955440197306906,4.617621859874242,22.73965831164736,2.911304566960637,3688,0,66.20207109382336,46.17667929924304,69.75110980108191,0.09999900230915774,0.06975041390064705,0.314453125,,
3.381834999999963,1500,,,,-0.53125,0.30859375,-1,0.11955440197306906,4.617621859874242,22.73984972612068,2.9091615035530682,3690,0,66.15389541981207,46.203235788547246,69.84204859795767,0.09994152532967933,0.06980120869029482,0.318359375,,
3.3902749999999067,1500,,,,0.375,-0.16015625,-0.95703125,0.11955440197306906,4.617621859874242,22.739954375173983,2.9049993782487946,3679,0,66.05955332128637,46.062454264279665,69.72867957530823,0.10024697844758777,0.0699008943856468,0.3203125,,
3.3992399999999905,1500,,,,-0.15625,0.12109375,-0.84375,0.11955440197306906,4.617621859874242,22.739810567175443,2.9050588260291996,3678,0,66.06048739040509,46.050380826098966,69.70941730107114,0.10027326109010619,0.06989990601469473,0.322265625,,
3.4070449999999255,1500,,,,0.25,0.01171875,-0.84375,0.11955440197306906,4.617621859874242,22.740082566204187,2.8974136525060823,3685,0,65.88742568643556,46.13594056869022,70.0223754199405,0.10008730293466593,0.0700835070086049,0.32421875,,
3.4150749999999532,1500,,,,0.03125,-0.095703125,-0.984375,0.11955440197306906,4.617621859874242,22.74027487350652,2.89251432337641,3685,0,65.7765707891343,46.14063774379943,70.14752698451932,0.10007711392100939,0.0702016204930682,0.32421875,,
3.423040000000037,1500,,,,0,0.0703125,-1.146484375,0.11955440197306906,4.617621859874242,22.74045872775607,2.887190671736513,3684,0,65.6560403097865,46.12805448283238,70.25713744719488,0.10010441393301762,0.0703304956876291,0.326171875,,
3.43114000000013,1500,,,,-0.125,0,-1.14453125,0.11955440197306906,4.617621859874242,22.740502064656482,2.8840481917876932,3683,0,65.58470385991683,46.10863347803676,70.3039440057864,0.10014657801719032,0.07040699413291668,0.326171875,,
3.441159999999916,1500,,,,-0.15625,0.056640625,-0.935546875,0.11955440197306906,4.617621859874242,22.740575600883915,2.879804753973868,3697,0,65.48841772352765,46.28455552810016,70.67594108549025,0.09976593287302506,0.07051051194072895,0.33203125,,
3.4485999999998604,1500,,,,-0.25,0.05078125,-0.998046875,0.11955440197306906,4.617621859874242,22.74029985862038,2.8749780384762866,3693,0,65.37786268189899,46.23861662622196,70.72518851097887,0.0998650521316761,0.07062974637671525,0.333984375,,
3.4568599999998697,1500,,,,0.4375,-0.095703125,-1.02734375,0.11955440197306906,4.617621859874242,22.740286207091632,2.8750111269820784,3683,0,65.37857587614553,46.114041722496474,70.53387306853521,0.10013483284900532,0.07062897589910731,0.3359375,,
3.4650449999999253,1500,,,,-0.625,0.51171875,-0.5546875,0.11955440197306906,4.617621859874242,22.740341014414035,2.8750471562667865,3678,0,65.37955276602804,46.05333659291994,70.4399688351031,0.10026682541356052,0.07062792057325926,0.341796875,,
3.4735649999999443,1500,,,,0.21875,-0.044921875,-1.060546875,0.11955440197306906,4.617621859874242,22.740324058490323,2.8809389503993925,3693,0,65.51348532480917,46.23534407728693,70.57378163908822,0.09987212060443267,0.07048353231369914,0.34375,,
3.4875600000000557,1500,,,,0,0.0234375,-1.0390625,0.11955440197306906,4.9982201504837365,22.74007828900886,2.8830064865105682,3692,0,65.55979321097068,46.226333338857735,70.51018783738672,0.10812495366752885,0.07623910793006196,0.341796875,,
3.495814999999944,1500,,,,-0.166015625,-0.05859375,-0.998046875,0.11955440197306906,4.9982201504837365,22.74031453330883,2.8778206264134374,3689,0,65.44254621508541,46.185485268500734,70.57409581330492,0.10822058318596049,0.07637569806737711,0.345703125,,
3.502875,1500,,,,-0.25,0.17578125,-1.02734375,0.11955440197306906,4.9982201504837365,22.740694028518828,2.873858826917265,3687,0,65.35354426408358,46.156878556334576,70.62643514760539,0.10828765520578688,0.0764797105767776,0.34765625,,
3.5113300000000747,1500,,,,0.4375,-0.3125,-1.2734375,0.11955440197306906,4.9982201504837365,22.740920323948107,2.8703520239697604,3684,0,65.27444667877951,46.12022256463763,70.65586138416268,0.10837372138607344,0.07657238635940272,0.349609375,,
3.5202849999999164,1500,,,,-0.09375,0.21484375,-0.66796875,0.11955440197306906,4.9982201504837365,22.741015927069107,2.86969497859342,3683,0,65.25977921402321,46.104798094619426,70.64810615343346,0.10840997807269531,0.07658959638971172,0.3515625,,
3.5288149999999443,1500,,,,0.03125,-0.037109375,-0.984375,0.12476606812340804,4.9982201504837365,22.741294729764967,2.866390542820191,3685,0,65.18543214488496,48.15162557624619,73.86869119655688,0.10380169081870877,0.07667695044767671,0.3515625,,
3.5372249999998604,1500,,,,0.0625,0.0390625,-1.0625,0.12476606812340804,4.9982201504837365,22.74142706799846,2.86557297842134,3688,0,65.16721889679603,48.18386684704028,73.93881105061129,0.10373223399339432,0.0766983804909538,0.3515625,,
3.545434999999823,1500,,,,-0.46875,0.146484375,-0.92578125,0.12476606812340804,4.9982201504837365,22.741552551350757,2.864585089281703,3688,0,65.14511234571565,48.18658297475688,73.9680710335377,0.10372638693019827,0.07672440756505121,0.353515625,,
3.553260000000009,1500,,,,0.25,-0.0078125,-0.96875,0.12476606812340804,4.9982201504837365,22.741673672714985,2.8611654872417502,3691,0,65.06769183448645,48.228066725792544,74.11983638281025,0.1036371658623975,0.07681569776899072,0.353515625,,
3.5612350000001025,1500,,,,-0.125,0.130859375,-0.84765625,0.12476606812340804,4.9982201504837365,22.74159302172969,2.8557394841596877,3692,0,64.9440651248439,48.244116284158565,74.28564287039542,0.10360268848213831,0.07696192316996957,0.353515625,,
3.5693449999999722,1500,,,,0.25,0.02734375,-0.796875,0.12476606812340804,4.9982201504837365,22.741910543801744,2.8514621280424635,3688,0,64.84769663498025,48.17991053232959,74.29702677572098,0.10374075201177138,0.07707629429952008,0.35546875,,
3.5772449999998788,1500,,,,0.0625,-0.119140625,-0.9765625,0.12476606812340804,4.9982201504837365,22.741817212544838,2.8513739137898657,3685,0,64.8454243520277,48.148297425337745,74.25087877280913,0.10380886589467343,0.07707899517088199,0.35546875,,
3.5862999999998135,1500,,,,0.03125,0.087890625,-1.03515625,0.12476606812340804,4.9982201504837365,22.741530974639925,2.8469633516031387,3686,0,64.74430524414747,48.162576892816496,74.38890063179745,0.10377808815352707,0.07719937887410644,0.35546875,,
3.597790000000037,1500,,,,-0.125,0.08203125,-1.03125,0.12476606812340804,4.9982201504837365,22.741556828409024,2.846753342182207,3689,0,64.73960290769999,48.20044975537227,74.45280414229944,0.10369654590052142,0.07720498622164484,0.353515625,,
3.6063249999999534,1500,,,,-0.103515625,0.009765625,-0.931640625,0.12476606812340804,4.9982201504837365,22.741733147594733,2.842738323429415,3688,0,64.6487963598726,48.17980269076949,74.52544425200561,0.10374098421622051,0.07731342935854135,0.357421875,,
3.6154550000000745,1500,,,,-0.25,0.201171875,-1.0390625,0.12476606812340804,4.9982201504837365,22.74171090460994,2.8393833833342197,3684,0,64.57243605114009,48.13191483376111,74.5394130641774,0.10384419917110468,0.0774048565633368,0.357421875,,
3.6234850000001027,1500,,,,0.8125,-0.47265625,-1.03515625,0.12476606812340804,4.9982201504837365,22.741691706423765,2.8414488977969166,3683,0,64.61935483325509,48.12331563257662,74.47198406229042,0.10386275519013155,0.0773486544918505,0.361328125,,
3.6326399999998977,1500,,,,-0.375,0.26953125,-0.89453125,0.12476606812340804,5.159501295106763,22.741814955552684,2.8411920374461284,3683,0,64.61386356878957,48.122549350547835,74.47712718697798,0.10721587623137897,0.079851304505477,0.365234375,,
3.6404749999998605,1500,,,,0.3125,-0.23828125,-1.009765625,0.12476606812340804,5.159501295106763,22.741856289119795,2.841391951520048,3683,0,64.61852742253056,48.12228143908139,74.47133718231805,0.10721647313497057,0.07984554122333339,0.3671875,,
3.6482649999998977,1500,,,,-0.5625,0.48828125,-0.6015625,0.12476606812340804,5.159501295106763,22.741896420244075,2.8409424337600937,3689,0,64.60841856444816,48.19273083248915,74.59202980555229,0.10705974129252877,0.07985803413467023,0.369140625,,
3.6565399999998043,1500,,,,0.21875,-0.189453125,-1.072265625,0.12476606812340804,5.159501295106763,22.741802874505723,2.841694201819631,3690,0,64.62524936740793,48.20689619231095,74.59452251896896,0.10702828231305439,0.07983723615167702,0.37109375,,
3.6653300000000746,1500,,,,-0.34375,0.244140625,-1.001953125,0.12476606812340804,5.159501295106763,22.74199636911444,2.8389233726516903,3690,0,64.56278503303886,48.20565553901783,74.66477091152348,0.10703103686517952,0.07991447847961451,0.373046875,,
3.6743900000001304,1500,,,,0.375,-0.02734375,-1.3671875,0.12476606812340804,5.159501295106763,22.74203347316907,2.8378382654316763,3680,0,64.53821282388724,48.07763599373653,74.49483629943619,0.10731603558417335,0.07994490503147463,0.373046875,,
3.6825049999998885,1500,,,,-0.0625,0.10546875,-0.87890625,0.1267734572290536,5.159501295106763,22.742327567847678,2.830395194336295,3676,0,64.3697746560579,48.80734024987931,75.82338218623235,0.10571158495200979,0.08015409907328606,0.375,,
3.690624999999767,1500,,,,-0.3125,-0.2265625,-1.03125,0.1267734572290536,5.159501295106763,22.74214789530699,2.8298492672840307,3683,0,64.35685055799955,48.892206331358814,75.97047696934187,0.10552809296719194,0.08017019556382624,0.375,,
3.7006899999999443,1500,,,,-0.03125,0.015625,-1.169921875,0.1267734572290536,5.159501295106763,22.742358833234896,2.824166762572409,3694,0,64.22821391931703,49.035384297146194,76.34555175198247,0.1052199624630461,0.0803307608956414,0.37890625,,
3.7099099999999163,1500,,,,-0.25,0.17578125,-0.84375,0.1267734572290536,5.159501295106763,22.742465785988497,2.824130967234487,3682,0,64.22770189748093,48.881049317084695,76.10586689697807,0.10555217957040533,0.08033140129071197,0.37890625,,
3.7168649999999905,1500,,,,0.125,-0.169921875,-1.119140625,0.1267734572290536,5.159501295106763,22.7425338724004,2.8205524668263537,3679,0,64.14651001568086,48.84178404353451,76.14098418073712,0.10563703591391965,0.08043307880421714,0.37890625,,
3.7234199999999253,1500,,,,-0.3125,0.21484375,-0.66015625,0.1267734572290536,5.159501295106763,22.742596876044985,2.820963555310926,3682,0,64.15603694045102,48.87729051471937,76.18502146584704,0.10556029683259513,0.08042113480132446,0.37890625,,
3.7307549999998884,1500,,,,-0.1875,0.40625,-1,0.1267734572290536,5.159501295106763,22.742769694272173,2.8203396488589654,3687,0,64.1423350936239,48.94436055622208,76.30586021662847,0.10541564414106659,0.08043831406474077,0.37890625,,
3.739534999999916,1500,,,,0.09375,-0.177734375,-0.951171875,0.1267734572290536,5.159501295106763,22.74303172095399,2.820829908967692,3684,0,64.15422409906797,48.904852033353635,76.2301356148178,0.10550080576029404,0.08042340730579765,0.3828125,,
3.7499699999999723,1500,,,,-0.03125,0.076171875,-1.1640625,0.1267734572290536,5.159501295106763,22.74307924728659,2.8190508721542438,3683,0,64.11389738753634,48.89672526875178,76.26540775269925,0.10551834027224771,0.08047399246251037,0.3828125,,
3.766594999999972,1500,,,,0.25,-0.142578125,-1.064453125,0.1267734572290536,5.159501295106763,22.743187236854176,2.820132524694941,3679,0,64.13880204187933,48.84310308346621,76.15219107393709,0.1056341831167008,0.08044274496642258,0.384765625,,
3.773804999999935,1500,,,,-0.5625,0.1796875,-0.73046875,0.1267734572290536,5.159501295106763,22.74331442635258,2.8194074999038987,3690,0,64.122671266331,48.98138590979023,76.38700157444777,0.10533595975844978,0.0804629812391467,0.38671875,,
3.7810699999998323,1500,,,,0,0.26953125,-1.09765625,0.1267734572290536,5.229012792613262,22.74317549003724,2.8195840573977065,3694,0,64.12629502630726,49.037134632753606,76.46962078915762,0.10663373444990447,0.08154241236715928,0.384765625,,
3.788314999999944,1500,,,,0.21875,-0.1328125,-0.841796875,0.1267734572290536,5.229012792613262,22.742868162008516,2.822267132226398,3682,0,64.18644930619483,48.88282819201269,76.15755150876504,0.1069703408336686,0.08146599241950268,0.388671875,,
3.7965049999998883,1500,,,,0.0625,0.095703125,-1.134765625,0.1267734572290536,5.229012792613262,22.742924381341574,2.819588765450652,3682,0,64.12569407912443,48.88082820319572,76.22658733780233,0.10697471759022693,0.08154317653328172,0.390625,,
3.8123600000001026,1500,,,,-0.125,-0.017578125,-0.927734375,0.1267734572290536,5.229012792613262,22.7428272245029,2.8173875098831025,3689,0,64.07535736174385,48.96983443974179,76.42537857928389,0.10678028325882234,0.08160723572858666,0.390625,,
3.821149999999907,1500,,,,-0.28125,0.08203125,-0.818359375,0.1267734572290536,5.229012792613262,22.742754884168058,2.8185303854443533,3684,0,64.10114568974065,48.90218499380012,76.28909665748282,0.10692799909198746,0.08157440458119866,0.388671875,,
3.8291699999999254,1500,,,,0.0625,0.21875,-1.125,0.127745371085355,5.229012792613262,22.74260254973732,2.8173711377757584,3679,0,64.0743520215353,49.21893107476917,76.8153395577481,0.10623986905911863,0.08160851616346892,0.388671875,,
3.8369549999998416,1500,,,,-0.25,0.123046875,-0.978515625,0.127745371085355,5.229012792613262,22.74276887218592,2.817039700169803,3679,0,64.06728280473375,49.219853786480094,76.82525562461248,0.10623787740811184,0.08161752088894433,0.390625,,
3.8454799999999816,1500,,,,0.125,0.0625,-1.05078125,0.127745371085355,5.229012792613262,22.742829743520073,2.81693607210368,3691,0,64.06509748623418,49.37498233630891,77.07001826839993,0.10590409444598423,0.08162030493650357,0.390625,,
3.85475,1500,,,,0.0625,-0.037109375,-1.107421875,0.127745371085355,5.229012792613262,22.742896296109652,2.818425799456862,3684,0,64.09916567532736,49.27835651858114,76.87831190843262,0.10611175294861111,0.08157692440333869,0.390625,,
3.8626100000001022,1500,,,,0.125,-0.072265625,-0.953125,0.127745371085355,5.229012792613262,22.742697669408294,2.815916933960085,3676,0,64.04154749122137,49.17426666834364,76.78494445357416,0.10633636547913147,0.0816503191671007,0.392578125,,
3.8706999999999536,1500,,,,-0.25,0.1640625,-0.94921875,0.127745371085355,5.229012792613262,22.742763357862334,2.818273099911351,3684,0,64.09531818911297,49.28594523634597,76.89476646473302,0.10609541457586008,0.08158182126789792,0.396484375,,
3.8799249999998136,1500,,,,0.15625,-0.095703125,-1.09765625,0.127745371085355,5.229012792613262,22.742974957185687,2.819033152607978,3691,0,64.11320039323947,49.37397096921071,77.01061663803175,0.10590626376545732,0.08155906678407907,0.396484375,,
3.8875200000000185,1500,,,,-0.8125,0.49609375,-0.62890625,0.127745371085355,5.229012792613262,22.743025572096855,2.819045186592434,3693,0,64.11361676756827,49.40442969044494,77.05762392028406,0.1058409706452816,0.08155853711341936,0.40234375,,
3.8957600000000094,1500,,,,0.28125,-0.138671875,-0.947265625,0.127745371085355,5.229012792613262,22.743268546234457,2.817996110905418,3679,0,64.09044231256622,49.21175370084319,76.78485578370588,0.10625536379784956,0.0815880278546308,0.400390625,,
3.9065399999998043,1500,,,,-0.34375,0.20703125,-0.97265625,0.127745371085355,5.229012792613262,22.743308696659792,2.8180662548890676,3678,0,64.09215076258202,49.206505754113735,76.77462086799129,0.1062666960897972,0.08158585303188233,0.400390625,,
3.914005000000121,1500,,,,0.09375,-0.0234375,-1.126953125,0.127745371085355,5.229012792613262,22.74335159721221,2.81814107612205,3687,0,64.09397334478976,49.319235498530006,76.94831966996347,0.10602380064810851,0.08158353304895134,0.40234375,,
3.921350000000093,1500,,,,-0.6875,0.33984375,-1.00390625,0.127745371085355,5.229012792613262,22.743378829847007,2.820279002526518,3689,0,64.14267376032365,49.34907067541636,76.93641032148854,0.10595970138943543,0.08152159063640003,0.404296875,,
3.9385049999998882,1500,,,,-0.15625,0.1953125,-0.8515625,0.127745371085355,5.244942849753573,22.743306780740287,2.8141999442517873,3681,0,64.00421267446062,49.241197923929,76.93430770624501,0.1065153381901127,0.08194683803752882,0.404296875,,
3.9465449999999254,1500,,,,0.34375,-0.1015625,-0.984375,0.127745371085355,5.244942849753573,22.743143505123168,2.814021931200913,3685,0,63.9997046078662,49.29035409551422,77.01653374421348,0.10640911281728652,0.08195261027984366,0.40625,,
3.954844999999972,1500,,,,-0.21875,0.111328125,-0.908203125,0.127745371085355,5.244942849753573,22.742923767954938,2.8133209388374882,3685,0,63.98314364677241,49.29930042267274,77.05045049808147,0.10638980279203769,0.08197382233528551,0.404296875,,
3.9636099999998695,1500,,,,0.0625,0.025390625,-1.091796875,0.127745371085355,5.244942849753573,22.742873791843248,2.813878323373875,3682,0,63.995679574095526,49.25985575039632,76.97372084839296,0.10647499408707414,0.08195776472192734,0.40234375,,
3.9713300000000746,1500,,,,-0.625,0.29296875,-0.640625,0.127745371085355,5.244942849753573,22.742994792297,2.8117991204166572,3678,0,63.948732752621325,49.19851987570607,76.93431559625296,0.10660773663525382,0.08201793255298835,0.404296875,,
3.980494999999879,1500,,,,0.15625,-0.068359375,-1.04296875,0.12818682335427115,5.244942849753573,22.7429037536725,2.8143530885898715,3674,0,64.00656142265038,49.31755662242628,77.05078280454852,0.10635041978881267,0.08194383096320362,0.404296875,,
3.988929999999935,1500,,,,-0.28125,0.14453125,-0.984375,0.12818682335427115,5.244942849753573,22.74285902809756,2.8132005602684047,3684,0,63.980223759949396,49.455173186029405,77.29759334944302,0.10605448352236722,0.08197756340197146,0.404296875,,
3.9979949999998787,1500,,,,-0.03125,-0.009765625,-0.88671875,0.12818682335427115,5.244942849753573,22.74277469734764,2.815936341951278,3683,0,64.04220578707121,49.43543840364068,77.19196707247187,0.10609682080552375,0.08189822298113938,0.408203125,,
4.006844999999972,1500,,,,0,-0.0625,-1.06640625,0.12818682335427115,5.244942849753573,22.743062433032325,2.8127766468982665,3677,0,63.97115489058259,49.36311361753097,77.16464350528379,0.10625226946565355,0.08198918494944507,0.408203125,,
4.015129999999888,1500,,,,0.21875,-0.265625,-1.076171875,0.12818682335427115,5.244942849753573,22.74270374220531,2.8149811106786897,3677,0,64.0202814400695,49.359155300864686,77.09924759870144,0.10626079027859074,0.08192626979722754,0.412109375,,
4.023399999999907,1500,,,,0.03125,0.099609375,-1.048828125,0.12818682335427115,5.244942849753573,22.74284188471224,2.8156623774497747,3680,0,64.03616425107319,49.40013600295302,77.14412095213076,0.10617263987775344,0.08190594972536433,0.416015625,,
4.0324699999999725,1500,,,,-0.0625,-0.2265625,-0.80859375,0.12818682335427115,5.244942849753573,22.742704366770944,2.816466812880234,3696,0,64.05407208415674,49.6203286172173,77.46631401048816,0.10570149364012231,0.0818830509770333,0.41796875,,
4.0408999999999065,1500,,,,-0.21875,0.37109375,-0.931640625,0.12818682335427115,5.244942849753573,22.742702379431353,2.8163828132270066,3694,0,64.05215610776742,49.590388741774746,77.42188827857595,0.10576531023107819,0.08188550032459462,0.419921875,,
4.057429999999934,1500,,,,-0.125,0.111328125,-0.9296875,0.12818682335427115,5.244942849753573,22.74281965222232,2.8193869442762938,3671,0,64.12080880350592,49.279200454658024,76.85367882003945,0.10643319699513924,0.0817978273765442,0.423828125,,
4.073844999999972,1500,,,,-0.0625,-0.109375,-1.0546875,0.12818682335427115,5.244942849753573,22.742633578665625,2.820739133214816,3684,0,64.15103652770745,49.45189211652974,77.08666109419914,0.10606152010107624,0.08175928455167256,0.423828125,,
4.084080000000075,1500,,,,0,0.0390625,-0.81640625,0.12818682335427115,5.246644752197217,22.742503780173937,2.8223782569138054,3689,0,64.18794817694295,49.517952040792416,77.14524836389744,0.10595439706139466,0.08173878276548296,0.421875,,
4.091405000000028,1500,,,,-0.125,0.1328125,-1.05859375,0.12818682335427115,5.246644752197217,22.742513874175117,2.8259176011708824,3672,0,64.26847025190446,49.295119323094816,76.70187127510486,0.10643335129811034,0.08163637210645673,0.423828125,,
4.099689999999944,1500,,,,-0.6875,0.11328125,-0.6953125,0.12818682335427115,5.246644752197217,22.742585759859693,2.8249674621168777,3679,0,64.24706477600628,49.38308059481958,76.86433733119306,0.10624377193567801,0.08166357125402295,0.42578125,,
4.107629999999888,1500,,,,0.3125,-0.0625,-0.955078125,0.12818682335427115,5.246644752197217,22.742264444561638,2.8223581011870458,3680,0,64.18681429444665,49.397865637287964,76.9595222636899,0.10621197261277598,0.08174022670963357,0.423828125,,
4.115574999999954,1500,,,,-0.375,0.12109375,-0.91796875,0.12818682335427115,5.246644752197217,22.74235056247036,2.823496509822498,3677,0,64.21294743829479,49.36245370639942,76.8730539177229,0.10628816758995582,0.08170696037958643,0.423828125,,
4.12375,1500,,,,0.1875,0.03515625,-1.02734375,0.12818682335427115,5.246644752197217,22.742431178670493,2.8244562050481985,3685,0,64.23500086047748,49.465288411130636,77.0067529361016,0.10606720228920413,0.08167890841308253,0.421875,,
4.13172499999986,1500,,,,-0.25,0.06640625,-0.8984375,0.1286420030331979,5.246644752197217,22.742508139391155,2.825903325492225,3682,0,64.26812938113946,49.60643769223874,77.18668361739586,0.10576540054635065,0.08163680509638314,0.421875,,
4.1397299999999815,1500,,,,-0.25,0.12109375,-1.060546875,0.1286420030331979,5.246644752197217,22.742679810968163,2.8238705360179344,3671,0,64.22238342828292,49.45854884178377,77.01138793301573,0.10608165575138602,0.08169495543646617,0.42578125,,
4.147754999999888,1500,,,,-0.1875,0.173828125,-0.8671875,0.1286420030331979,5.246644752197217,22.74235330734824,2.822267548783567,3679,0,64.18500572229956,49.564648058102414,77.22153718042335,0.1058545749391141,0.08174252994378708,0.42578125,,
4.1551650000000375,1500,,,,0.0625,0.01171875,-1.03125,0.1286420030331979,5.246644752197217,22.742432854101835,2.8219135080233557,3682,0,64.17717847630414,49.59611114290278,77.27998070406747,0.10578742226542523,0.08175249951405099,0.423828125,,
4.162320000000065,1500,,,,0.0625,-0.234375,-0.9609375,0.1286420030331979,5.246644752197217,22.742414087829115,2.820574297033714,3682,0,64.14666862862825,49.59831007020713,77.32016506944792,0.10578273220943446,0.0817913831593068,0.42578125,,
4.1706550000000275,1500,,,,0.03125,0.14453125,-1.16015625,0.1286420030331979,5.246644752197217,22.742493970016213,2.8210550832482446,3675,0,64.15782821985678,49.50548034375808,77.16202639234004,0.10598108968472504,0.08177715639341712,0.427734375,,
4.178949999999953,1500,,,,-0.125,0.00390625,-1.109375,0.1286420030331979,5.246644752197217,22.74223127583417,2.8196384494919804,3677,0,64.12486973258108,49.537709739208765,77.25194600128637,0.10591213804227477,0.08181918768922598,0.427734375,,
4.186770000000019,1500,,,,-0.0625,0.068359375,-0.880859375,0.1286420030331979,5.246644752197217,22.742125727808585,2.821367800645502,3683,0,64.16390124667079,49.61527635353808,77.32584114983567,0.10574655908014666,0.08176941629573133,0.4296875,,
4.195179999999935,1500,,,,-0.25,-0.01171875,-0.95703125,0.1286420030331979,5.246644752197217,22.741815719178287,2.821261961306727,3679,0,64.16061961956508,49.56395120432933,77.24980135512179,0.1058560632215886,0.08177359856102934,0.431640625,,
4.203860000000103,1500,,,,0.125,0.00390625,-0.91015625,0.1286420030331979,5.246644752197217,22.74200181745432,2.8188642796340675,3678,0,64.10661657059502,49.549140323291134,77.29177263430678,0.10588770497257191,0.08184248417508583,0.431640625,,
4.214060000000056,1500,,,,0.03125,0.0703125,-0.853515625,0.1286420030331979,5.246644752197217,22.74200175701655,2.8176649860386203,3678,0,64.07934206317431,49.549003424486976,77.32445719501581,0.10588799752941833,0.08187731932429447,0.435546875,,
4.222009999999776,1500,,,,0.3125,-0.17578125,-1.060546875,0.1286420030331979,5.246644752197217,22.74195794538036,2.8243295115321083,3683,0,64.23078297515985,49.61998850138228,77.25266017786511,0.10573651688877478,0.08168427207599613,0.4375,,
4.230029999999795,1500,,,,-0.0625,-0.01171875,-1.0859375,0.1286420030331979,5.252292271902198,22.7416234819676,2.829072138925241,3692,0,64.33769338676257,49.738232535282286,77.30807543298698,0.10559869147293151,0.0816363160601411,0.435546875,,
4.237129999999889,1500,,,,0.03125,0.001953125,-0.95703125,0.1286420030331979,5.252292271902198,22.741361231105394,2.8345918728984834,3691,0,64.46247772434,49.72059350290405,77.13106175583808,0.1056361539931221,0.08147828717292721,0.44140625,,
4.244824999999953,1500,,,,-0.375,0.173828125,-0.951171875,0.1286420030331979,5.252292271902198,22.741476006555885,2.835529906480385,3688,0,64.48413533409533,49.6812812762214,77.04419237200027,0.10571974266726623,0.08145092191575223,0.44140625,,
4.252629999999888,1500,,,,0,0.09765625,-0.859375,0.1286420030331979,5.252292271902198,22.741534508377693,2.8334543975056863,3674,0,64.4371009587901,49.48820214042006,76.80078930315253,0.10613221019828337,0.08151037513716257,0.44140625,,
4.262020000000018,1500,,,,-0.125,0.169921875,-0.91015625,0.1286420030331979,5.252292271902198,22.74166900314007,2.834337395551067,3675,0,64.45756289284446,49.51320718005347,76.81520206149465,0.10607861156726076,0.0814844998194194,0.443359375,,
4.270784999999917,1500,,,,0.1875,-0.009765625,-1.060546875,0.1286420030331979,5.252292271902198,22.742018175458384,2.831771718422596,3692,0,64.4002038891157,49.73411715226259,77.22664548996586,0.10560742952010464,0.08155707520655676,0.44140625,,
