Time (s),ESC signal (µs),Servo 1 (µs),Servo 2 (µs),Servo 3 (µs),AccX (g),AccY (g),AccZ (g),Torque (N·m),Thrust (N),Voltage (V),Current (A),Motor Electrical Speed (RPM),Motor Optical Speed (RPM),Electrical Power (W),Mechanical Power (W),Motor Efficiency (%),Propeller Mech. Efficiency (N/W),Overall Efficiency (N/W),Vibration (g),App message,90% settling time (s),Max acceleration (RPM/s),
0,1000,,,,-0.0625,0.046875,-0.95703125,-0.00015801993832504033,0.005352368302420735,22.842275293962384,0.041831049892152174,0,0,0.9555163574720155,0,0,0,0,0.068359375,,
0,1200,,,,-0.0625,0.048828125,-0.95703125,-0.00015801993832504033,0.005352368302420735,22.842362128784643,0.04225095347446524,0,0,0.9651115795501667,0,0,0,0,0.068359375,,
0.0075549999999348074,1200,,,,-0.0625,0.05078125,-0.95703125,-0.00015801993832504033,0.005352368302420735,22.84237678933483,0.04075196412200166,0,0,0.9308717193802164,0,0,0,0,0.068359375,,
0.014739999999757857,1200,,,,-0.0625,0.05078125,-0.95703125,-0.00015801993832504033,0.005352368302420735,22.842360744592785,0.04004218731579886,0,0,0.914658087670035,0,0,0,0,0.068359375,,
0.023199999999720604,1200,,,,-0.0625,0.048828125,-0.955078125,-0.00015801993832504033,0.005352368302420735,22.842442694332362,0.04011490151167815,0,0,0.9163223389692948,0,0,0,0,0.068359375,,
0.03125499999988824,1200,,,,-0.0625,0.046875,-0.95703125,0.0001533200135096644,0.005352368302420735,22.842324874908915,0.039972224540307424,0,0,0.9130585389225089,0,0,0,0,0.068359375,,
0.03928999999980442,1200,,,,-0.0625,0.048828125,-0.953125,0.0001533200135096644,0.005352368302420735,22.842309124678078,0.04046856084723982,0,0,0.9243953767034961,0,0,0,0,0.068359375,,
0.04862499999976717,1200,,,,-0.0625,0.046875,-0.953125,0.0001533200135096644,0.005352368302420735,22.842390518877053,0.04010069655935089,0,0,0.9159957708876825,0,0,0,0,0.068359375,,
0.05723999999975786,1200,,,,-0.1875,0.09765625,-0.947265625,0.0001533200135096644,0.005352368302420735,22.841699991474396,0.07473721992516527,0,0,1.7071251557274676,0,0,0,0,0.068359375,,
0.06495999999996274,1200,,,,0.0625,0.033203125,-1.001953125,0.0001533200135096644,0.005352368302420735,22.840366962648776,0.11396006198361658,0,0,2.6028896347920027,0,0,0,0,0.072265625,,
0.07321999999997206,1200,,,,-0.0625,0.11328125,-0.99609375,0.0001533200135096644,0.005352368302420735,22.839081242406767,0.1516989911478649,0,0,3.464665583217231,0,0,0,0,0.072265625,,
0.08211999999987893,1200,,,,-0.09375,0.1171875,-0.986328125,0.0001533200135096644,0.004714198889008235,22.837607194434764,0.1805470146423744,0,0,4.1232618005304085,0,0,0,0,0.07421875,,
0.09039500000001863,1200,,,,-0.03125,0,-1.009765625,0.0001533200135096644,0.004714198889008235,22.836812066660677,0.20694347276593264,0,0,4.725929195977716,0,0,0,0,0.078125,,
0.10023999999999068,1200,,,,0.0625,0.021484375,-1,0.0001533200135096644,0.004714198889008235,22.83618631027631,0.2259643982160127,1,0,5.160165097150334,0.00001011978053201192,0.000196113502988509,0,0.0009135752054932544,0.078125,,
0.10745999999996275,1200,,,,-0.3125,0.21875,-0.77734375,0.0001533200135096644,0.004714198889008235,22.835815279368887,0.24171501566442002,1,0,5.5197594479624525,0.00002301251936050016,0.0004169116349625513,0,0.0008540587562648985,0.080078125,,
0.11435499999998137,1200,,,,-0.03125,-0.017578125,-1.095703125,0.0001533200135096644,0.004714198889008235,22.835566918556232,0.2513330273351202,2,0,5.73933216455446,0.000027131612500942077,0.00047273117713075044,0,0.0008213845712089386,0.08203125,,
0.12263999999989755,1200,,,,0.03125,0.11328125,-0.93359375,0.0001533200135096644,0.004714198889008235,22.83489560281628,0.26586536914216957,2,0,6.071007948765655,0.0000290954526441761,0.0004792524221631389,0,0.000776510083464265,0.08203125,,
0.13074499999987893,1200,,,,-0.375,-0.046875,-0.90234375,0.0001533200135096644,0.004714198889008235,22.834077115108695,0.28202487219031747,2,0,6.439777679972383,0.00002987216177809904,0.00046386945734168807,0,0.0007320437324520265,0.0859375,,
0.13985999999986962,1200,,,,0.0625,-0.041015625,-1.0859375,0.0001533200135096644,0.004714198889008235,22.83387919874327,0.28688742177130055,2,0,6.550752732364787,0.00003016552486771141,0.0004604894444981106,0,0.0007196423192280126,0.087890625,,
0.14810999999986962,1200,,,,0.03125,-0.00390625,-1.013671875,0.0001533200135096644,0.004714198889008235,22.83363151178027,0.28948151887582346,2,0,6.609914331481018,0.000030289385619188502,0.00045824172750514095,0,0.0007132012084568079,0.087890625,,
0.1560999999998603,1200,,,,-0.0625,0.05859375,-0.96484375,0.0001533200135096644,0.004714198889008235,22.833616919433485,0.29147613397543903,2,0,6.655454384352646,0.00003033176019472092,0.000455742890613639,0,0.0007083211178025028,0.087890625,,
0.16426000000000932,1200,,,,-0.03125,0.0546875,-0.984375,0.0001533200135096644,0.004714198889008235,22.833439517185433,0.2893805942722503,2,0,6.607554296762605,0.000030348461625481264,0.00045929946637518514,0,0.0007134559441029449,0.087890625,,
0.17225499999988825,1200,,,,-0.03125,0.00390625,-1.015625,0.0001533200135096644,0.004714198889008235,22.833696289618498,0.2873308742897778,2,0,6.560825918163339,0.000030355054429509517,0.0004626712369470584,0,0.0007185374140102082,0.087890625,,
0.18017499999981373,1200,,,,0,0.046875,-0.94140625,0.0004241118146684741,0.004714198889008235,22.833809773393888,0.2836692131767368,336,0,6.4772488522459275,0.014914903408134625,0.23026602417727116,0.31607304184330814,0.0007278088269487483,0.087890625,,
0.1881099999998696,1200,,,,-0.09375,0.076171875,-0.96484375,0.0004241118146684741,0.004714198889008235,22.83381903933885,0.2795793810302585,466,0,6.383864993575287,0.020717104586168267,0.3245229121702594,0.2275510493949845,0.0007384552921705892,0.087890625,,
0.19611999999987892,1200,,,,-0.03125,0.05078125,-0.9765625,0.0004241118146684741,0.004714198889008235,22.83386056758246,0.27620271652522516,518,0,6.306774317524495,0.0230218422596574,0.3650335512353298,0.20477070582962065,0.000747481779379515,0.087890625,,
0.2061049999999814,1200,,,,-0.0625,0.12109375,-0.91796875,0.0004241118146684741,0.004714198889008235,22.83403183206453,0.27105301499433865,539,0,6.189233172557793,0.02393292681775745,0.3866864626117618,0.19697544411954052,0.0007616773770796588,0.087890625,,
0.21395999999972992,1200,,,,-0.03125,0.037109375,-0.96875,0.0004241118146684741,0.004714198889008235,22.834317817044372,0.2641228544098035,548,0,6.031065200338393,0.024331512228689005,0.4034363983881952,0.19374870105483116,0.0007816527814595222,0.087890625,,
0.2225449999999255,1200,,,,-0.03125,0.05859375,-0.98046875,0.0004241118146684741,0.004714198889008235,22.83438899352321,0.2594759151415677,550,0,5.924973980792976,0.02443777864990867,0.41245377159678276,0.19290619481185348,0.0007956488761453269,0.0859375,,
0.2296549999997951,1200,,,,-0.03125,0.052734375,-0.982421875,0.0004241118146684741,0.03402446325062916,22.834549538329867,0.2546907644141716,551,0,5.815748876970503,0.02449171176596155,0.4211273953547938,0,0.005850401035258065,0.0859375,,
0.23918499999982304,1200,,,,-0.0625,0.05859375,-0.9765625,0.0004241118146684741,0.03402446325062916,22.83485123442537,0.24913959317196896,660,0,5.68906554668717,0.029329983945657903,0.5155501146007573,0,0.005980676962043815,0.0859375,,
0.24690500000002794,1200,,,,-0.03125,0.046875,-1.017578125,0.0004241118146684741,0.03402446325062916,22.834973425303602,0.24340201931971564,697,0,5.5580786428309406,0.030956080522038708,0.5569565044202325,0,0.006121623214978334,0.0859375,,
0.25539999999990687,1200,,,,-0.0625,0.01953125,-0.9453125,0.0004241118146684741,0.03402446325062916,22.83515489549586,0.2394553952432716,711,0,5.468001040942291,0.031593900346867945,0.5777961655512674,0,0.006222468319933932,0.0859375,,
0.2633049999999348,1200,,,,-0.09375,0.0703125,-0.97265625,0.0004241118146684741,0.03402446325062916,22.835293894016427,0.23466040518121134,717,0,5.358539317601936,0.031845188321866565,0.5942886005755387,0,0.006349577978995935,0.0859375,,
0.2721799999999348,1200,,,,-0.0625,0.021484375,-0.97265625,0.0004241118146684741,0.03402446325062916,22.835477791791845,0.22862523980342647,719,0,5.22076658617423,0.031950153842974956,0.6119820397178104,0,0.006517139329832065,0.0859375,,
0.2801399999998976,1200,,,,-0.0625,0.00390625,-0.9453125,0.0004241118146684741,0.03402446325062916,22.83583121133959,0.2236962472035122,720,0,5.1082897437495,0.03198608724390401,0.6261603951311134,0,0.006660636917132877,0.0859375,,
0.2884399999997113,1200,,,,-0.03125,0.021484375,-0.9609375,0.0004241118146684741,0.03402446325062916,22.83593977324245,0.21957298055986535,721,0,5.014155359896421,0.03200038116087353,0.6382008307284395,0,0.006785681896249026,0.0859375,,
0.2966099999998696,1200,,,,-0.03125,0.025390625,-0.96484375,0.0004241118146684741,0.03402446325062916,22.836137301077414,0.21513507960158157,752,0,4.9128542160599356,0.03337643123947115,0.679369461653571,0,0.00692560001870287,0.083984375,,
0.3051899999997113,1200,,,,-0.03125,0.05859375,-0.984375,0.0004241118146684741,0.03402446325062916,22.836238923983316,0.21040364838333353,765,0,4.804827984959581,0.03395582003577509,0.7067020951023855,0,0.007081307251192965,0.083984375,,
0.31517499999981374,1200,,,,-0.0625,0.0390625,-0.953125,0.0004241118146684741,0.03402446325062916,22.836490139912186,0.24124142349867025,769,0,5.509107389065763,0.034154630130439796,0.6199666791434928,0,0.006176039210664043,0.083984375,,
0.3224799999997485,1200,,,,0.03125,0.0234375,-0.9453125,0.0004241118146684741,0.03402446325062916,22.832887893964458,0.33226328648949843,771,0,7.586530371694913,0.03424037686563341,0.45133117760106906,0,0.004484851649388142,0.0859375,,
0.3294199999996927,1200,,,,-0.03125,-0.0078125,-1.046875,0.0004241118146684741,0.03402446325062916,22.830873537895805,0.3874126645256537,771,0,8.844969550764452,0.03426452747972207,0.3873899992879078,0,0.0038467586638202163,0.08984375,,
0.3376899999997113,1200,,,,0.0625,0.15234375,-0.76171875,0.014121775724958038,0.03402446325062916,22.829412863366997,0.4389628704628987,804,0,10.021264601486202,1.1884205514388957,11.858987849324398,0.028629985579964597,0.003395226511191329,0.091796875,,
0.34494499999983236,1200,,,,-0.125,-0.009765625,-1.041015625,0.014121775724958038,0.03402446325062916,22.828032554661284,0.48351566185185085,852,0,11.03771126944265,1.2597410290616289,11.413063798372393,0.027009093508666395,0.003082565073506152,0.091796875,,
0.3537899999998044,1200,,,,0.0625,0.21484375,-0.90234375,0.014121775724958038,0.03402446325062916,22.826665347119256,0.5259140060400959,871,0,12.004863017240123,1.2876705730136213,10.726241283756458,0.026423266916008995,0.0028342233644621183,0.09375,,
0.3651099999998696,1200,,,,0.0625,-0.09375,-0.98046875,0.014121775724958038,0.03402446325062916,22.825410176281324,0.5560376540718373,879,0,12.691787527646909,1.2994839447347974,10.238777964917013,0.026183057811901615,0.002680825153786465,0.09375,,
0.3730749999999534,1200,,,,-0.14453125,0.130859375,-0.9375,0.014121775724958038,0.03402446325062916,22.824511071721425,0.5790954984955421,882,0,13.217571616995539,1.3040596765305352,9.86610637958441,0.026091185750909508,0.0025741841418797018,0.09765625,,
0.3811049999999814,1200,,,,0,0.25390625,-0.93359375,0.014121775724958038,0.13132198876373194,22.82400159553243,0.5979433847467638,1063,0,13.647460767498197,1.5718639853567238,11.517629631881126,0.08354538941480315,0.009622448527309847,0.09765625,,
0.38960499999974857,1200,,,,0,-0.02734375,-0.955078125,0.014121775724958038,0.13132198876373194,22.82360687906829,0.6073816163194201,1136,0,13.862639236447533,1.6796799792804797,12.116595913888311,0.07818274336995194,0.009473087088529382,0.09765625,,
0.3982099999997299,1200,,,,0.125,-0.078125,-0.99609375,0.014121775724958038,0.13132198876373194,22.823519060812753,0.6149989767463894,1166,0,14.036440868151557,1.7241780283608104,12.283584168925191,0.07616498215592085,0.009355789690369392,0.099609375,,
0.4066599999999162,1200,,,,-0.125,0.029296875,-0.947265625,0.014121775724958038,0.13132198876373194,22.823542970901993,0.6186305063374601,1205,0,14.119339944503878,1.7826177129707974,12.625361525236897,0.07366806007154447,0.009300858912661181,0.099609375,,
0.4156999999997206,1200,,,,0,-0.03125,-0.97265625,0.014121775724958038,0.13132198876373194,22.823422189952552,0.6210114299020424,1283,0,14.173606049440439,1.897423477486814,13.387020006540414,0.06921069035030138,0.009265248963859583,0.099609375,,
0.4240049999998882,1200,,,,-0.03125,0.0703125,-1.015625,0.014121775724958038,0.13132198876373194,22.823307953570062,0.6194627935876167,1311,0,14.13819010382898,1.9387157121251097,13.712615956409133,0.06773658868209421,0.009288458267948073,0.099609375,,
0.431964999999851,1200,,,,0,-0.015625,-0.91015625,0.014121775724958038,0.13132198876373194,22.823341884973328,0.6168738205025524,1320,0,14.07912210521942,1.9527803246267452,13.870043245827162,0.06724872588463468,0.009327427362466596,0.099609375,,
0.44051499999989757,1200,,,,-0.0625,0.041015625,-0.9453125,0.014121775724958038,0.13132198876373194,22.82357274658324,0.6116980675581457,1357,0,13.961135343857727,2.0074097491898932,14.378556612683106,0.06541862657423478,0.009406254257216102,0.099609375,,
0.4483100000000559,1200,,,,-0.0625,0.05078125,-0.9609375,0.014121775724958038,0.13132198876373194,22.82378873186392,0.6068528664148012,1405,0,13.85068161437746,2.0772716251223633,14.997612990873224,0.06321849640438636,0.00948126542937897,0.09765625,,
0.4571449999997858,1200,,,,-0.0625,-0.0234375,-0.9453125,0.014121775724958038,0.13132198876373194,22.823938510898547,0.6014884886649896,1424,0,13.72833628030302,2.1058670971716023,15.339565218787895,0.062360055361571,0.009565761362660422,0.09765625,,
0.4664599999997299,1200,,,,-0.0625,0.103515625,-0.986328125,0.014121775724958038,0.13132198876373194,22.824095802511163,0.5938539585837758,1432,0,13.554179643416594,2.117165648042179,15.620020567386447,0.06202726219612065,0.009688671112420763,0.09765625,,
0.4744699999997392,1200,,,,0.03125,0.013671875,-0.97265625,0.014121775724958038,0.13132198876373194,22.824223321769253,0.5870230419684028,1466,0,13.398345004911151,2.1683733740254767,16.183889676155236,0.06056244295231279,0.009801358952586754,0.09765625,,
0.4824499999999534,1200,,,,-0.09375,0.0546875,-0.9609375,0.03258070643163302,0.13132198876373194,22.824212447042306,0.5782609660641586,1480,0,13.198351139280277,5.048607185957916,38.25180230985447,0.026011528313984893,0.009949878388437323,0.09765625,,
0.49181000000005587,1200,,,,0,0.01171875,-0.94140625,0.03258070643163302,0.13132198876373194,22.82449544145507,0.5710324193467031,1485,0,13.033526852301886,5.067868594205982,38.88332491762145,0.02591266650320618,0.010075706311261316,0.09765625,,
0.509559999999823,1200,,,,-0.03125,0.083984375,-0.982421875,0.03258070643163302,0.13132198876373194,22.825177185083717,0.5518159575258466,1517,0,12.59529700408408,5.17626146005064,41.09677968190996,0.025370045500454144,0.01042627170452195,0.09765625,,
0.51895999999973,1200,,,,-0.0625,0.13671875,-0.931640625,0.03258070643163302,0.13132198876373194,22.825214002105863,0.5436464480233812,1520,0,12.408846517618398,5.184782964340605,41.78295667513589,0.02532834829672245,0.01058293279534706,0.09765625,,
0.5336599999996834,1200,,,,-0.0625,0.1015625,-0.9453125,0.03258070643163302,0.3425276461856829,22.825592771211937,0.5278284985233025,1540,0,12.047998360333144,5.253644931505568,43.60595656123826,0.06519809592223863,0.02843025338660583,0.09765625,,
0.5423449999997392,1200,,,,-0.0625,0.115234375,-0.974609375,0.03258070643163302,0.3425276461856829,22.82593299839479,0.5194103982516319,1542,0,11.856026949161306,5.260857146317991,44.37285077772317,0.06510871454196655,0.028890592747000565,0.09765625,,
0.5496399999998975,1200,,,,-0.0625,0.00390625,-0.953125,0.03258070643163302,0.3425276461856829,22.826025818657914,0.5114938489616654,1545,0,11.675371802483685,5.2719746500686355,45.15466178941844,0.0649714137341733,0.029337622131469718,0.09765625,,
0.5570699999998323,1200,,,,-0.03125,0.0390625,-0.966796875,0.03258070643163302,0.3425276461856829,22.826206183585406,0.5047431530481357,1552,0,11.521371281229749,5.294159582187975,45.95077663032222,0.0646991540145684,0.02972976374294247,0.095703125,,
0.5737649999998976,1200,,,,-0.03125,0,-0.99609375,0.03258070643163302,0.3425276461856829,22.826895225239966,0.4886864815968861,1556,0,11.155195113403277,5.307864337353722,47.58199460784129,0.06453210263404222,0.03070566159565657,0.095703125,,
0.5989049999997951,1200,,,,-0.03125,0.03125,-0.962890625,0.03258070643163302,0.3425276461856829,22.827878472550626,0.4695456753048165,1566,0,10.718731613170068,5.342146049399181,49.839348928517865,0.06411798610863627,0.031955986822621844,0.095703125,,
0.6066549999997951,1200,,,,-0.0625,0.021484375,-0.98828125,0.03258070643163302,0.3425276461856829,22.8281918895601,0.4637621198147964,1567,0,10.586850662241334,5.34683252868129,50.50446727987864,0.06406178692680352,0.032354064217353054,0.09765625,,
0.6141949999998324,1200,,,,0.0625,0.037109375,-0.96484375,0.03258070643163302,0.3425276461856829,22.828370716921217,0.46115591833951264,1570,0,10.527438262156643,5.356038448208152,50.87694000031987,0.06395167799818063,0.03253665684433213,0.095703125,,
0.6221399999998976,1200,,,,-0.125,0.0859375,-0.96484375,0.03258070643163302,0.3425276461856829,22.82847862073286,0.4615249779342967,1571,0,10.535913091707297,5.359799645538974,50.87171466664445,0.06390680041011845,0.03251048515721743,0.095703125,,
0.6305349999999161,1200,,,,-0.03125,0.0234375,-0.98046875,0.031465464646320544,0.3425276461856829,22.828552686513962,0.4614671268734299,1574,0,10.534626618924317,5.185378892953375,49.22223710936658,0.06605643546147762,0.03251445528884422,0.09765625,,
0.6396499999999069,1200,,,,-0.0625,0.015625,-1.04296875,0.031465464646320544,0.3425276461856829,22.828522445974954,0.4535537350487113,1580,0,10.353961621015284,5.2052202223551935,50.27274016343883,0.06580464064029555,0.033081796004580465,0.09765625,,
0.6486350000000093,1200,,,,-0.03125,0.078125,-0.935546875,0.031465464646320544,0.3425276461856829,22.828785770626844,0.44584874345676523,1582,0,10.17818545047766,5.212335715172818,51.210854238544115,0.06571480904205844,0.03365311507166615,0.095703125,,
0.6577349999998696,1200,,,,-0.0625,0.068359375,-1.025390625,0.031465464646320544,0.3425276461856829,22.82903819153225,0.4377401567573201,1583,0,9.993186756580174,5.214915527295314,52.184709986146,0.06568230000905363,0.03427611777195498,0.09765625,,
0.6659199999999255,1200,,,,0,0.08203125,-0.982421875,0.031465464646320544,0.3425276461856829,22.829380263886783,0.4311734006111426,1586,0,9.843421522224968,5.22749882342064,53.10652207281515,0.06552419383646044,0.03479762046279405,0.095703125,,
0.6779849999998696,1200,,,,-0.03125,0.01953125,-0.966796875,0.031465464646320544,0.3425276461856829,22.82959875307085,0.42439380281398087,1588,0,9.688740231533055,5.2327579097158585,54.0086511214872,0.06545833996059686,0.035353166459235794,0.09765625,,
0.6946449999997858,1200,,,,-0.03125,0.103515625,-0.9765625,0.031465464646320544,0.5872913707599581,22.82988164012775,0.4106555695373708,1589,0,9.375218047397427,5.23480686452096,55.83664121789839,0.11218969218145194,0.06264295590682191,0.09765625,,
0.7042549999998883,1200,,,,0,-0.01953125,-1.05859375,0.031465464646320544,0.5872913707599581,22.829928137724433,0.40435004657301665,1589,0,9.231282505747497,5.234868825735114,56.707925713202116,0.11218836427625038,0.06361969427263266,0.09765625,,
0.7125449999999255,1200,,,,-0.0625,0.05859375,-1.00390625,0.031465464646320544,0.5872913707599581,22.83010156917604,0.39836034545841376,1588,0,9.094607147947642,5.234090544872407,57.551584798839514,0.11220504607725976,0.06457578224173109,0.09765625,,
0.7205999999998604,1200,,,,-0.125,0.05078125,-0.9765625,0.031465464646320544,0.5872913707599581,22.830195503245367,0.39477082997258817,1588,0,9.012695227252623,5.232223798278302,58.053930221196026,0.112245078460369,0.06516267952610937,0.09765625,,
0.7290149999998976,1200,,,,0.03125,0.0859375,-0.990234375,0.031465464646320544,0.5872913707599581,22.830475512624204,0.3907130737960823,1588,0,8.92016526376359,5.231502988925439,58.64805005550051,0.11226054386343548,0.06583861995760475,0.09765625,,
0.7365749999999535,1200,,,,-0.125,0.078125,-0.94140625,0.031465464646320544,0.5872913707599581,22.830680241132818,0.38817680888459405,1587,0,8.86234060066749,5.229497792975181,59.00808859209617,0.11230358898876874,0.06626820128259622,0.09765625,,
0.7443899999998975,1200,,,,-0.03125,-0.02734375,-0.95703125,0.031465464646320544,0.5872913707599581,22.83094258845506,0.38499134892958964,1586,0,8.78971538446333,5.225253053087449,59.44735209883574,0.11239481892899805,0.06681574374957035,0.09765625,,
0.7513999999999069,1200,,,,-0.125,0.01953125,-0.94921875,0.031465464646320544,0.5872913707599581,22.830988493752255,0.3827994984199393,1585,0,8.739690943839769,5.223701389833835,59.76986398490208,0.11242820500860208,0.06719818521430834,0.09765625,,
0.759589999999851,1200,,,,0,0.046875,-0.958984375,0.031465464646320544,0.5872913707599581,22.831038015949098,0.3799058647631503,1585,0,8.6736452408895,5.222981213537888,60.21668016712959,0.11244370729071508,0.06770986758731327,0.095703125,,
0.7677099999997299,1200,,,,-0.03125,0.021484375,-0.953125,0.031465464646320544,0.5872913707599581,22.830987105660466,0.37778001196071054,1585,0,8.62509058185124,5.2230080656919835,60.55597928075264,0.11244312920319974,0.06809103802291955,0.095703125,,
0.7757299999997486,1200,,,,-0.0625,0.05859375,-1.0078125,0.031465464646320544,0.5872913707599581,22.83097160288395,0.3758896725687499,1585,0,8.581926440234474,5.223173445554548,60.862482123673864,0.11243956894822299,0.06843351255104818,0.095703125,,
0.7851199999998789,1200,,,,-0.0625,0.048828125,-0.927734375,0.03098790125794891,0.5872913707599581,22.83102853555446,0.37335806142004974,1585,0,8.52414855426045,5.143968637185343,60.34583518156003,0.11417086926123055,0.06889736458973657,0.095703125,,
0.7932199999997392,1200,,,,-0.03125,0.001953125,-0.98828125,0.03098790125794891,0.5872913707599581,22.831154501899288,0.37075743910514963,1585,0,8.464820374938189,5.143344231526195,60.76141020964963,0.11418472968621232,0.06938025200141905,0.095703125,,
0.8003549999997486,1200,,,,-0.0625,0.10546875,-0.984375,0.03098790125794891,0.5872913707599581,22.8312468262861,0.3694040378618692,1585,0,8.433954767051071,5.142016785818855,60.968038456966475,0.11421420723083718,0.0696341617878162,0.095703125,,
0.8089149999998044,1200,,,,-0.03125,0.07421875,-0.998046875,0.03098790125794891,0.5872913707599581,22.83128523909203,0.36707248518334995,1584,0,8.380736612643446,5.141367150563304,61.34743744132077,0.11422863871832467,0.07007634267779655,0.095703125,,
0.8166399999998976,1200,,,,-0.0625,0.00390625,-1.05859375,0.03098790125794891,0.5872913707599581,22.83138308267206,0.3642716476158228,1584,0,8.316825532872974,5.141126970524269,61.81597714420627,0.11423397518230691,0.0706148479896131,0.095703125,,
0.8266049999999814,1200,,,,-0.0625,0.009765625,-1.005859375,0.03098790125794891,0.5872913707599581,22.83141366896563,0.3619360235024724,1585,0,8.263511074285415,5.14195379933979,62.22480678147381,0.11421560630034527,0.07107044033467867,0.095703125,,
0.8340300000000279,1200,,,,-0.03125,0.083984375,-0.951171875,0.03098790125794891,0.6994793872325039,22.831530801743025,0.3594651206828504,1585,0,8.207138975022772,5.142311814413082,62.6565704572928,0.13602430433564422,0.08522816408510532,0.095703125,,
0.8428099999998231,1200,,,,-0.03125,0.04296875,-0.962890625,0.03098790125794891,0.6994793872325039,22.831554044874473,0.3577993928168947,1585,0,8.169116174322204,5.142417422136878,62.94949554397233,0.1360215108601282,0.08562485491774025,0.095703125,,
0.8501449999997858,1200,,,,-0.125,0.09375,-1.046875,0.03098790125794891,0.6994793872325039,22.831511307426698,0.3558389595581135,1584,0,8.12434122877402,5.140027226408101,63.2670032150255,0.13608476306093548,0.0860967514209219,0.095703125,,
0.8587949999999255,1200,,,,-0.03125,0.041015625,-0.97265625,0.03098790125794891,0.6994793872325039,22.831535675397802,0.35455881824020274,1583,0,8.095122307678073,5.137818115852244,63.46807275510981,0.13614327550333621,0.08640751314764702,0.095703125,,
0.8683299999998417,1200,,,,-0.03125,-0.0078125,-0.962890625,0.03098790125794891,0.6994793872325039,22.831558247022205,0.3527399595383606,1583,0,8.053602932252335,5.136968895329091,63.78473012068954,0.13616578209545357,0.08685297662631125,0.095703125,,
0.8767899999998044,1200,,,,-0.03125,0.115234375,-0.9765625,0.03098790125794891,0.6994793872325039,22.831587370284566,0.3514659231596602,1584,0,8.024524932297503,5.139395945563314,64.04610851015018,0.1361014785864754,0.08716770065941284,0.095703125,,
0.8854249999998137,1200,,,,0,0.06640625,-1,0.03098790125794891,0.6994793872325039,22.831608271649497,0.348740993316786,1584,0,7.962317747674793,5.141296923155426,64.57035609583428,0.13605115551334554,0.0878487155874645,0.095703125,,
0.8927449999998789,1200,,,,-0.0625,0.0234375,-1.05078125,0.03098790125794891,0.6994793872325039,22.831851322057563,0.34831963313224557,1585,0,7.952782076229067,5.141960565435288,64.65612305415299,0.13603359619956362,0.08795404935377944,0.095703125,,
0.9001399999998976,1200,,,,-0.0625,0.048828125,-0.97265625,0.03098790125794891,0.6994793872325039,22.831858604955325,0.3452095549236742,1585,0,7.881775747096889,5.142277490923388,65.24262622946934,0.1360252122658009,0.08874642081641876,0.095703125,,
0.9087849999999161,1200,,,,-0.0625,0.09765625,-0.90625,0.03098790125794891,0.6994793872325039,22.831964437986493,0.34382041017790427,1585,0,7.85009537823584,5.142403968708893,65.50753488888884,0.13602186671618538,0.08910457179562302,0.095703125,,
0.9181149999999907,1200,,,,-0.03125,0.025390625,-1.02734375,0.03098790125794891,0.6994793872325039,22.831817013321157,0.3420785392489372,1585,0,7.810274612315934,5.142456789098087,65.84220202691728,0.13602046957699038,0.08955887237684354,0.095703125,,
0.9255549999997019,1200,,,,-0.0625,0.08203125,-1.01953125,0.03098790125794891,0.6994793872325039,22.831697123803714,0.34233999213853344,1585,0,7.81620301387234,5.142474031949367,65.79248290790822,0.13602001349676257,0.08949094413119196,0.09765625,,
0.9339049999997951,1200,,,,0,0.02734375,-0.953125,0.028825708254969523,0.6994793872325039,22.83171215863912,0.3410911849935671,1584,0,7.787695755622252,4.781510854698934,61.39827498072158,0.14628836124989752,0.08981853030500343,0.095703125,,
0.9416549999997951,1200,,,,-0.03125,-0.021484375,-0.955078125,0.028825708254969523,0.6994793872325039,22.831597762333825,0.33951749716516066,1584,0,7.751726928549263,4.780683539705712,61.672496770992645,0.14631367699263403,0.09023529771880283,0.095703125,,
0.9497700000000187,1200,,,,-0.03125,0.07421875,-0.96484375,0.028825708254969523,0.6994793872325039,22.831617452950088,0.338104304896247,1584,0,7.719468148586711,4.7803500158805265,61.92589857056044,0.14632388526128914,0.09061238077140915,0.095703125,,
0.9580149999998976,1200,,,,0,0.1015625,-0.98828125,0.028825708254969523,0.6994793872325039,22.831636547477814,0.33813937225855784,1584,0,7.720275249799695,4.780863954925198,61.926081651677364,0.14630815556085994,0.09060290787568126,0.095703125,,
0.9690149999998976,1200,,,,-0.09375,0.05859375,-1.05078125,0.028825708254969523,0.6994793872325039,22.831571943543995,0.33557977513379805,1584,0,7.661813778765627,4.781833936679339,62.411252410388485,0.1462784773572135,0.0912942297254835,0.095703125,,
0.9815449999999255,1200,,,,-0.0625,0.037109375,-0.91796875,0.028825708254969523,0.7504849564407498,22.831596541032194,0.33551599477126,1584,0,7.660365825680476,4.782107570613606,62.42662138382678,0.15693602566628437,0.09796985855751655,0.09765625,,
0.9918199999998324,1200,,,,-0.041015625,0.0546875,-0.97265625,0.028825708254969523,0.7504849564407498,22.831471757956585,0.3353490793286159,1583,0,7.656513033748037,4.779596707527186,62.42524092181249,0.15701846878813908,0.09801915743273676,0.09765625,,
0.9994049999997952,1200,,,,0,0,-1.01953125,0.028825708254969523,0.7504849564407498,22.83155195442142,0.3357583130351815,1583,0,7.665883368191637,4.779046271388961,62.341755566212406,0.15703655370188163,0.09789934445843093,0.09765625,,
1.0069549999998417,1200,,,,-0.0625,0.078125,-0.96875,0.028825708254969523,0.7504849564407498,22.831485590623736,0.3355174213885084,1583,0,7.6603611718349605,4.778862479591514,62.38429719426385,0.15704259322082426,0.09796991807645786,0.09765625,,
1.0159149999998045,1200,,,,-0.0625,-0.017578125,-0.919921875,0.028825708254969523,0.7504849564407498,22.831514104156664,0.3348583820107812,1584,0,7.645323871774232,4.781499644361401,62.54149234951599,0.15695597872223235,0.09816261142467292,0.09765625,,
1.0241649999998044,1200,,,,0,0.037109375,-0.966796875,0.028825708254969523,0.7504849564407498,22.831472457674984,0.33441215899438004,1584,0,7.635121997591815,4.782385044750041,62.63665526573704,0.1569269202329515,0.09829377404545198,0.09765625,,
1.0312849999996834,1200,,,,0,0.06640625,-0.96875,0.028825708254969523,0.7504849564407498,22.831498097582674,0.33399355284183885,1584,0,7.625573166313322,4.782730695821961,62.71962240097725,0.1569155790219067,0.09841685865084696,0.09765625,,
1.0397899999998044,1200,,,,-0.09375,0.017578125,-0.994140625,0.028825708254969523,0.7504849564407498,22.831424850400374,0.33316689094775465,1585,0,7.606674833315197,4.78415254498819,62.89413771224825,0.15686894374364108,0.09866136950587487,0.09765625,,
1.047875,1200,,,,0,0.03515625,-0.9921875,0.028825708254969523,0.7504849564407498,22.8313214178278,0.33129805236694976,1585,0,7.563972318690177,4.784718184209984,63.256685543219106,0.1568503990302752,0.09921836368786556,0.09765625,,
1.0557899999998044,1200,,,,-0.03125,0.04296875,-0.96484375,0.028825708254969523,0.7504849564407498,22.831257371451837,0.33029267565968384,1585,0,7.540997085891708,4.784937286698254,63.452315817099205,0.15684321684362268,0.09952065328931319,0.09765625,,
1.0646049999997484,1200,,,,-0.0625,0.056640625,-1.021484375,0.028825708254969523,0.7504849564407498,22.831224703841787,0.32980280320682653,1585,0,7.52980190797197,4.784574858792427,63.54184236542652,0.15685509759798463,0.09966861885784732,0.095703125,,
1.073269999999786,1200,,,,0,0.0078125,-1.02734375,0.028825708254969523,0.7504849564407498,22.83119704413903,0.32874231185198705,1585,0,7.505580498638518,4.784021517972565,63.7395271270539,0.15687324014353515,0.09999026145637697,0.095703125,,
1.0823549999999813,1200,,,,-0.0625,0.123046875,-0.982421875,0.02765324693635613,0.7504849564407498,22.831395795419816,0.3288216981698025,1585,0,7.507458337036833,4.589212636580317,61.12871268216272,0.1635323999717692,0.09996525092098793,0.09765625,,
1.0903599999998697,1200,,,,-0.03125,-0.001953125,-0.990234375,0.02765324693635613,0.7504849564407498,22.83142436045328,0.3273453240224329,1585,0,7.4737600051662465,4.589142818571016,61.403400903946135,0.1635348879106008,0.10041598284156517,0.095703125,,
1.0991950000000652,1200,,,,-0.0625,0.06640625,-0.986328125,0.02765324693635613,0.7504849564407498,22.831529096004036,0.3279736839045772,1585,0,7.488140706790985,4.589112143750914,61.285068262526835,0.16353598102035924,0.1002231376021201,0.095703125,,
1.1079749999998603,1200,,,,-0.0625,0.1015625,-0.99609375,0.02765324693635613,0.7504849564407498,22.831627765838945,0.32785416068007617,1585,0,7.48544415812905,4.589101146056093,61.30699861106327,0.16353637293127044,0.1002592418815572,0.095703125,,
1.1156750000000466,1200,,,,-0.0625,0.0390625,-0.994140625,0.02765324693635613,0.7504849564407498,22.83174245970181,0.32764927922086223,1585,0,7.480803960277655,4.589369654179286,61.34861545026972,0.16352680498449812,0.10032143074805226,0.095703125,,
1.1241649999998045,1200,,,,-0.03125,0.07421875,-0.982421875,0.02765324693635613,0.7504849564407498,22.831820654437216,0.3269180528187578,1585,0,7.464134350655711,4.590026121190771,61.494419922754275,0.16350341732827756,0.10054547803990438,0.095703125,,
1.1345549999999347,1200,,,,-0.03125,-0.0078125,-0.921875,0.02765324693635613,0.7732744723905395,22.83204940554275,0.326380811010479,1585,0,7.451942802012368,4.590299343039221,61.59869264964873,0.1684583977215214,0.10376817065500285,0.095703125,,
1.1600749999999533,1200,,,,-0.0625,0.05859375,-0.953125,0.02765324693635613,0.7732744723905395,22.831998050763048,0.3235119849343053,1585,0,7.386425009418542,4.588561258001887,62.12154394244771,0.16852220748759622,0.10468859717719,0.095703125,,
1.1681149999999907,1200,,,,0,-0.0078125,-0.9765625,0.02765324693635613,0.7732744723905395,22.831880332814915,0.3241884378286458,1584,0,7.40183161778585,4.588090151666018,61.98587577487311,0.16853951139337348,0.10447069216387461,0.095703125,,
1.1760600000000558,1200,,,,-0.0625,0.06640625,-0.96875,0.02765324693635613,0.7732744723905395,22.83169019611163,0.32320375519462946,1584,0,7.379288008823685,4.586509397302456,62.153820149290816,0.1685975990467476,0.10478984848753795,0.095703125,,
1.1848049999999348,1200,,,,-0.03125,0.064453125,-0.978515625,0.02765324693635613,0.7732744723905395,22.83170721876024,0.32179813393581486,1583,0,7.347200777565918,4.585124831647521,62.40641804219953,0.16864851029861438,0.10524749435889522,0.095703125,,
1.1931399999998975,1200,,,,-0.0625,0.033203125,-1.015625,0.02765324693635613,0.7732744723905395,22.831787047837686,0.3217809181459383,1583,0,7.346833399165752,4.584654610953306,62.40313835718533,0.16866580757099808,0.10525275725979391,0.095703125,,
1.2007299999997485,1200,,,,0,0.0390625,-0.91015625,0.02765324693635613,0.7732744723905395,22.83179750202241,0.32155210500620085,1583,0,7.341612547850625,4.584879326330059,62.450576034175974,0.1686575408756729,0.10532760580193354,0.095703125,,
1.2090999999998604,1200,,,,-0.0625,0.060546875,-0.93359375,0.02765324693635613,0.7732744723905395,22.831708793939836,0.32068925880827903,1583,0,7.321883770455032,4.585380398047428,62.625692264471176,0.16863911066567552,0.10561141048302697,0.095703125,,
1.2170449999999255,1200,,,,-0.03125,0.02734375,-1.02734375,0.02765324693635613,0.7732744723905395,22.831723024265337,0.3201972898988182,1584,0,7.31065583609021,4.585575441117106,62.72454269396306,0.1686319377622451,0.10577361179733666,0.095703125,,
1.225125,1200,,,,-0.0625,0.1015625,-1.01171875,0.02765324693635613,0.7732744723905395,22.83193254571637,0.3204711091650441,1583,0,7.316974747307195,4.585106423215507,62.66396402287605,0.16864918739405113,0.10568226611348103,0.095703125,,
1.2333850000000093,1200,,,,0,0.0625,-0.99609375,0.027345685504234312,0.7732744723905395,22.831935893859715,0.32062559104419336,1583,0,7.320502940651904,4.532844921180853,61.91985657172887,0.1705936306749037,0.10563133143440524,0.09375,,
1.2429949999998788,1200,,,,0,-0.046875,-0.96484375,0.027345685504234312,0.7732744723905395,22.832171341095137,0.32193027593824886,1583,0,7.350367220108135,4.532303371174908,61.66091074709913,0.1706140143461058,0.1052021551079952,0.095703125,,
1.250244999999879,1200,,,,-0.0625,0.08984375,-0.927734375,0.027345685504234312,0.7732744723905395,22.832231686898734,0.32213047652808136,1583,0,7.354957673500248,4.53212778366984,61.62003895683856,0.1706206244176966,0.10513649523458586,0.095703125,,
1.2585649999997113,1200,,,,0,0.04296875,-0.953125,0.027345685504234312,0.7732744723905395,22.832285976329057,0.3214559259783383,1583,0,7.339573630723084,4.532063417188982,61.748320068866036,0.1706230476514744,0.10535686557508622,0.09375,,
1.2661399999998975,1200,,,,-0.09375,0.037109375,-1.025390625,0.027345685504234312,0.7732744723905395,22.83218551181192,0.3224100379585008,1583,0,7.361325797538814,4.532039643035444,61.56553544404577,0.170623942705104,0.10504554392213913,0.09375,,
1.2748299999998416,1200,,,,0.0625,0.015625,-0.98046875,0.027345685504234312,0.7951408483916957,22.832175591232822,0.32305777023262533,1583,0,7.376111736063449,4.532028276336708,61.441968865230365,0.17544922491843265,0.1077994581486714,0.09375,,
1.282369999999879,1200,,,,-0.09375,0.041015625,-0.923828125,0.027345685504234312,0.7951408483916957,22.83216755427229,0.32278424731025757,1583,0,7.369864018467465,4.534113886265096,61.52235475313353,0.17536852146576326,0.10789084390149199,0.09375,,
1.2938099999998232,1200,,,,-0.03125,0.029296875,-1.015625,0.027345685504234312,0.7951408483916957,22.832264282840736,0.32317195647062624,1584,0,7.378747518940041,4.53617105158146,61.47616570343205,0.17528899138723686,0.10776095080509246,0.09375,,
1.302369999999879,1200,,,,-0.0625,0.083984375,-1.001953125,0.027345685504234312,0.7951408483916957,22.83231676116495,0.3227394401708311,1584,0,7.36888912930146,4.537040563609574,61.57021070609685,0.1752553977077733,0.10790511764248405,0.09375,,
1.3097349999998695,1200,,,,0,0.07421875,-0.98828125,0.027345685504234312,0.7951408483916957,22.83236238656574,0.32307082639791557,1584,0,7.376470184844478,4.5368515555018085,61.50437054328663,0.17526269895858373,0.1077942197916523,0.09375,,
1.3170499999998138,1200,,,,-0.03125,-0.01171875,-0.986328125,0.027345685504234312,0.7951408483916957,22.83234726235066,0.32336572606565855,1584,0,7.383198550273272,4.5367747052235865,61.44728025844122,0.17526566780496736,0.10769598609294687,0.09375,,
1.3251550000000278,1200,,,,-0.03125,0.052734375,-0.9609375,0.027345685504234312,0.7951408483916957,22.832133850741084,0.3224184643845665,1584,0,7.361501534778819,4.53673716901579,61.62787778529071,0.17526711792391433,0.10801340523195126,0.09375,,
1.3330949999999722,1200,,,,-0.03125,0.033203125,-0.99609375,0.027345685504234312,0.7951408483916957,22.832127191150096,0.3230209115257005,1584,0,7.375254537356036,4.536585414927735,61.51089961640919,0.1752729808139988,0.10781198728318694,0.09375,,
1.3412999999998136,1200,,,,-0.0625,-0.05078125,-1.0078125,0.027345685504234312,0.7951408483916957,22.83199164489844,0.32800640391480207,1584,0,7.489039473655944,4.536258062023295,60.57196090340299,0.17528562915070162,0.10617394275844694,0.09375,,
1.3497599999997765,1200,,,,0,0.064453125,-0.921875,0.027345685504234312,0.7951408483916957,22.83199209274697,0.3322819185691979,1584,0,7.5866581373347195,4.536126833749288,59.79084270881463,0.17529070009148762,0.10480778677488135,0.09375,,
1.3574899999997578,1200,,,,-0.125,0.03125,-0.98046875,0.027345685504234312,0.7951408483916957,22.832065132608733,0.33240083979228663,1584,0,7.589397624271329,4.536072655669473,59.76854659930918,0.17529279373377718,0.10476995510800352,0.09375,,
1.3647649999996647,1200,,,,-0.09375,0.046875,-0.990234375,0.027345685504234312,0.7951408483916957,22.832148068653733,0.330068828515501,1588,0,7.536180365512997,4.548173891897862,60.35118151777756,0.17482639566797645,0.10550979539056847,0.09375,,
1.3732299999999813,1200,,,,0.0625,0.0078125,-0.97265625,0.027345685504234312,0.7951408483916957,22.83200890589895,0.32921304289946995,1590,0,7.516595127418791,4.553909289556596,60.58473567300431,0.1746062114621341,0.1057847116829809,0.09375,,
1.3811849999998231,1200,,,,-0.09375,0.068359375,-0.978515625,0.027345685504234312,0.7951408483916957,22.83191113246344,0.3302096611223277,1591,0,7.539317637825853,4.556139132792153,60.43171745322601,0.17452075654774993,0.10546589049416866,0.09375,,
1.3888599999998696,1200,,,,-0.0625,0.048828125,-0.939453125,0.027526705555519147,0.7951408483916957,22.831817266834733,0.329565494833443,1591,0,7.5245791554911365,4.587192790301123,60.9627820441436,0.17333931333186875,0.10567246778332232,0.09375,,
1.3971499999999069,1200,,,,-0.0625,0.0390625,-0.87890625,0.027526705555519147,0.7951408483916957,22.831957384993473,0.32810126603460565,1591,0,7.491194124064522,4.58754470953122,61.23916472534475,0.17332601614534401,0.10614340453912487,0.09375,,
1.4062999999998138,1200,,,,-0.0625,0.041015625,-1.001953125,0.027526705555519147,0.7951408483916957,22.831959794591903,0.32749010566718734,1592,0,7.477240925719875,4.58769248917092,61.35541886032298,0.17332043293411592,0.10634147759725199,0.09375,,
1.4172199999997392,1200,,,,-0.0625,0.107421875,-0.958984375,0.027526705555519147,0.7951408483916957,22.83196181085546,0.3269787090946191,1591,0,7.465565399011161,4.585404691818712,61.42072899697677,0.1734069077502336,0.10650778687130848,0.09375,,
1.4252399999997578,1200,,,,0,0.005859375,-0.970703125,0.027526705555519147,0.8208640951495353,22.831893453797953,0.3272028985692031,1588,0,7.470661717905903,4.5788183746522595,61.29066671132507,0.17927422054863143,0.10987836501578754,0.09375,,
1.4321399999998976,1200,,,,-0.0625,0.0625,-0.990234375,0.027526705555519147,0.8208640951495353,22.83189805627741,0.32732837533027015,1588,0,7.473528096467637,4.577356630924719,61.247600488559165,0.1793314703957651,0.10983622253825695,0.09375,,
1.4397649999998976,1200,,,,-0.125,0.05859375,-0.94921875,0.027526705555519147,0.8208640951495353,22.831902593898416,0.3268766481875546,1588,0,7.463215791638247,4.576705654949238,61.323506953623905,0.17935697793058963,0.10998798883307484,0.09375,,
1.4504849999998697,1200,,,,0,0.056640625,-0.998046875,0.027526705555519147,0.8208640951495353,22.83197309176541,0.3268229987194469,1587,0,7.462013912532493,4.57599763020016,61.32389571821552,0.17938472907680017,0.11000570419346038,0.09375,,
1.4589549999998417,1200,,,,-0.03125,0.072265625,-0.978515625,0.027526705555519147,0.8208640951495353,22.83216005235068,0.3267511088890069,1587,0,7.4604336154368704,4.575672262627934,61.33252433424394,0.17939748479234188,0.11002900601528465,0.091796875,,
1.465899999999907,1200,,,,-0.125,0.0390625,-0.9765625,0.027526705555519147,0.8208640951495353,22.832259160411468,0.3261974537005615,1587,0,7.447824800357542,4.575238120266276,61.43052828050729,0.17941450774189685,0.1102152799177189,0.09375,,
1.4740349999999163,1200,,,,-0.0625,0.021484375,-1.0078125,0.027526705555519147,0.8208640951495353,22.832245869898365,0.32573020790190715,1587,0,7.437152194069456,4.5741635677695465,61.50423506751794,0.17945665540548325,0.11037344318489407,0.091796875,,
1.48308499999973,1200,,,,-0.03125,0.076171875,-0.9375,0.027526705555519147,0.8208640951495353,22.832091121320317,0.32619491066598444,1587,0,7.447711923636698,4.573749125893902,61.41146667311686,0.17947291654067363,0.11021695032864665,0.091796875,,
1.4913199999998323,1200,,,,-0.0625,0.10546875,-0.95703125,0.027526705555519147,0.8208640951495353,22.83228342920138,0.32745590722235235,1587,0,7.476566084267019,4.573602207379405,61.17249758553813,0.17947868177627893,0.10979159227614992,0.091796875,,
1.4991399999998976,1200,,,,-0.03125,0.03515625,-1.02734375,0.027526705555519147,0.8208640951495353,22.83236805789238,0.32694526828184395,1586,0,7.464934700197429,4.570805683032495,61.23035052016742,0.1795884909736382,0.10996266251703787,0.091796875,,
1.5072749999999069,1200,,,,-0.0625,0.009765625,-0.9296875,0.027526705555519147,0.8208640951495353,22.83234998836584,0.32710181502039853,1585,0,7.468503122375442,4.5683425721263315,61.168114912340265,0.17968531960760217,0.10991012277818399,0.091796875,,
1.5162199999999721,1200,,,,-0.0625,0.03125,-0.96484375,0.027526705555519147,0.8208640951495353,22.83240389797889,0.32631684858216126,1584,0,7.450598085543525,4.567319098056579,61.30137534755226,0.17972558464303878,0.11017425523761194,0.091796875,,
1.5242849999999162,1200,,,,0,0.0234375,-0.97265625,0.027526705555519147,0.8208640951495353,22.832577597282327,0.325662014636555,1584,0,7.4357032196764345,4.566703375936446,61.415890885101334,0.17974981678796015,0.11039495134466316,0.091796875,,
1.533614999999758,1200,,,,-0.0625,0.099609375,-0.958984375,0.027922663155071487,0.8208640951495353,22.832619732193134,0.3263939545414,1584,0,7.4524290469305186,4.631977656050221,62.15393164941335,0.17721676486874555,0.11014718690782169,0.091796875,,
1.5420949999997393,1200,,,,-0.09375,-0.001953125,-0.998046875,0.027922663155071487,0.8208640951495353,22.832586149581388,0.32553641879858897,1584,0,7.432838327044989,4.6318323576594125,62.31579584889009,0.17722232407485913,0.1104375016691476,0.091796875,,
1.5506299999998883,1200,,,,-0.03125,0.041015625,-0.95703125,0.027922663155071487,0.8208640951495353,22.832556687991367,0.32685961494625776,1584,0,7.463040687275461,4.631501512825299,62.059175433976165,0.17723498370376078,0.10999056946709598,0.091796875,,
1.558024999999674,1200,,,,-0.0625,0.0859375,-0.9453125,0.027922663155071487,0.8208640951495353,22.832529987001074,0.32722479418063016,1584,0,7.471369925619492,4.631240339687166,61.98649492386318,0.1772449786540302,0.10986794969618278,0.091796875,,
1.5663449999999721,1200,,,,-0.03125,0.0625,-0.982421875,0.027922663155071487,0.8208640951495353,22.83250377807613,0.32704603754109823,1584,0,7.467279887761953,4.6311337361157685,62.019019050105314,0.17724905863720786,0.10992812744234227,0.091796875,,
1.5743449999999721,1200,,,,0,0.015625,-0.98046875,0.027922663155071487,0.8372682985182657,22.83247916735273,0.3261356482939892,1584,0,7.4464853954035854,4.631092280636088,62.19165196368578,0.18079283412665348,0.11243805017533205,0.091796875,,
1.5817999999998138,1200,,,,-0.0625,0.01171875,-0.970703125,0.027922663155071487,0.8372682985182657,22.832456003601433,0.326959843573264,1583,0,7.4652962433309575,4.629841013773948,62.01818203678076,0.1808416954334634,0.11215473187232594,0.091796875,,
1.5902849999999162,1200,,,,-0.0625,0.09765625,-0.96484375,0.027922663155071487,0.8372682985182657,22.83256554072781,0.3262561365656342,1583,0,7.449264621199485,4.629336461624359,62.14487868305771,0.18086140539987494,0.11239610097022547,0.091796875,,
1.6003499999998603,1200,,,,0,-0.03515625,-0.94921875,0.027922663155071487,0.8372682985182657,22.83243843166895,0.32644808673789744,1583,0,7.453605841579169,4.629138962630461,62.106033791152306,0.18086912172593247,0.11233063785686805,0.091796875,,
1.6198849999997764,1200,,,,-0.08203125,0.009765625,-0.962890625,0.027922663155071487,0.8372682985182657,22.832582494559265,0.3258487343190797,1583,0,7.439968107088111,4.628486065733232,62.2111008960326,0.1808946352279075,0.11253654403714368,0.091796875,,
1.6283699999998789,1200,,,,0,0.08984375,-0.9921875,0.027922663155071487,0.8372682985182657,22.832554206497857,0.3262678414621006,1583,0,7.44952817602046,4.628391106213261,62.12998993831243,0.18089834659700582,0.11239212453929326,0.091796875,,
1.6366349999997765,1200,,,,-0.03125,0.08984375,-0.970703125,0.027922663155071487,0.8372682985182657,22.832625353309258,0.32581719057763325,1584,0,7.439261846126863,4.630428727535003,62.24312066587311,0.18081874223426034,0.11254722791538473,0.091796875,,
1.6456449999997858,1200,,,,-0.03125,0.013671875,-0.970703125,0.027922663155071487,0.8372682985182657,22.832664575791725,0.3243733370147143,1584,0,7.406307601387218,4.631279128750973,62.53155253615882,0.18078554007261313,0.11304800496828452,0.091796875,,
1.65475,1200,,,,-0.0625,0.033203125,-0.927734375,0.027922663155071487,0.8372682985182657,22.832774902140063,0.32445131081643913,1584,0,7.408123746576036,4.631581538142465,62.520304689606974,0.18077373606037372,0.11302029058373156,0.091796875,,
1.6623649999999908,1200,,,,-0.0625,0.046875,-0.9609375,0.027922663155071487,0.8372682985182657,22.8327370733302,0.3240926504069865,1584,0,7.399922274141444,4.632097124343586,62.5965645683895,0.18075361462480452,0.11314555308831369,0.091796875,,
1.670054999999702,1200,,,,-0.03125,0.021484375,-1.01171875,0.027922663155071487,0.8372682985182657,22.832604726443193,0.3246996699664959,1584,0,7.41373921915156,4.632300056478183,62.48264093929529,0.18074569615743308,0.11293468434327854,0.091796875,,
1.67833499999973,1200,,,,0,0.046875,-0.94140625,0.027922663155071487,0.8372682985182657,22.832706151903796,0.32453947335666783,1584,0,7.4101144298464074,4.632381760350106,62.51430803405452,0.18074250824590646,0.11298992835332235,0.091796875,,
1.6950499999998137,1200,,,,-0.03125,0.09375,-0.98046875,0.02802562535891228,0.8372682985182657,22.83264076014295,0.32686730769283007,1583,0,7.4632438127855,4.6470102638217154,62.26528812928217,0.18017354190857623,0.11218557500210793,0.091796875,,
1.705524999999907,1200,,,,-0.09375,0.029296875,-0.97265625,0.02802562535891228,0.8372682985182657,22.83263544513632,0.3275414193424591,1583,0,7.4786338210288905,4.645319412246811,62.11454556291833,0.18023912334443815,0.1119547123919856,0.091796875,,
1.7135199999997859,1200,,,,0.03125,0.009765625,-0.955078125,0.02802562535891228,0.8372682985182657,22.832693684685307,0.32737388830391173,1583,0,7.474827712007598,4.64574662330206,62.15188901062041,0.18022254901261925,0.11201171863443407,0.091796875,,
1.721429999999702,1200,,,,-0.0625,0.015625,-1.03125,0.02802562535891228,0.8372682985182657,22.832594012111297,0.32601562198845385,1583,0,7.443782338468312,4.646365885304017,62.4194216600386,0.18019852917017581,0.11247887974791969,0.091796875,,
1.7293499999998603,1200,,,,-0.0625,0.048828125,-0.951171875,0.02802562535891228,0.8457443087329061,22.832663157651833,0.32557711238275056,1583,0,7.433792538876299,4.646609772636911,62.5065839319118,0.18201319889467577,0.11377023293425806,0.091796875,,
1.7369699999999721,1200,,,,0,0.01953125,-0.9765625,0.02802562535891228,0.8457443087329061,22.832760870113336,0.3255873670090484,1583,0,7.43405849324743,4.646705342785947,62.50563332272249,0.18200945537593252,0.11376616278996461,0.091796875,,
1.7442299999997486,1200,,,,-0.09375,0.009765625,-0.9765625,0.02802562535891228,0.8457443087329061,22.832898880841935,0.3255033762608562,1584,0,7.432185675536775,4.64789397595428,62.5373770094703,0.18196290903113008,0.1137948304381973,0.091796875,,
1.7545999999998603,1200,,,,0,0.02734375,-1.00390625,0.02802562535891228,0.8457443087329061,22.832788248477893,0.32616303129557983,1584,0,7.447211428053643,4.64846352338029,62.41884721937032,0.18194061424362734,0.11356523403471368,0.091796875,,
1.7729199999999254,1200,,,,-0.0625,0.029296875,-0.990234375,0.02802562535891228,0.8457443087329061,22.83285256621268,0.3258714784580868,1584,0,7.440575423167247,4.649705585262461,62.49120962855868,0.18189201299401553,0.11366651913769543,0.091796875,,
1.7814899999997578,1200,,,,-0.03125,0.044921875,-1.03515625,0.02802562535891228,0.8457443087329061,22.8330259636028,0.3232383886777026,1584,0,7.380510521111117,4.650025495482307,63.00411715668495,0.181879499274699,0.1145915728070233,0.091796875,,
1.7890549999999348,1200,,,,-0.03125,0.05859375,-0.958984375,0.02802562535891228,0.8457443087329061,22.833073395356248,0.32230481790085175,1584,0,7.359209562807078,4.650133125026119,63.18794274493229,0.18187528958714613,0.1149232538515057,0.091796875,,
1.7970549999999348,1200,,,,-0.0625,0.1171875,-0.97265625,0.02802562535891228,0.8457443087329061,22.8330863457362,0.3218307692902025,1585,0,7.348389743917899,4.65059567232702,63.28727563989398,0.18185720030778785,0.1150924676297838,0.091796875,,
1.8058999999999068,1200,,,,0,0.041015625,-0.98828125,0.02802562535891228,0.8457443087329061,22.833233000002945,0.32192067356542714,1585,0,7.350489747037287,4.6507773546238225,63.27166644233986,0.18185009606879238,0.11505958620972087,0.091796875,,
1.8156749999998136,1200,,,,-0.03125,-0.021484375,-0.9453125,0.02802562535891228,0.8457443087329061,22.8333983782689,0.32189237163503714,1585,0,7.349896756468587,4.650853600785891,63.27780858544321,0.18184711481565324,0.11506886923120017,0.091796875,,
1.8236599999996834,1200,,,,-0.0625,0.06640625,-1.00390625,0.02802562535891228,0.8457443087329061,22.833395232921728,0.3225064851899106,1584,0,7.3639180415216465,4.648800210819534,63.12943985263213,0.18192743726962843,0.11484977208656512,0.091796875,,
1.8330199999997858,1200,,,,-0.0625,0.103515625,-0.958984375,0.028553556587829522,0.8457443087329061,22.833465532120382,0.32196765852624903,1584,0,7.351637433416612,4.735489491293533,64.4140782809627,0.1785970194396704,0.11504162390933546,0.091796875,,
1.8417999999998138,1200,,,,-0.03125,-0.0234375,-0.95703125,0.028553556587829522,0.8457443087329061,22.833494920852456,0.3231331239374892,1584,0,7.378258544185847,4.7351757751393,64.17741729680472,0.17860885189801132,0.11462654821161862,0.091796875,,
1.849619999999879,1200,,,,-0.0625,0.01953125,-1.03515625,0.028553556587829522,0.8457443087329061,22.833292329647048,0.3226278113149145,1584,0,7.366655129427653,4.736197286365242,64.29237154655858,0.17857032923178037,0.11480709954160914,0.09375,,
1.858554999999702,1200,,,,-0.09375,0.072265625,-0.9453125,0.028553556587829522,0.8457443087329061,22.833147743485178,0.32304070782192934,1584,0,7.376036208858141,4.7372275103321115,64.22456962240788,0.17853149482229824,0.11466108419007245,0.091796875,,
1.866684999999823,1200,,,,0,0.029296875,-0.953125,0.028553556587829522,0.8457443087329061,22.833156920999322,0.32381822728501025,1584,0,7.393792397478463,4.737576250906702,64.07505101877594,0.17851835283306378,0.11438572565566406,0.091796875,,
1.875434999999823,1200,,,,0,0.0390625,-1.05078125,0.028553556587829522,0.8575861297369414,22.833202615700458,0.32486637726706025,1584,0,7.417739815167372,4.737422391716002,63.86611703512693,0.18102378441840902,0.115612862018077,0.091796875,,
1.8833199999998325,1200,,,,-0.09375,0.05859375,-0.939453125,0.028553556587829522,0.8575861297369414,22.83320910470087,0.3240542160303749,1584,0,7.399197675881458,4.736801712683686,64.01777490178212,0.18104750457267224,0.115902583942627,0.091796875,,
1.891744999999879,1200,,,,0,-0.009765625,-1.00390625,0.028553556587829522,0.8575861297369414,22.833150383947675,0.32403299301208993,1584,0,7.398694058805716,4.736560232449894,64.018868665242,0.18105673477171674,0.11591047324308087,0.091796875,,
1.8996350000000093,1200,,,,-0.03125,0.068359375,-0.96484375,0.028553556587829522,0.8575861297369414,22.833159546371544,0.32390385827415646,1584,0,7.395748473659131,4.735892444174167,64.03533680251068,0.18108226482041337,0.11595663816736601,0.091796875,,
1.9108799999998882,1200,,,,-0.125,0.1640625,-0.91796875,0.028553556587829522,0.8575861297369414,22.833023235572146,0.32329466520605105,1583,0,7.3817946025862815,4.734426169324517,64.13651996854215,0.18113834688001845,0.11617583201739018,0.091796875,,
1.9196399999998977,1200,,,,-0.03125,-0.001953125,-0.9453125,0.028553556587829522,0.8575861297369414,22.83295106418537,0.3216331944041955,1583,0,7.343834988448616,4.733837223644934,64.46001620530633,0.181160882645775,0.11677633431114257,0.091796875,,
1.9276249999997672,1200,,,,-0.03125,-0.01171875,-0.95703125,0.028553556587829522,0.8575861297369414,22.833028981602492,0.3214273200117197,1583,0,7.339159313306415,4.734378466224467,64.50845749649694,0.18114017201097193,0.11685073087077931,0.091796875,,
1.9356699999999254,1200,,,,-0.0625,0.048828125,-0.962890625,0.028553556587829522,0.8575861297369414,22.832978860356278,0.32280260291379775,1584,0,7.370545008398726,4.736021865597185,64.25606057897339,0.18107731637949367,0.11635315010758676,0.091796875,,
1.944614999999758,1200,,,,0.0625,0.00390625,-1.05078125,0.028553556587829522,0.8575861297369414,22.8328516784361,0.3263122365074279,1584,0,7.450638897032863,4.736714817306041,63.57461263076898,0.18105082590230434,0.11510236123219794,0.091796875,,
1.9526349999997765,1200,,,,-0.03125,0.0703125,-0.962890625,0.028553556587829522,0.8575861297369414,22.832679372590388,0.32798835086553824,1584,0,7.488852853257513,4.736948880592721,63.253330962862165,0.1810418797742301,0.1145150193949808,0.091796875,,
1.9603849999997764,1200,,,,-0.09375,0.001953125,-0.984375,0.028553556587829522,0.8575861297369414,22.83264596856905,0.32681254127389886,1587,0,7.461995052995293,4.744281128834034,63.57925856476746,0.1807620810084043,0.11492719087138777,0.09375,,
1.9701099999998697,1200,,,,0.0625,0.05078125,-0.9921875,0.028553556587829522,0.8575861297369414,22.83254988394067,0.32591906118644864,1588,0,7.4415632226667,4.747146842183038,63.79233368230241,0.18065296024054928,0.1152427392036083,0.09375,,
1.9776999999999534,1200,,,,-0.08203125,0.07421875,-0.984375,0.028553556587829522,0.8575861297369414,22.832516937829862,0.3259111598084651,1588,0,7.441372076554554,4.748411325386842,63.81096492067111,0.18060485306990035,0.11524569943746371,0.09375,,
1.9863199999998324,1200,,,,0.0625,-0.05859375,-1.015625,0.028914419189280272,0.8575861297369414,22.8325912904329,0.32612260225083944,1590,0,7.44622408776583,4.814936445490934,64.6627926951848,0.1781095429701983,0.1151706045411604,0.09375,,
1.996749999999767,1200,,,,-0.0625,0.091796875,-0.95703125,0.028914419189280272,0.8575861297369414,22.832616328097522,0.3247732360439066,1591,0,7.415422692225173,4.817716941780654,64.9688782654544,0.1780067488605864,0.11564898797152753,0.09375,,
2.004614999999758,1200,,,,-0.03125,-0.0390625,-0.947265625,0.028914419189280272,0.8575861297369414,22.832586339726998,0.3234491284721926,1591,0,7.385180152350787,4.818526332678702,65.2458874837997,0.1779768482162044,0.1161225741343577,0.09375,,
2.0126749999998137,1200,,,,-0.125,0.12109375,-1.0625,0.028914419189280272,0.8575861297369414,22.832557724777487,0.3227150550448025,1589,0,7.368410122965198,4.811081745434107,65.29334910986239,0.17825224660770358,0.11638686167374071,0.09375,,
2.0205799999998417,1200,,,,-0.03125,0.0859375,-0.9375,0.028914419189280272,0.8575861297369414,22.832925166617322,0.32211637897521,1588,0,7.354859176082716,4.808119047135832,65.37336653258251,0.17836208324496464,0.11660129843488067,0.09375,,
2.0283799999998884,1200,,,,-0.0625,0.04296875,-0.9765625,0.028914419189280272,0.8788466645214549,22.833073690645236,0.3218744358858108,1588,0,7.349382713715583,4.806971501454862,65.40646594011201,0.18282751712912504,0.11958101772021362,0.09375,,
2.0365749999997207,1200,,,,-0.0625,-0.00390625,-0.974609375,0.028914419189280272,0.8788466645214549,22.833217226962013,0.3219598547023167,1587,0,7.351379300779124,4.805934439810735,65.37459493215628,0.18286696906253783,0.11954854028934567,0.095703125,,
2.0453899999998977,1200,,,,-0.0625,0.056640625,-0.962890625,0.028914419189280272,0.8788466645214549,22.833223740652404,0.3236264204147864,1587,0,7.389434465717256,4.804272149100904,65.0154240001718,0.1829302415113862,0.11893287214316603,0.09375,,
2.0532449999998788,1200,,,,0,0.03515625,-1,0.028914419189280272,0.8788466645214549,22.83316350524348,0.3242676544290284,1586,0,7.404056373039795,4.8037191229583645,64.87955900025324,0.18295130127845988,0.11869799745468944,0.09375,,
2.0641149999997577,1200,,,,-0.125,0.1484375,-0.98828125,0.028914419189280272,0.8788466645214549,22.833171860191865,0.32604397991960127,1586,0,7.444618227485201,4.803502697435706,64.52315687191839,0.18295954429058967,0.11805127377476415,0.09375,,
2.080649999999907,1200,,,,0,-0.015625,-0.990234375,0.028914419189280272,0.8788466645214549,22.83310620895862,0.32491487274959374,1586,0,7.418815798361749,4.800877538630971,64.7121814197236,0.18305958805440992,0.11846185272796841,0.095703125,,
2.088954999999842,1200,,,,-0.03125,0.09375,-0.970703125,0.028914419189280272,0.8788466645214549,22.83318322966168,0.3249580005818219,1585,0,7.419825569229246,4.800659193483141,64.7004319534404,0.18306791403032371,0.11844573114577238,0.095703125,,
2.096774999999907,1200,,,,-0.0625,0.0546875,-0.984375,0.028914419189280272,0.8788466645214549,22.83312562502479,0.32520983695472444,1585,0,7.425557061681052,4.800145784987119,64.64357818698693,0.1830874943986338,0.11835430759217615,0.09375,,
2.113864999999758,1200,,,,-0.0625,0.0703125,-0.98828125,0.028914419189280272,0.8788466645214549,22.833070126592702,0.3252718378888466,1585,0,7.426954684721728,4.799851313236636,64.62744848989847,0.18309872684969294,0.11833203538044522,0.095703125,,
2.122024999999907,1200,,,,-0.0625,0.060546875,-0.97265625,0.028914419189280272,0.8788466645214549,22.832915986605745,0.32682401416648216,1585,0,7.462345257868533,4.800260649260627,64.32643469824826,0.18308311334236016,0.11777083934769317,0.09375,,
2.1301499999999067,1200,,,,0,0.0546875,-1.046875,0.028914419189280272,0.8788466645214549,22.832871291216343,0.32677339033047786,1585,0,7.4611747628102,4.800416391361707,64.33861347530832,0.1830771734933097,0.11778931501538015,0.09375,,
2.1409799999997485,1200,,,,-0.0625,0.0625,-0.94921875,0.029244106664946097,0.8788466645214549,22.832698462008413,0.32383840831895433,1585,0,7.394104727563441,4.8552209625065545,65.66340539386006,0.18101064221549698,0.11885775180399138,0.09375,,
2.1491299999996554,1200,,,,-0.041015625,0.00390625,-0.953125,0.029244106664946097,0.8788466645214549,22.832771986777608,0.32437744880671787,1586,0,7.406436326256416,4.855710250953881,65.56068312826771,0.18099240257361107,0.1186598555375238,0.09375,,
2.1564249999998135,1200,,,,-0.03125,0.083984375,-0.96484375,0.029244106664946097,0.8788466645214549,22.83255813511258,0.322591257273329,1586,0,7.365583635572343,4.855861912549107,65.92636989549005,0.18098674969529768,0.11931799406594669,0.09375,,
2.1637799999997953,1200,,,,0,0.01953125,-0.95703125,0.029244106664946097,0.8788466645214549,22.832652396096243,0.32312254268441143,1586,0,7.377744698455937,4.855926113620305,65.81857074339513,0.18098435683697756,0.11912131693922474,0.091796875,,
2.183769999999786,1200,,,,-0.01953125,0.0234375,-0.96484375,0.029244106664946097,0.8876002334443102,22.833177324177804,0.32316264112019943,1585,0,7.3788298892471476,4.854353207918884,65.78757446343796,0.18284624035934838,0.12029010653000308,0.09375,,
2.201625,1200,,,,-0.03125,0.015625,-0.99609375,0.029244106664946097,0.8876002334443102,22.83309266333495,0.3220998023692341,1585,0,7.354534634338595,4.853599048408664,65.9946453409442,0.18287465128280947,0.12068747753257858,0.09375,,
2.217749999999767,1200,,,,-0.03125,0.056640625,-0.98828125,0.029244106664946097,0.8876002334443102,22.833396926886394,0.3206620837203549,1585,0,7.321804636989339,4.853203699087302,66.28425558596844,0.18288954852878586,0.1212269757868442,0.09375,,
2.2260049999998883,1200,,,,-0.03125,-0.001953125,-0.96875,0.029244106664946097,0.8876002334443102,22.833240937713356,0.31873405143728684,1585,0,7.277731391521092,4.852635527572105,66.67785971361432,0.1829109621773714,0.12196111476144987,0.09375,,
2.233839999999851,1200,,,,-0.125,0.1171875,-0.96875,0.029244106664946097,0.8876002334443102,22.8333112176484,0.31886791546814147,1584,0,7.280810351206877,4.852046115114134,66.64156709300705,0.18293318166936492,0.12190953899756232,0.09375,,
2.241339999999851,1200,,,,-0.0625,0.064453125,-0.986328125,0.029244106664946097,0.8876002334443102,22.833342136856313,0.3187888165265702,1584,0,7.279014117154691,4.85182634163937,66.65499288158972,0.18294146800489183,0.12193962247613638,0.09375,,
2.2505099999997764,1200,,,,-0.0625,0.10546875,-0.9921875,0.029244106664946097,0.8876002334443102,22.833416904195342,0.3186937719406735,1584,0,7.2768677594919495,4.851721628793285,66.67321420627299,0.18294541636039272,0.1219755893305226,0.09375,,
2.2603849999997765,1200,,,,0,0.041015625,-0.947265625,0.029244106664946097,0.8876002334443102,22.83382922023164,0.318385061383543,1584,0,7.269950117904788,4.850790392046333,66.72384697798091,0.1829805375428459,0.12209165386957539,0.09375,,
2.2692949999996928,1200,,,,-0.0625,0.048828125,-0.94140625,0.029244106664946097,0.8876002334443102,22.83404463415253,0.31883985169365975,1584,0,7.2804034047196,4.850412484934238,66.62285336812388,0.18299479398943208,0.12191635327087971,0.09375,,
2.2768999999999067,1200,,,,-0.03125,-0.017578125,-0.986328125,0.029244106664946097,0.8876002334443102,22.834128953868227,0.3201694628119335,1584,0,7.310790800938407,4.850310105689345,66.34453423378991,0.18299865660201142,0.12140960637669711,0.091796875,,
2.285814999999944,1200,,,,-0.0625,0.1015625,-0.96484375,0.029170336746169652,0.8876002334443102,22.834083914287138,0.3202418468072433,1584,0,7.312429202862881,4.838954568093438,66.17437836114631,0.18342809814683322,0.12138240368834023,0.091796875,,
2.2940049999998884,1200,,,,-0.03125,-0.001953125,-0.9609375,0.029170336746169652,0.8876002334443102,22.8341755587476,0.32164851017079277,1584,0,7.344578549449495,4.839236656840945,65.88855472454121,0.183417405757489,0.12085107776685693,0.091796875,,
2.3017399999997576,1200,,,,0,0.0234375,-0.98046875,0.029170336746169652,0.8876002334443102,22.834069613400263,0.32206131166426644,1584,0,7.353970410324858,4.839351241926543,65.80596564723963,0.1834130628408276,0.12069673712558504,0.091796875,,
2.3098049999999346,1200,,,,-0.09375,0.05859375,-0.947265625,0.029170336746169652,0.8876002334443102,22.833968211305447,0.3218183270841241,1585,0,7.3483894504543885,4.841130946375856,65.88016298015484,0.18334563623171177,0.12078840396645353,0.091796875,,
2.3180999999998604,1200,,,,-0.03125,0.029296875,-1.001953125,0.029170336746169652,0.8876002334443102,22.834202810861342,0.32201641475603726,1585,0,7.352988122965797,4.841839304849256,65.84859412089355,0.18331881286422502,0.1207128610302039,0.091796875,,
2.32575,1200,,,,-0.0625,0.0859375,-0.99609375,0.029170336746169652,0.8896015869531909,22.83428936098274,0.3227203978944923,1585,0,7.369090948214322,4.8421097840994864,65.70837323256033,0.18372189533464597,0.12072066869642302,0.091796875,,
2.3338799999998883,1200,,,,0.0625,0.04296875,-0.99609375,0.029170336746169652,0.8896015869531909,22.834242306172868,0.32223015088811063,1584,0,7.357881343733762,4.840048234141777,65.78046054335651,0.18380014907246733,0.12090458453924482,0.091796875,,
2.3415,1200,,,,-0.09375,0.072265625,-0.94140625,0.029170336746169652,0.8896015869531909,22.834327690148108,0.32229751368089604,1583,0,7.359447041109573,4.837089865850881,65.72626773222355,0.18391256140053192,0.12087886249930362,0.09375,,
2.3498199999998324,1200,,,,-0.03125,0.017578125,-1.0078125,0.029170336746169652,0.8896015869531909,22.83434454967566,0.32312202661066175,1583,0,7.378279687217318,4.835896021347688,65.54232458449299,0.18395796415516663,0.12057032596560457,0.091796875,,
2.358144999999786,1200,,,,-0.0625,0.046875,-1.03515625,0.029170336746169652,0.8896015869531909,22.834423434031393,0.3222151745191135,1583,0,7.3575977318397605,4.835443652663781,65.72041349499932,0.18397517391462545,0.12090924502483598,0.09375,,
2.3685799999998416,1200,,,,-0.0625,0.091796875,-0.962890625,0.029170336746169652,0.8896015869531909,22.834172536908767,0.32192545757239255,1583,0,7.350901442231314,4.836640371905641,65.79656127776232,0.18392965334379144,0.12101938707032353,0.09375,,
2.3764749999998602,1200,,,,-0.0625,0,-0.9765625,0.029170336746169652,0.8896015869531909,22.834042496740828,0.32241657662731976,1583,0,7.362073812361915,4.837067965853794,65.70251927835474,0.1839133940711885,0.12083573319509916,0.09375,,
2.3848799999998884,1200,,,,-0.03125,0.05859375,-0.94921875,0.029170336746169652,0.8896015869531909,22.83413746749264,0.32184288086294177,1584,0,7.349004584558268,4.83719607736743,65.82110572541143,0.18390852318671003,0.1210506234847672,0.09375,,
2.3924899999999907,1200,,,,-0.0625,0.08984375,-1.015625,0.029170336746169652,0.8896015869531909,22.83390199789691,0.32459064616699174,1583,0,7.411671004011121,4.83681445988874,65.25943282251878,0.18392303329610338,0.1200271283590094,0.09375,,
2.400844999999972,1200,,,,-0.0625,0.046875,-1.04296875,0.029170336746169652,0.8896015869531909,22.833709209050504,0.3287236394252319,1583,0,7.505979992776515,4.836663458287184,64.4374680313805,0.18392877541002764,0.11851904585534621,0.09375,,
2.4087949999996927,1200,,,,0.03125,0.078125,-0.95703125,0.029170336746169652,0.8896015869531909,22.833723408955226,0.3332514951319104,1583,0,7.6093724654628305,4.836604565581924,63.561148932243036,0.18393101501076659,0.11690866638357963,0.09375,,
2.416774999999907,1200,,,,-0.125,0.01171875,-0.998046875,0.029170336746169652,0.8896015869531909,22.833704170207138,0.33331155112722677,1586,0,7.610737354951968,4.844432715103986,63.652606694565925,0.18363379971809468,0.11688770029284572,0.09375,,
2.4248599999998697,1200,,,,0,0.0625,-0.9609375,0.029170336746169652,0.8896015869531909,22.833620984774637,0.33251972711881217,1588,0,7.5926294189916455,4.851385278391783,63.89598399543752,0.18337063249037414,0.11716646998838201,0.09375,,
2.433249999999767,1200,,,,0,0.0390625,-0.955078125,0.02910181724908755,0.8896015869531909,22.83334435902534,0.3336830991533059,1589,0,7.61910110975423,4.842747007218171,63.56060823262107,0.18369772065879744,0.11675938856019288,0.09375,,
2.442029999999795,1200,,,,-0.0625,-0.0546875,-1.03515625,0.02910181724908755,0.8896015869531909,22.833114784720877,0.3352196191303538,1591,0,7.654108041693783,4.848869857257242,63.349900874723374,0.18346575864925216,0.11622537624336048,0.09375,,
2.4503549999999814,1200,,,,-0.03125,0.08984375,-0.94921875,0.02910181724908755,0.8896015869531909,22.833060015359173,0.3372109617094348,1593,0,7.699558126548509,4.855423708393879,63.06106959115102,0.18321811656010173,0.11553930398756192,0.09375,,
2.458514999999665,1200,,,,-0.0625,-0.046875,-1.02734375,0.02910181724908755,0.8896015869531909,22.83314472198993,0.3354630413991971,1594,0,7.659676173146766,4.858097686299643,63.424322079451926,0.1831172702562081,0.11614088727039784,0.09375,,
2.4658199999998325,1200,,,,0.0625,0.1484375,-0.9140625,0.02910181724908755,0.8896015869531909,22.833095333037225,0.33448385634871797,1594,0,7.637301779372206,4.858987722438076,63.62178505976872,0.1830837280870549,0.11648113596295748,0.09375,,
2.4730499999998137,1200,,,,-0.0625,0.041015625,-0.9921875,0.02910181724908755,0.8904857437774634,22.833043024198442,0.33240766120018606,1596,0,7.589878429757028,4.865026187088093,64.09886840893492,0.18303822210471052,0.11732542912495243,0.09375,,
2.4806399999998976,1200,,,,0,0.01953125,-0.97265625,0.02910181724908755,0.8904857437774634,22.833342754096805,0.33118834509011424,1597,0,7.562136999604672,4.867318648098731,64.36432781306635,0.18295201283468557,0.11775583328152024,0.09375,,
2.489024999999907,1200,,,,-0.0625,0.021484375,-0.919921875,0.02910181724908755,0.8904857437774634,22.833474126087552,0.3317799017419462,1597,0,7.5756878019805995,4.868399777967173,64.26346894462006,0.18291138451848557,0.11754520078621156,0.09375,,
2.4979099999996834,1200,,,,-0.03125,0.01953125,-1.00390625,0.02910181724908755,0.8904857437774634,22.833763966969595,0.33120337750198947,1596,0,7.562619746943556,4.862610985875134,64.2979701292051,0.18312913501905412,0.11774831653242311,0.095703125,,
2.505239999999991,1200,,,,0.0625,0.0234375,-0.953125,0.02910181724908755,0.8904857437774634,22.833743379642133,0.32969725498777597,1594,0,7.528222513363314,4.857833348713941,64.52829124127007,0.18330924094240694,0.11828632086747783,0.09375,,
2.5119849999998696,1200,,,,-0.09375,0.091796875,-0.96484375,0.02910181724908755,0.8904857437774634,22.83375428875595,0.3286077148751654,1593,0,7.5033478188491,4.856035337710734,64.71824917288156,0.18337711360174372,0.11867845730681459,0.09375,,
2.5214099999996833,1200,,,,0,-0.06640625,-1.04296875,0.02910181724908755,0.8904857437774634,22.833678846697435,0.32867315042623463,1593,0,7.504817162364918,4.855237375597366,64.6949455337215,0.18340725177580056,0.1186552216412496,0.095703125,,
2.537784999999916,1200,,,,-0.0625,0.04296875,-0.98046875,0.02910181724908755,0.8904857437774634,22.833873034626052,0.3291351235678726,1590,0,7.51542962278476,4.845260798869451,64.47084254744298,0.1837848943002699,0.11848766983031153,0.09375,,
2.5461049999997485,1200,,,,-0.03125,0.06640625,-1.015625,0.02910181724908755,0.8904857437774634,22.833879224512152,0.3291836799487174,1590,0,7.516540390629475,4.844387085799045,64.44969140109085,0.18381804096288157,0.11847016014010793,0.09375,,
2.5542349999998697,1200,,,,-0.125,0.18359375,-0.984375,0.02910181724908755,0.8904857437774634,22.833918432679777,0.32944709173618897,1588,0,7.522568020587711,4.839656293603527,64.33516161446981,0.18399772416780916,0.11837523321030641,0.095703125,,
2.5621649999998044,1200,,,,-0.03125,-0.009765625,-0.951171875,0.02910181724908755,0.8904857437774634,22.833825013073113,0.32916291866175806,1587,0,7.516048485515002,4.8378370471664045,64.3667620890143,0.1840669156682395,0.11847791369276232,0.095703125,,
2.5705749999999536,1200,,,,0,0.0390625,-0.95703125,0.02910181724908755,0.8904857437774634,22.833937021280544,0.3287656460499014,1587,0,7.507014056664059,4.837094268571286,64.43433077466192,0.18409518077068254,0.11862049771799339,0.095703125,,
2.578559999999823,1200,,,,-0.09375,0.056640625,-0.96875,0.02910181724908755,0.8904857437774634,22.83383640361966,0.32815980407095674,1587,0,7.493147280400107,4.836215316742114,64.54184250978552,0.1841286389162122,0.11884001614471332,0.095703125,,
2.5869199999999255,1200,,,,0,0.025390625,-0.96875,0.028887408378010033,0.8904857437774634,22.83375269143772,0.32854643817284135,1587,0,7.501948116891392,4.800002896424835,63.983418995089345,0.18551775134150855,0.1187006001511054,0.095703125,,
2.595030000000028,1200,,,,-0.03125,0.078125,-0.9453125,0.028887408378010033,0.8904857437774634,22.833765751316623,0.3279414363128662,1587,0,7.488137936918306,4.799739772903212,64.09790809594132,0.18552792149371808,0.11891951661135358,0.095703125,,
2.603149999999907,1200,,,,-0.1875,0.1171875,-0.98046875,0.028887408378010033,0.8904857437774634,22.833678978946647,0.3261296130817142,1586,0,7.446738890635941,4.798784724442401,64.44142590358223,0.18556484504124826,0.11958063212035318,0.095703125,,
2.6120449999999256,1200,,,,-0.03125,-0.009765625,-0.998046875,0.028887408378010033,0.8904857437774634,22.833732958161832,0.32587334716449734,1586,0,7.440904987336496,4.796569160443572,64.46217454203142,0.1856505585536296,0.11967438709309694,0.095703125,,
2.6202699999997856,1200,,,,-0.03125,0.07421875,-0.974609375,0.028887408378010033,0.8904857437774634,22.83364769455932,0.32447962740785175,1585,0,7.409053496292762,4.795813851762288,64.72910276814643,0.18567979727783682,0.12018886679965696,0.095703125,,
2.6283300000000747,1200,,,,-0.0625,0.14453125,-0.9375,0.028887408378010033,0.8786109503712988,22.833697296909328,0.32538962750624717,1585,0,7.429848258031729,4.79509039321469,64.5382008714802,0.1832313633992344,0.11825422537014976,0.095703125,,
2.6365699999998324,1200,,,,-0.03125,-0.001953125,-0.970703125,0.028887408378010033,0.8786109503712988,22.833677455862066,0.3247006638786584,1585,0,7.4141102287095695,4.7938793082518405,64.65886209364085,0.18327765341503713,0.1185052451700899,0.09375,,
2.6451399999998975,1200,,,,0,-0.021484375,-0.94921875,0.028887408378010033,0.8786109503712988,22.8335939234932,0.3236736640393968,1585,0,7.39063300840475,4.79346258699159,64.85862011468281,0.18329358671863985,0.11888169110441932,0.09375,,
2.654169999999693,1200,,,,-0.09375,0.078125,-1.015625,0.028887408378010033,0.8786109503712988,22.833505880759347,0.3233107671954142,1585,0,7.382318304069306,4.793291599517272,64.92935419589125,0.1833001252124496,0.11901558754070356,0.095703125,,
2.6631949999998326,1200,,,,0,0.09375,-0.95703125,0.028887408378010033,0.8786109503712988,22.833569264469,0.3246332591005175,1584,0,7.412536007221977,4.793230917492422,64.66384666222753,0.18330244578138205,0.11853041246818563,0.095703125,,
2.6745199999997857,1200,,,,-0.03125,0.087890625,-1,0.028887408378010033,0.8786109503712988,22.83348300314534,0.3239806483125683,1584,0,7.397606626593036,4.793208996833604,64.7940508164208,0.18330328407371962,0.11876962303089406,0.095703125,,
2.6916099999998697,1200,,,,-0.03125,0.052734375,-0.958984375,0.028887408378010033,0.8786109503712988,22.83360427227207,0.3235284018581955,1585,0,7.387319498870647,4.796073926176563,64.9230607517351,0.1831937880640069,0.11893501431820004,0.095703125,,
2.6994049999997953,1200,,,,-0.03125,0.076171875,-0.96484375,0.028887408378010033,0.8786109503712988,22.833517322987447,0.3231803922220279,1586,0,7.379345084251551,4.796952998393892,65.00513180541174,0.1831602166344915,0.11906354023832884,0.09375,,
2.7078599999998696,1200,,,,0,-0.009765625,-0.986328125,0.028887408378010033,0.8786109503712988,22.833441903980386,0.32417458214690603,1586,0,7.402021488198496,4.797258180488755,64.81010880794284,0.18314856472489957,0.11869878407839303,0.09375,,
2.7160749999997207,1200,,,,-0.1875,0.05859375,-0.9453125,0.028887408378010033,0.8786109503712988,22.83350175664572,0.3248900722308101,1586,0,7.418378034998958,4.798665222663621,64.6861780300779,0.18309486275927445,0.11843706888839106,0.095703125,,
2.7250249999999068,1200,,,,0,0.029296875,-0.966796875,0.028887408378010033,0.8786109503712988,22.833492549091428,0.32589256805398914,1586,0,7.441265524465032,4.799254975513463,64.4951448074888,0.1830723632843237,0.11807278580271652,0.095703125,,
2.733279999999795,1200,,,,-0.03125,0.0859375,-1.052734375,0.028887408378010033,0.8786109503712988,22.833616067463197,0.3286663528354395,1587,0,7.504641314937819,4.799455148561483,63.95315841422396,0.18306472780241326,0.11707567537204522,0.095703125,,
2.7412749999999066,1200,,,,-0.0625,0.08984375,-0.99609375,0.028966840485939567,0.8786109503712988,22.8335355933914,0.33392861198417134,1587,0,7.624770847392362,4.8127317282690605,63.11969008111231,0.18255971867505247,0.11523112864064365,0.095703125,,
2.7490749999999533,1200,,,,-0.03125,0.0234375,-0.955078125,0.028966840485939567,0.8786109503712988,22.833461190348164,0.3375315001647451,1587,0,7.707012409531702,4.812762236035651,62.44653544457037,0.1825585614416358,0.11400149677774886,0.095703125,,
2.756864999999758,1200,,,,0,0.02734375,-0.9765625,0.028966840485939567,0.8786109503712988,22.83345495485199,0.3367436353818795,1587,0,7.689020629825249,4.812774442863922,62.59281480134751,0.18255809841120804,0.11426825244338916,0.09375,,
2.7647299999997483,1200,,,,-0.125,0.04296875,-0.9609375,0.028966840485939567,0.8786109503712988,22.833384069854617,0.3351517613376788,1588,0,7.6526488883114725,4.8175342325505595,62.952505764491306,0.1823777285140605,0.11481135005596223,0.09375,,
2.772409999999683,1200,,,,0.03125,0.080078125,-0.990234375,0.028966840485939567,0.8723414460665389,22.833445488789955,0.3334534239978478,1592,0,7.613890579905221,4.828832743340765,63.421357224191624,0.18065265301838157,0.11457236440576717,0.095703125,,
2.7795049999998884,1200,,,,-0.0625,0.07421875,-1.0625,0.028966840485939567,0.8723414460665389,22.833469479238325,0.33274622417130745,1593,0,7.597750753947342,4.833115876837067,63.61245628288169,0.18049255765773706,0.11481574933388303,0.095703125,,
2.7874549999998415,1200,,,,-0.0625,0.017578125,-0.96484375,0.028966840485939567,0.8723414460665389,22.83339731612848,0.33165728666929506,1594,0,7.572862599309135,4.83511698262555,63.84794282503756,0.18041785735509602,0.11519309041023955,0.095703125,,
2.7964699999999723,1200,,,,0,0.015625,-0.984375,0.028966840485939567,0.8723414460665389,22.833394139472315,0.33375709400863346,1593,0,7.620807274344042,4.83107086813934,63.39316419145599,0.18056896077008205,0.11446837777978387,0.095703125,,0.30221999999997207,3544,
2.8054899999999905,1200,,,,-0.09375,0.095703125,-1.005859375,0.028966840485939567,0.8723414460665389,22.833425279017852,0.3345744233934294,1592,0,7.639480096824353,4.829483737564977,63.21743988275511,0.18062830179574701,0.11418858809896781,0.095703125,,
2.8288000000000464,1500,,,,-0.0625,0.056640625,-0.982421875,0.028966840485939567,0.8723414460665389,22.833537978563097,0.33450549214985337,1594,0,7.637943859041616,4.834232475485416,63.292327944552326,0.18045086794857648,0.11421155512080411,0.09375,,
2.848279999999795,1500,,,,0,0.01953125,-1,0.028966840485939567,0.8723414460665389,22.833190658601147,0.34068828540980034,1595,0,7.779000575913894,4.838288061563756,62.196782406014194,0.18029960906969936,0.11214055553197516,0.09375,,
2.85609999999986,1500,,,,0,0.125,-1.009765625,0.028966840485939567,0.8723414460665389,22.809944648520005,1.0660047038074367,1595,0,24.315508288909594,4.839766287295155,19.9040309163621,0.18024453956723444,0.03587592888051686,0.099609375,,
2.8638149999999443,1500,,,,-0.25,-0.078125,-1.140625,0.028966840485939567,0.8723414460665389,22.789557452042988,1.630646150104543,1596,0,37.161704121760195,4.840352295658494,13.02510853592477,0.18022271784823943,0.023474204606126647,0.103515625,,
2.8714399999999443,1500,,,,-0.0625,0.029296875,-0.99609375,0.028966840485939567,0.8723414460665389,22.772962547587014,2.0757035211826644,1657,0,47.269918547787306,5.025667795977531,10.631852032697827,0.17357722027801914,0.01845447322242896,0.109375,,
2.87945999999973,1500,,,,-0.5625,0.6328125,-0.78125,0.028966840485939567,0.8723414460665389,22.759103407763703,2.471486549565723,1749,0,56.2488179524634,5.306179466469262,9.433406175670363,0.16440104440097197,0.015508618275387864,0.115234375,,
2.8894849999998695,1500,,,,0.84375,-0.87890625,-0.78125,0.02856949640782942,0.8723414460665389,22.74421059617067,2.859576999947955,1889,0,65.03882150278221,5.6508256662073935,8.688388774027315,0.15437415655613726,0.013412626888222782,0.12890625,,
2.897999999999767,1500,,,,-0.125,-0.20703125,-1.2109375,0.02856949640782942,0.8723414460665389,22.734127831387116,3.1404187266344072,2120,0,71.39468077538857,6.342066854318648,8.883108356869226,0.13754844691876997,0.012218577582985083,0.140625,,
2.9060749999999533,1500,,,,-0.09375,0.03515625,-0.921875,0.02856949640782942,0.8723414460665389,22.72676397260986,3.340281651583353,2297,0,75.91379269757431,6.873328378864374,9.054123281979033,0.12691688771178264,0.011491211479075699,0.142578125,,
2.9145349999999164,1500,,,,0.375,0.4375,-0.7265625,0.02856949640782942,0.8723414460665389,22.720703765832805,3.5103165895357,2465,0,79.75686335512914,7.376234822079007,9.248401343512267,0.11826378458768583,0.01093750944269599,0.146484375,,
2.922209999999963,1500,,,,-0.28125,0.1875,-1.1328125,0.02856949640782942,0.8696267530963189,22.715995836227485,3.6353929160793057,2624,0,82.5815703447084,7.8507415646440935,9.50665085669099,0.11077001400895593,0.010530518485739139,0.150390625,,
2.929689999999944,1500,,,,-0.09375,-0.048828125,-0.88671875,0.02856949640782942,0.8696267530963189,22.712657100271052,3.739547693435767,2737,0,84.9350644711161,8.18895785696901,9.641433615151762,0.10619504560720686,0.010238724824798985,0.150390625,,
2.9382749999999067,1500,,,,0.375,0.26171875,-0.828125,0.02856949640782942,0.8696267530963189,22.70976300311905,3.8161148574018817,2899,0,86.66306400427818,8.673283297396079,10.008050600389476,0.10026500037850729,0.010034571972361711,0.15234375,,
2.9467449999998787,1500,,,,-0.03125,0.076171875,-0.958984375,0.02856949640782942,0.8696267530963189,22.70762148187204,3.87101879042867,2992,0,87.90162944226839,8.95064182607771,10.182566447139948,0.09715803290917752,0.009893181259711097,0.154296875,,
2.95522499999986,1500,,,,0.09375,-0.052734375,-0.986328125,0.02856949640782942,0.8696267530963189,22.705750450343977,3.915315174756601,3552,0,88.90016929246829,10.625865141598727,11.95258144744496,0.08184055994573616,0.009782059584559131,0.154296875,,
2.964125,1500,,,,-0.125,-0.17578125,-0.90625,0.02856949640782942,0.8696267530963189,22.704919550518547,3.9426685477867243,4696,0,89.51797219185737,14.04934445386269,15.694440021219147,0.061898030612896386,0.00971454928885689,0.15625,,
2.972119999999879,1500,,,,-0.09375,0.09375,-0.978515625,0.02856949640782942,0.8696267530963189,22.704293720794432,3.954539263907116,5112,0,89.78502097816137,15.293263165577288,17.03320108294802,0.05686338773360749,0.009685655175241762,0.154296875,,
2.9823950000000186,1500,,,,0,0.05078125,-0.994140625,0.02856949640782942,0.8696267530963189,22.704083019132113,3.9563359440417076,5385,0,89.82497972509935,16.11095746436443,17.935943335217498,0.053977347716287656,0.009681346500246673,0.15625,,
2.990114999999758,1500,,,,0.03125,0.12890625,-0.955078125,0.02856949640782942,0.8696267530963189,22.703995242632924,3.9483998125758704,4045,0,89.6444505607353,12.10255562005848,13.500618883105139,0.07185480326609867,0.009700843138160964,0.158203125,,
2.997774999999674,1500,,,,-0.25,0.12109375,-1.04296875,0.02856949640782942,0.8696267530963189,22.704124515158874,3.9369299953516657,3668,0,89.38454882192806,10.973776271190898,12.277039394194247,0.07924589782090984,0.00972905009375602,0.16015625,,
3.0055599999998233,1500,,,,-0.125,-0.021484375,-1.00390625,0.02856949640782942,0.8696267530963189,22.704216108857587,3.913083803082116,3522,0,88.84350031724668,10.537125145753059,11.860321923524603,0.08252979262060088,0.009788299087620517,0.16015625,,
3.0132999999998136,1500,,,,-0.125,-0.14453125,-1.095703125,0.02856949640782942,0.8696267530963189,22.704897118198055,3.8910794179207837,3496,0,88.34655786262937,10.460219386349634,11.839985212116918,0.08313656922255028,0.0098433575018113,0.162109375,,
3.0209049999997952,1500,,,,-0.1875,0.390625,-0.97265625,0.02856949640782942,0.8696267530963189,22.705564666819473,3.8633189865258943,3495,0,87.71883907711516,10.457223478193585,11.921297167419711,0.08316038716297387,0.00991379687927487,0.1640625,,
3.029434999999823,1500,,,,-0.125,0.2265625,-1.146484375,0.02856949640782942,0.8696267530963189,22.706479289294744,3.8317642822454596,3506,0,87.00587631626587,10.48924483439816,12.055788963345206,0.08290651680133228,0.009995034702428953,0.169921875,,
3.0420699999998324,1500,,,,0.375,-0.47265625,-0.62109375,0.0670615277941443,0.8696267530963189,22.707572353895497,3.7893768272723993,3525,0,86.04754848146297,24.756855365040092,28.771133869517975,0.035126704917634456,0.010106351295803164,0.173828125,,
3.049429999999702,1500,,,,-0.125,0.123046875,-1.068359375,0.0670615277941443,0.8696267530963189,22.708500275552613,3.7559631856737288,3547,0,85.29229103683734,24.91060230194589,29.206159195779037,0.03490990472873424,0.010195842350168915,0.1796875,,
3.0563799999998884,1500,,,,-0.1875,-0.16796875,-0.703125,0.0670615277941443,0.8696267530963189,22.709504240412755,3.7289260003533458,3564,0,84.68206081720969,25.02805484698066,29.55532093273559,0.034746078287471435,0.010269314949401741,0.18359375,,
3.06433499999973,1500,,,,-0.0625,0.248046875,-1.05078125,0.0670615277941443,0.8696267530963189,22.71057655047803,3.699150018511904,3574,0,84.00982966711682,25.096239429981207,29.872979780370144,0.034651675822689985,0.010351488112071589,0.189453125,,
3.0720049999998884,1500,,,,-0.0625,-0.41796875,-1.1484375,0.0670615277941443,1.8378926798556965,22.7113339670976,3.669265916498483,3578,0,83.33392364368551,25.12761022931207,30.15291868021394,0.0731423586677472,0.02205455592987622,0.19140625,,
3.080584999999963,1500,,,,-0.0625,0.26953125,-0.85546875,0.0670615277941443,1.8378926798556965,22.712286737296566,3.637945947061279,3580,0,82.62607148444168,25.139997294006356,30.426228480123452,0.0731063197168231,0.02224349587045014,0.1953125,,
3.0894399999999442,1500,,,,-0.125,-0.138671875,-0.962890625,0.0670615277941443,1.8378926798556965,22.713369131803255,3.608144769088205,3602,0,81.95312402128542,25.297475273479908,30.86822567851041,0.072651229420606,0.022426145455765014,0.19921875,,
3.097524999999907,1500,,,,0.125,-0.0625,-1.064453125,0.0670615277941443,1.8378926798556965,22.71428730980233,3.577182191226874,3614,0,81.25314405103548,25.38222116678835,31.238448017279996,0.07240866225925521,0.02261934231986528,0.201171875,,
3.1055749999997206,1500,,,,0.0625,-0.421875,-0.62890625,0.0670615277941443,1.8378926798556965,22.714959944484157,3.5459534271284907,3633,0,80.54619006222998,25.51356071276712,31.67568905873182,0.07203591456899253,0.022817872309487768,0.20703125,,
3.114594999999972,1500,,,,-0.21875,0.375,-1.048828125,0.0670615277941443,1.8378926798556965,22.716127651936265,3.513452203764627,3648,0,79.81202875969406,25.620971526257364,32.1016417254591,0.07173391836340604,0.02302776546865392,0.212890625,,
3.1225099999997763,1500,,,,-0.25,0.06640625,-0.97265625,0.0670615277941443,1.8378926798556965,22.717430859028244,3.4874807314953356,3641,0,79.22660238993853,25.57234036767362,32.27746690664751,0.07187033542612331,0.023197923732863515,0.21484375,,
3.1337099999997298,1500,,,,0.3125,0.265625,-1.19140625,0.0670615277941443,1.8378926798556965,22.71858936627676,3.456458958973587,3647,0,78.52587175030936,25.613293897918684,32.61764986113354,0.0717554207272436,0.02340493188919556,0.21875,,
3.1425949999997393,1500,,,,-0.08203125,0.123046875,-0.96484375,0.0670615277941443,1.8378926798556965,22.71995324977404,3.417027571929488,3644,0,77.63470668742687,25.59282072469414,32.965695133925145,0.0718128220263873,0.023673595976287078,0.22265625,,
3.1505399999998045,1500,,,,0.375,-0.296875,-1.13671875,0.0670615277941443,1.8378926798556965,22.72076986268685,3.393007838163608,3645,0,77.09175023320797,25.59819056744933,33.20483772908644,0.07179775754122097,0.023840328884685347,0.2265625,,
3.159399999999907,1500,,,,-0.40625,0.166015625,-0.859375,0.0670615277941443,1.8378926798556965,22.72177276676202,3.3637940395099526,3658,0,76.43136379993365,25.6910877979733,33.61327931452612,0.0715381417209077,0.024046315393070245,0.232421875,,
3.1677399999997577,1500,,,,0.34375,-0.23046875,-1.0859375,0.0670615277941443,1.8378926798556965,22.72266948596684,3.339769116025653,3663,0,75.88846978289055,25.721765710080575,33.89416835478172,0.07145281939705293,0.024218338900675252,0.236328125,,
3.176579999999842,1500,,,,-0.09375,0.220703125,-0.91015625,0.0670615277941443,1.8378926798556965,22.723476026289237,3.312576840774588,3662,0,75.2732604265823,25.71572386719066,34.16315929648413,0.07146960705238273,0.024416275705876768,0.240234375,,
3.184524999999907,1500,,,,0.3125,-0.14453125,-1.11328125,0.11397179023378272,1.8378926798556965,22.724019842215718,3.291359921684445,3663,0,74.7929281682309,43.71876576869435,58.45307416011072,0.04203898823629999,0.024573080969924655,0.2421875,,
3.192529999999795,1500,,,,-0.53125,-0.01171875,-0.73046875,0.11397179023378272,1.8378926798556965,22.724907036750672,3.27083831653036,3669,0,74.3294966753945,43.79134489336738,58.915164035899835,0.04196931344152582,0.024726289858815892,0.24609375,,
3.200369999999646,1500,,,,0.6875,-0.2421875,-1.40234375,0.11397179023378272,1.8378926798556965,22.725510611341207,3.2522808075637357,3670,0,73.90974200335103,43.8014769794351,59.2634689178717,0.04195960516853328,0.024866717567115407,0.25390625,,
3.2080649999997113,1500,,,,-0.375,-0.072265625,-0.826171875,0.11397179023378272,1.8378926798556965,22.726231242155283,3.231623590051947,3670,0,73.44262499512458,43.79946066954035,59.637656840898515,0.04196153678060767,0.025024877310386214,0.255859375,,
3.216655000000028,1500,,,,0.3125,-0.0859375,-1.103515625,0.11397179023378272,1.8378926798556965,22.727108576198937,3.2127655281402108,3669,0,73.01687098791169,43.78652646540307,59.96768400641565,0.04197393189678715,0.025170794844933425,0.259765625,,
3.2245999999998602,1500,,,,-0.3125,0.1875,-0.5078125,0.11397179023378272,3.6871883346225496,22.727668254921984,3.19433356117337,3686,0,72.59975347391189,43.990446233128665,60.59310690212779,0.08381793435515944,0.05078789056697706,0.263671875,,
3.2335149999998976,1500,,,,0.125,-0.083984375,-1.15234375,0.11397179023378272,3.6871883346225496,22.727982737819225,3.1818219936631644,3685,0,72.31639534678996,43.98009828949945,60.816220275630315,0.0838376556221315,0.05098689331707985,0.263671875,,
3.241530000000028,1500,,,,-0.125,-0.07421875,-0.716796875,0.11397179023378272,3.6871883346225496,22.728080744266805,3.1754920264008812,3677,0,72.17283917881464,43.885579740683184,60.80622605403225,0.08401822093748988,0.051088309349826354,0.267578125,,
3.249674999999814,1500,,,,0.375,-0.1484375,-1.34375,0.11397179023378272,3.6871883346225496,22.728272973035704,3.1675961055190442,3687,0,71.99398895456164,44.00333438411104,61.12084498038212,0.08379338489298527,0.05121522488425645,0.271484375,,
3.2588449999997393,1500,,,,-0.46875,-0.048828125,-0.837890625,0.11397179023378272,3.6871883346225496,22.728840044440595,3.1471747905724667,3687,0,71.53163240681742,44.00722427442509,61.52134768034585,0.08378597822097515,0.05154626296870497,0.2734375,,
3.2657049999998415,1500,,,,0.21875,0.015625,-1.19921875,0.11397179023378272,3.6871883346225496,22.728994657503552,3.131982275844324,3683,0,71.18680841506146,43.95364311367209,61.744084462104546,0.08388811651145302,0.051795949512500224,0.275390625,,
3.2731349999997765,1500,,,,-0.21875,0.22265625,-0.75,0.11397179023378272,3.6871883346225496,22.729475479187847,3.1179431238330433,3686,0,70.86921177866552,43.990929514170695,62.073400296253524,0.08381701353763858,0.0520280703295834,0.28125,,
3.2841999999997205,1500,,,,0.625,-0.3515625,-1.11328125,0.11397179023378272,3.6871883346225496,22.73009498026286,3.104673586485039,3677,0,70.56952550351828,43.87980503200844,62.179538148971666,0.08402927797725863,0.05224901695617498,0.28515625,,
3.3015699999998325,1500,,,,0.21875,-0.138671875,-1.154296875,0.11397179023378272,3.6871883346225496,22.731872441614005,3.0696856817713516,3687,0,69.77970335387529,44.010026130644526,63.06995303126405,0.0837806440668103,0.05284041286222776,0.2890625,,
3.3108299999998416,1500,,,,-0.3125,0.220703125,-1.015625,0.11397179023378272,3.6871883346225496,22.73217335208176,3.0538600145899992,3686,0,69.42087524465079,43.99653094948596,63.37651433295074,0.08380634234221662,0.05311353856643669,0.291015625,,
3.3213599999998697,1500,,,,0.375,-0.0546875,-1.23828125,0.11397179023378272,3.6871883346225496,22.732596099939297,3.0414301904595575,3682,0,69.13960408587857,43.943709399544176,63.55794190687225,0.08390707987571018,0.05332961308315678,0.29296875,,
3.3296499999999067,1500,,,,-0.01953125,-0.046875,-0.9140625,0.11397179023378272,3.6871883346225496,22.732644721688278,3.0236821514900662,3689,0,68.73629210113371,44.025352873237324,64.04964761331836,0.08375147713725568,0.053642525977361154,0.296875,,
3.3373499999998604,1500,,,,-0.25,-0.11328125,-0.89453125,0.1252593317742847,3.6871883346225496,22.73279530616399,3.012372409417571,3687,0,68.47964536922566,48.36748760880084,70.63045865383073,0.07623278604927243,0.053843566431194596,0.298828125,,
3.345319999999832,1500,,,,0.125,0.064453125,-1.068359375,0.1252593317742847,3.6871883346225496,22.733210797925043,3.003083007926842,3681,0,68.26971906286771,48.284262279639286,70.72573747546204,0.07636418494432251,0.05400913296899785,0.30078125,,
3.3534799999999816,1500,,,,-0.5,0.251953125,-1.00390625,0.1252593317742847,3.6871883346225496,22.733642661327448,2.9929798013939246,3693,0,68.04133329746027,48.442945693612415,71.1963498449267,0.07611404058586665,0.054190418616623125,0.302734375,,
3.3616999999999533,1500,,,,0.25,-0.09765625,-0.99609375,0.1252593317742847,3.6871883346225496,22.733760199200766,2.984974817847139,3693,0,67.85970170958984,48.44468434074214,71.38947434231943,0.0761113089041559,0.05433546334173586,0.3046875,,
3.369489999999758,1500,,,,-0.15625,-0.009765625,-0.833984375,0.1252593317742847,4.561354229823322,22.733962816922613,2.974781277677538,3689,0,67.62856695519869,48.385551226010016,71.54602471181086,0.09427099855734064,0.06744715192390581,0.306640625,,
3.391649999999674,1500,,,,-0.041015625,0.078125,-1.078125,0.1252593317742847,4.561354229823322,22.735122141209526,2.9531259882004264,3686,0,67.13968004011677,48.34984725125579,72.0138183893134,0.09434061303481885,0.06793827773825936,0.3125,,
3.399744999999879,1500,,,,0.125,-0.2578125,-1.107421875,0.1252593317742847,4.561354229823322,22.73516479120883,2.9462168111451783,3683,0,66.98272471201541,48.30731140312667,72.11905996780281,0.09442368240613967,0.06809747213829154,0.31640625,,
3.407714999999851,1500,,,,-0.6875,0.47265625,-0.671875,0.1252593317742847,4.561354229823322,22.735270586428488,2.9383367146344495,3681,0,66.80388028125152,48.28033063363406,72.27174593806328,0.09447644972517433,0.06827977971668008,0.3203125,,
3.415894999999786,1500,,,,0.28125,-0.251953125,-1.021484375,0.1252593317742847,4.561354229823322,22.73530647733611,2.9314291909153183,3678,0,66.64694107206918,48.24950701426762,72.39568123928245,0.09453680487293904,0.06844056390961539,0.322265625,,
3.4247399999999906,1500,,,,-0.15625,0.373046875,-0.890625,0.1252593317742847,4.561354229823322,22.735270977173002,2.925204851341328,3679,0,66.50532495898617,48.25793093673345,72.5625067864778,0.09452030249293729,0.06858630091103696,0.32421875,,
3.4356299999998883,1500,,,,-0.09375,0.244140625,-0.845703125,0.1252593317742847,4.561354229823322,22.73550171299506,2.9189798542229424,3687,0,66.36447147588378,48.3613211680788,72.87230666133286,0.09431823034714927,0.06873187005611693,0.328125,,
3.4515649999997113,1500,,,,-0.15625,0.11328125,-0.755859375,0.1252593317742847,4.561354229823322,22.735622452802797,2.908600452930703,3680,0,66.12884176388367,48.27628895734921,73.00337896393545,0.09448435926492103,0.06897677485581653,0.330078125,,
3.4593549999999813,1500,,,,0.3125,-0.296875,-1.484375,0.1252593317742847,4.561354229823322,22.735575957026153,2.9040432861964858,3677,0,66.02509671581204,48.23808880462206,73.06023194823999,0.0945591822324906,0.06908515786741656,0.333984375,,
3.4673599999998697,1500,,,,-0.28125,-0.033203125,-0.927734375,0.1252593317742847,4.561354229823322,22.735596989732286,2.9010386659141503,3687,0,65.95684595985472,48.35771881873102,73.31720932829994,0.09432525646880832,0.06915664573469196,0.333984375,,
3.4756399999998977,1500,,,,-0.25,0.37109375,-0.96875,0.1252593317742847,4.561354229823322,22.735682911320996,2.8982827092367303,3695,0,65.89443666457065,48.47219548405305,73.56037616771222,0.09410248874169459,0.0692221447015696,0.333984375,,
3.484494999999879,1500,,,,-0.0625,-0.015625,-0.861328125,0.1252593317742847,4.561354229823322,22.735797238231207,2.8942846450247663,3682,0,65.80386883900907,48.29472572916329,73.39192448899567,0.09444828935158234,0.06931741720206144,0.3359375,,
3.4924599999999626,1500,,,,0.34375,-0.09375,-0.962890625,0.12739708464087687,4.561354229823322,22.735735909855077,2.8937470542296047,3685,0,65.79146881488536,49.1627234819549,74.72507358101693,0.09278074741928323,0.06933048177807687,0.337890625,,
3.500839999999851,1500,,,,-0.125,0.12109375,-0.828125,0.12739708464087687,4.561354229823322,22.73574910107152,2.896723960037185,3689,0,65.85918917046776,49.20890012606228,74.71835099380222,0.09269368382829415,0.06925919203191012,0.337890625,,
3.508774999999674,1500,,,,0.375,-0.30078125,-1.26171875,0.12739708464087687,4.561354229823322,22.735631451627494,2.9001441382507314,3695,0,65.93660828386645,49.28830340737133,74.75104451108282,0.09254435463366238,0.0691778717247033,0.33984375,,
3.5162649999998976,1500,,,,-0.375,0.1328125,-0.919921875,0.12739708464087687,4.561354229823322,22.735649622833343,2.895433184130272,3679,0,65.82955438071056,49.084599883362884,74.56316595961296,0.09292841829539661,0.06929037075723991,0.33984375,,
3.5248499999998604,1500,,,,0.0625,-0.02734375,-1.0703125,0.12739708464087687,4.989179861014223,22.735601012866855,2.89231047420645,3679,0,65.75841694689358,49.085835643148386,74.6457076100084,0.1016419461061092,0.07587134989948859,0.33984375,,
3.533034999999916,1500,,,,-0.125,0.046875,-0.935546875,0.12739708464087687,4.989179861014223,22.735425716344608,2.8876983597464525,3685,0,65.65305154922564,49.16767956998363,74.89016642755512,0.1014727541476264,0.07599311445978124,0.341796875,,
3.5419449999998323,1500,,,,0.28125,-0.0703125,-0.9609375,0.12739708464087687,4.989179861014223,22.735682361957068,2.8826458719894954,3686,0,65.53892090755993,49.16962852410097,75.02355522980429,0.10146873203584865,0.07612545021989704,0.341796875,,
3.5499149999998045,1500,,,,-0.3125,-0.03125,-0.87109375,0.12739708464087687,4.989179861014223,22.73576322472674,2.8786986966246126,3686,0,65.44941196178667,49.17026939718312,75.12713701062998,0.1014674095175904,0.07622955976941714,0.341796875,,
3.5577599999997767,1500,,,,0.125,0.060546875,-1.03125,0.12739708464087687,4.989179861014223,22.73616355763162,2.8727001126178773,3686,0,65.31417961250683,49.180722522785246,75.29869136313513,0.10144584310860326,0.07638739230307744,0.341796875,,
3.5658850000000095,1500,,,,-0.40625,0.15625,-0.857421875,0.12739708464087687,4.989179861014223,22.736350873245218,2.8696673548221927,3688,0,65.24576386873485,49.19510834565481,75.39969712766079,0.10141617792483011,0.07646749099377147,0.341796875,,
3.574399999999907,1500,,,,0.15625,-0.16796875,-1.0546875,0.12739708464087687,4.989179861014223,22.736405181695055,2.8652109192560893,3699,0,65.1445963912234,49.343375471911614,75.74438741715713,0.10111144228173606,0.07658624256495339,0.34375,,
3.5846749999998138,1500,,,,-0.5625,0.40234375,-1.12109375,0.12739708464087687,4.989179861014223,22.73664709716365,2.864021765290548,3692,0,65.11825215600685,49.259906612214486,75.64685012460134,0.10128277140860646,0.07661722628951113,0.345703125,,
3.6040249999999068,1500,,,,-0.08203125,0.03515625,-0.974609375,0.12739708464087687,4.989179861014223,22.736927592945626,2.8567870438506966,3679,0,64.95456016449847,49.0878326760399,75.57257342936995,0.10163781102214917,0.07681030936671795,0.35546875,,
3.611864999999758,1500,,,,-0.0625,-0.0546875,-1.03515625,0.12739708464087687,4.989179861014223,22.73697804128559,2.8555369711530543,3682,0,64.92628140918616,49.11682296982857,75.65014028799627,0.1015778211892689,0.07684376423117192,0.35546875,,
3.6196299999998884,1500,,,,0.0625,0.005859375,-0.9765625,0.12739708464087687,4.989179861014223,22.737117739925086,2.8509038700761633,3684,0,64.82133695912981,49.14841160480338,75.82134820173751,0.10151253515844283,0.07696817275089414,0.359375,,
3.627929999999935,1500,,,,0,-0.09375,-0.7421875,0.12739708464087687,4.989179861014223,22.736931231603307,2.8499858235226427,3687,0,64.79993168047865,49.18252543274247,75.89903902253494,0.10144212435445123,0.07699359754907335,0.361328125,,
3.6357449999998788,1500,,,,-0.25,0.298828125,-0.984375,0.12789158657925623,4.989179861014223,22.737275861177302,2.8493355937276896,3691,0,64.7861294156579,49.4278769759218,76.29391880907114,0.10093858296694884,0.07701000053583087,0.36328125,,
3.644814999999944,1500,,,,-0.09375,0.208984375,-0.9375,0.12789158657925623,4.989179861014223,22.73786346759223,2.8468551640782005,3679,0,64.73140403282,49.276992242408454,76.12532584249853,0.10124765400596965,0.07707510651992991,0.3671875,,
3.6541450000000184,1500,,,,0.25,-0.08203125,-0.966796875,0.12789158657925623,4.989179861014223,22.73768510918711,2.845317248866623,3689,0,64.69592764046786,49.405482533675894,76.36567607197017,0.10098433625485764,0.0771173711078137,0.3671875,,
3.6627399999999906,1500,,,,-0.40625,0.22265625,-1.0625,0.12789158657925623,4.989179861014223,22.737299779572155,2.85496878468921,3691,0,64.91428111879935,49.43259985090791,76.15057734436206,0.10092893912239957,0.07685796984924696,0.3671875,,
3.6707849999996833,1500,,,,0.375,-0.32421875,-1.328125,0.12789158657925623,5.15661463372069,22.737040355059893,2.863000123307139,3676,0,65.09614934017587,49.236334975979865,75.63632484416758,0.10473189436696223,0.07921535583884598,0.37109375,,
3.679019999999786,1500,,,,-0.28125,0.23828125,-0.849609375,0.12789158657925623,5.15661463372069,22.737054797744754,2.860434782383201,3687,0,65.03786239242193,49.3842058567786,75.93147136172288,0.10441829617905825,0.0792863486596006,0.369140625,,
3.6864449999998326,1500,,,,0.0625,0.0703125,-0.9921875,0.12789158657925623,5.15661463372069,22.737004013045343,2.856772336415634,3690,0,64.95444407743919,49.41657205165779,76.07881608953957,0.10434990570228557,0.07938817284884979,0.369140625,,
3.6950099999997765,1500,,,,0,-0.01171875,-0.88671875,0.12789158657925623,5.15661463372069,22.737153532016638,2.8554441409495097,3689,0,64.92467183486636,49.40372323677088,76.09391290021077,0.10437704480302519,0.07942457756022796,0.37109375,,
3.7022949999996926,1500,,,,-0.25,0.55859375,-1.03515625,0.12789158657925623,5.15661463372069,22.737226424723943,2.8530758971014087,3682,0,64.87103267931712,49.307342076177314,76.00825829291601,0.10458107082215029,0.07949025043599742,0.373046875,,
3.70958499999973,1500,,,,0.0625,-0.271484375,-1.005859375,0.12789158657925623,5.15661463372069,22.737345071902492,2.852373158277703,3686,0,64.85539277359248,49.36634814692386,76.11756869511184,0.10445606829927144,0.07950941954391089,0.376953125,,
3.71684999999986,1500,,,,-0.1875,0.3125,-1.17578125,0.12789158657925623,5.15661463372069,22.737639437782317,2.849373989293953,3688,0,64.78803839196131,49.39275917434751,76.23746666865593,0.10440021411880987,0.0795920784408331,0.376953125,,
3.724894999999786,1500,,,,0.03125,-0.107421875,-1.06640625,0.12789158657925623,5.15661463372069,22.73756030536471,2.8490733347043933,3686,0,64.78097676224768,49.36381167277406,76.20109195627587,0.1044614355938148,0.0796007545956887,0.376953125,,
3.7366099999998696,1500,,,,-0.0625,0.1640625,-0.9296875,0.12789158657925623,5.15661463372069,22.73731557464341,2.848353008094674,3686,0,64.76390121303345,49.367917633306085,76.22752290804095,0.1044527474709968,0.07962174200653226,0.37890625,,
3.7529799999999813,1500,,,,0.28125,0.06640625,-1.142578125,0.12789158657925623,5.15661463372069,22.737151286812946,2.850336611209814,3690,0,64.80853474741927,49.42514179454221,76.26332239599101,0.10433181264621302,0.07956690663996274,0.37890625,,
3.760839999999851,1500,,,,-0.375,0.27734375,-0.5234375,0.12789158657925623,5.15661463372069,22.737028848299218,2.847524280905096,3688,0,64.74424172117165,49.38654863533509,76.27944558841821,0.10441334282734703,0.07964591902903476,0.380859375,,
3.7687299999999815,1500,,,,0.09375,-0.046875,-1.09765625,0.12789158657925623,5.15661463372069,22.736978425843258,2.842191323242324,3686,0,64.62284279867963,49.37140108780108,76.39930239777357,0.1044453776904219,0.07979553994220215,0.37890625,,
3.777129999999888,1500,,,,-0.3125,0.0234375,-0.826171875,0.12789158657925623,5.15661463372069,22.736831878869683,2.8438407247855837,3686,0,64.65992844973273,49.365421847817906,76.34623642708648,0.10445802832633198,0.07974977327309438,0.380859375,,
3.7848599999998696,1500,,,,0.375,-0.1640625,-1.4296875,0.12807791732019166,5.15661463372069,22.73698648465356,2.839464586575094,3682,0,64.56086792861032,49.38373840481942,76.49175110134306,0.10441928457197258,0.07987213925659638,0.384765625,,
3.793029999999795,1500,,,,-0.375,0.08984375,-0.99609375,0.12807791732019166,5.15661463372069,22.736742843628456,2.8402808398662422,3684,0,64.5787350597238,49.41387922483776,76.51726095151716,0.10435559228729267,0.07985004086796905,0.384765625,,
3.801964999999851,1500,,,,0.34375,-0.208984375,-1.046875,0.12807791732019166,5.15661463372069,22.73670170375674,2.8427296724519864,3687,0,64.63429658695892,49.444869030544325,76.49943086178905,0.10429018692587126,0.07978139944298746,0.38671875,,
3.809809999999823,1500,,,,-0.625,0.74609375,-0.6875,0.12807791732019166,5.15661463372069,22.736540034169444,2.8443131703634843,3682,0,64.66984026768478,49.38719915390948,76.36820958499882,0.10441196751511862,0.07973755018376669,0.392578125,,
3.8174599999999628,1500,,,,0.4375,-0.115234375,-0.921875,0.12807791732019166,5.15661463372069,22.73671393456471,2.842946420330893,3690,0,64.63925949035827,49.49598355845455,76.57263395141071,0.10418248639570422,0.07977527394926086,0.392578125,,
3.826089999999851,1500,,,,-0.375,0.27734375,-0.99609375,0.12807791732019166,5.230044879239722,22.736876843230117,2.8432790315881684,3689,0,64.64728517215877,49.484298553350854,76.54505277610936,0.10569099759191328,0.08090122988632648,0.39453125,,
3.8338950000000187,1500,,,,0.375,-0.28515625,-1.20703125,0.12807791732019166,5.230044879239722,22.736834498013636,2.8433775353838207,3680,0,64.64940443739184,49.36209861419558,76.35352412565396,0.10595264435810806,0.08089857787173638,0.396484375,,
3.8511949999998323,1500,,,,0.15625,-0.01953125,-1.05859375,0.12807791732019166,5.230044879239722,22.736517105777214,2.848548283038387,3686,0,64.7660667639346,49.43953378994462,76.33555079104377,0.10578669494459204,0.0807528562495956,0.39453125,,
3.860744999999879,1500,,,,-0.1875,0.025390625,-0.734375,0.12807791732019166,5.230044879239722,22.736692469704103,2.8441836026635277,3684,0,64.66732790113572,49.409756017242344,76.40605792894465,0.10585044940142212,0.08087615568769882,0.39453125,,
3.8786299999998883,1500,,,,-0.1875,0.134765625,-0.97265625,0.12807791732019166,5.230044879239722,22.736764819531444,2.840835103347816,3683,0,64.59139963588859,49.39240036549941,76.4690046104153,0.10588764345401015,0.08097122695470713,0.392578125,,
3.887879999999888,1500,,,,0.1875,-0.15625,-0.998046875,0.12807791732019166,5.230044879239722,22.736866739904,2.837936446334878,3685,0,64.52578279663284,49.42561477802984,76.59824125467102,0.10581648610194987,0.081053567311587,0.392578125,,
3.904214999999851,1500,,,,-0.21875,0.0234375,-0.845703125,0.12807791732019166,5.230044879239722,22.73677368410094,2.8331933758629573,3686,0,64.41767659028999,49.43898322047828,76.7475417266609,0.10578787302149388,0.08118959198891806,0.396484375,,
3.911489999999991,1500,,,,-0.125,0.22265625,-1.23828125,0.12807791732019166,5.230044879239722,22.736739532940934,2.8319052827535955,3681,0,64.38829279592795,49.36790792899857,76.67218027579183,0.10594017649606759,0.08122664310755698,0.3984375,,
3.9192999999998137,1500,,,,0.15625,-0.1796875,-0.859375,0.12807791732019166,5.230044879239722,22.73651121510146,2.8384022647666867,3690,0,64.53536492583716,49.48600561762318,76.68044594539998,0.10568735168589108,0.08104153258062448,0.40234375,,
3.9286699999999253,1500,,,,-0.25,0.60546875,-1.23828125,0.12807791732019166,5.230044879239722,22.736352909765916,2.8404791381620513,3699,0,64.58213611808014,49.61047078896827,76.81763684351026,0.10542219809779978,0.08098284128721381,0.404296875,,
3.9452899999998046,1500,,,,0.125,-0.107421875,-1.08203125,0.12815887854593214,5.230044879239722,22.736595866158954,2.8368892581587817,3669,0,64.5012045798037,49.243015484580866,76.3443346606888,0.10620886693824368,0.08108445281465843,0.404296875,,
3.9532099999999626,1500,,,,-0.041015625,0.0703125,-0.91796875,0.12815887854593214,5.230044879239722,22.736570119022915,2.8368783666084263,3682,0,64.50088390153168,49.41990485127186,76.61895754284122,0.10582871203373276,0.0810848559412614,0.40625,,
3.9620699999998323,1500,,,,-0.15625,0.138671875,-0.87890625,0.12815887854593214,5.230044879239722,22.736536955803203,2.835850452315579,3678,0,64.4774186102044,49.35986739652441,76.55372758473392,0.10595743374318682,0.08111436518353418,0.404296875,,
3.9711149999997577,1500,,,,-0.25,0.146484375,-1.005859375,0.12815887854593214,5.258657474955656,22.736613387734756,2.8379283566661235,3695,0,64.52487986760708,49.585701750286475,76.84741428736793,0.10605189176182779,0.08149813662180282,0.40625,,
3.983339999999851,1500,,,,0.1875,-0.0859375,-1.1328125,0.12815887854593214,5.258657474955656,22.736464339795745,2.8316837604074,3686,0,64.38247684008157,49.46816815797217,76.83483237348143,0.10630386510700383,0.08167839656149821,0.40625,,
3.9906649999998045,1500,,,,-0.21875,-0.072265625,-0.748046875,0.12815887854593214,5.258657474955656,22.736488461928687,2.830590447645448,3678,0,64.35768705333629,49.36589228433492,76.70551031988306,0.10652410463214426,0.08170985807177246,0.40625,,
3.997999999999767,1500,,,,0.125,-0.267578125,-1.224609375,0.12815887854593214,5.258657474955656,22.736284684122126,2.829386542242925,3680,0,64.32973790585908,49.39383191362404,76.78226823480546,0.10646384925452987,0.08174535830771205,0.408203125,,
4.006279999999795,1500,,,,-0.3125,0.46875,-0.98828125,0.12815887854593214,5.258657474955656,22.7362051464311,2.8314513240196955,3687,0,64.37645816504575,49.47813059277544,76.8574910814842,0.10628246079538622,0.08168603282699591,0.41015625,,
4.01535999999987,1500,,,,0.15625,-0.02734375,-1.177734375,0.12815887854593214,5.258657474955656,22.736194395045477,2.8317257966525218,3682,0,64.38266818615675,49.41278438213021,76.74858121638816,0.10642301462488345,0.08167815381230732,0.41015625,,
4.024014999999897,1500,,,,-0.125,0.1875,-0.76953125,0.12815887854593214,5.258657474955656,22.736183983882977,2.83070001771273,3678,0,64.35931640589743,49.36661268919678,76.7046877531365,0.10652255013045371,0.08170778946424283,0.4140625,,
4.042984999999869,1500,,,,-0.15625,0.189453125,-0.923828125,0.12815887854593214,5.258657474955656,22.736436030786955,2.8306445584995177,3680,0,64.35876893021947,49.394734555173976,76.74903571994962,0.10646190372946998,0.08170848452146928,0.412109375,,
4.0587249999998605,1500,,,,-0.3125,0.26953125,-1.078125,0.12815887854593214,5.258657474955656,22.73622153807199,2.831231172959908,3686,0,64.37149917391189,49.463847684825275,76.84122370863113,0.10631315033280213,0.0816923256789218,0.4140625,,
4.066344999999972,1500,,,,0.3125,-0.32421875,-1.09375,0.12815887854593214,5.258657474955656,22.73644260287915,2.832214820857976,3687,0,64.39448971346103,49.483555239990146,76.84439376750912,0.10627080955383478,0.08166315935346849,0.4140625,,
4.074204999999842,1500,,,,-0.21875,0.318359375,-0.83203125,0.12815887854593214,5.258657474955656,22.73681263037202,2.833388185783536,3673,0,64.42221628926997,49.29813131776058,76.52349477764176,0.10667052349428761,0.0816280124754343,0.4140625,,
4.083074999999954,1500,,,,0.5,-0.546875,-1.05859375,0.12815887854593214,5.258657474955656,22.736695895395798,2.834272846929161,3674,0,64.44199980520601,49.30724851559391,76.51415018875714,0.10665079949234144,0.08160295290108036,0.416015625,,
4.090749999999767,1500,,,,-0.0625,0.078125,-1.08203125,0.12817577869566693,5.258657474955656,22.736661469698568,2.8330975586446425,3679,0,64.41518010153273,49.378650728113804,76.65685425435746,0.10649658095986879,0.08163692885228041,0.416015625,,
4.0992049999998414,1500,,,,-0.125,0.09375,-0.93359375,0.12817577869566693,5.258657474955656,22.736694632296416,2.8349797875772453,3678,0,64.45806971887639,49.36272356410503,76.58113837319779,0.10653094268849421,0.0815826086305478,0.4140625,,
4.107395000000019,1500,,,,-0.0625,0.162109375,-0.955078125,0.12817577869566693,5.258657474955656,22.736660641388763,2.831387104829896,3680,0,64.37628774692158,49.3975882665511,76.73258274963712,0.10645575339791404,0.08168624906780401,0.41796875,,
4.115869999999879,1500,,,,-0.0625,0.015625,-0.84375,0.12817577869566693,5.258657474955656,22.736625141088847,2.8337767680697525,3683,0,64.43052010912824,49.43358873985978,76.72387038957993,0.10637822599991498,0.08161749223890918,0.416015625,,
4.123264999999898,1500,,,,-0.25,0.224609375,-0.994140625,0.12817577869566693,5.278980580537936,22.736422837803204,2.8321932086700583,3672,0,64.39394235067705,49.29156084168552,76.54689096880129,0.10709704643951018,0.08197945936885834,0.416015625,,
4.131059999999823,1500,,,,0.09375,-0.02734375,-0.875,0.12817577869566693,5.278980580537936,22.736402209723956,2.832410929935172,3674,0,64.39883412622433,49.30789635467285,76.56644258190664,0.10706156560738478,0.08197323215806857,0.41796875,,
4.138139999999665,1500,,,,-0.0625,0.26953125,-0.9609375,0.12817577869566693,5.278980580537936,22.736256115839534,2.833646909916295,3674,0,64.42652188571417,49.31424825360217,76.54339674129923,0.10704777559196255,0.08193800357409156,0.416015625,,
4.145179999999935,1500,,,,0.375,-0.33203125,-1.140625,0.12817577869566693,5.278980580537936,22.73615889912448,2.8348977158284887,3681,0,64.45468492984155,49.40273360845756,76.64723466142465,0.1068560420639192,0.08190220131064278,0.41796875,,
4.152394999999786,1500,,,,-0.25,0.037109375,-0.7578125,0.12817577869566693,5.278980580537936,22.735890208750867,2.838384098789794,3676,0,64.53318924034903,49.33577663905475,76.45023780756804,0.10700106373432533,0.08180256768151917,0.416015625,,
4.1596749999998135,1500,,,,0.125,0,-1.064453125,0.12817577869566693,5.278980580537936,22.735636247607296,2.8439224301965425,3795,0,64.65838588935993,50.933544180223876,78.77329982746353,0.10364447763263294,0.08164417512016235,0.41796875,,
4.168274999999907,1500,,,,-0.4375,0.3359375,-0.7421875,0.12817577869566693,5.278980580537936,22.735555423701463,2.8512859371536843,3981,0,64.82556945297816,53.44170274805595,82.43923377614199,0.09878017183368973,0.08143361678245024,0.41796875,,
4.176239999999991,1500,,,,0.15625,0.158203125,-1.19921875,0.12817577869566693,5.278980580537936,22.735511393345014,2.850130015431556,4048,0,64.79916343835875,54.33674186632169,83.85407925522124,0.09715305701481317,0.0814668014280717,0.416015625,,
4.184094999999739,1500,,,,-0.75,0.109375,-0.5703125,0.12817577869566693,5.278980580537936,22.73553540861143,2.8484082486670865,3946,0,64.76008659575142,52.967647199300416,81.7905750033005,0.09966424524530626,0.08151595925883558,0.419921875,,
4.194759999999777,1500,,,,0.15625,-0.04296875,-1.1796875,0.12817577869566693,5.278980580537936,22.735558150722646,2.845928927112952,3778,0,64.70378261520023,50.71429669468566,78.37918378943714,0.1040925522899171,0.08158689287043006,0.41796875,,
4.211579999999842,1500,,,,0.0625,-0.296875,-1.220703125,0.12817577869566693,5.278980580537936,22.73579188502031,2.842616121090718,3689,0,64.62912853812225,49.51675881779998,76.6167824599274,0.10660997824922822,0.0816811351157871,0.419921875,,
4.220164999999804,1500,,,,-0.25,0.3359375,-0.974609375,0.12817577869566693,5.278980580537936,22.735730045752153,2.8395423845976757,3681,0,64.55906910968409,49.40416502817027,76.52552260974201,0.1068529460527844,0.08176977539079897,0.41796875,,
4.228264999999897,1500,,,,0.4375,-0.30078125,-1.28515625,0.12817577869566693,5.278980580537936,22.735743231639127,2.838553369565826,3681,0,64.53662055975266,49.40361763007575,76.55129320621043,0.106854129996428,0.08179821835651085,0.419921875,,
4.236034999999916,1500,,,,-0.1875,0.078125,-0.775390625,0.1285950411892615,5.278980580537936,22.735755905381826,2.836865050138687,3684,0,64.49827131646197,49.616603850304514,76.92702895378348,0.10639544367979827,0.0818468537650648,0.423828125,,
4.24408499999973,1500,,,,0.125,-0.14453125,-0.939453125,0.1285950411892615,5.278980580537936,22.735866299664057,2.8368538959679106,3671,0,64.4983308904075,49.44145444080004,76.65540140071005,0.10677235611785765,0.08184677816713938,0.421875,,
4.2521099999998695,1500,,,,-0.1875,0.33984375,-0.87890625,0.1285950411892615,5.278980580537936,22.735872924890543,2.836207512330033,3666,0,64.48365358895556,49.37268542446527,76.56620348962605,0.10692107458108979,0.08186540753705204,0.421875,,
4.261094999999739,1500,,,,0.15625,-0.11328125,-0.9765625,0.1285950411892615,5.278980580537936,22.736076396851615,2.836870425378369,3681,0,64.49930271937154,49.572264511246196,76.85705491566159,0.10649060785472735,0.08184554495892964,0.421875,,
4.269379999999888,1500,,,,-0.34375,0.138671875,-1.017578125,0.1285950411892615,5.292639204534427,22.73575170966606,2.8363351833781674,3684,0,64.48621249467617,49.612907935223284,76.93568286293633,0.1066786734501578,0.08207396588800088,0.421875,,
4.278094999999972,1500,,,,0.25,-0.3828125,-1.16796875,0.1285950411892615,5.292639204534427,22.7356308322275,2.8393884057880574,3679,0,64.55528658330425,49.53697791947742,76.73574162753238,0.10684218995227436,0.0819861468309746,0.421875,,
4.285914999999805,1500,,,,-0.25,0.45703125,-0.890625,0.1285950411892615,5.292639204534427,22.735843233147094,2.840520943649154,3670,0,64.58163887527822,49.420956861077464,76.52477967696133,0.1070930135855536,0.08195269269576316,0.423828125,,
4.294399999999907,1500,,,,0.09375,-0.17578125,-0.90625,0.1285950411892615,5.292639204534427,22.735717627427956,2.8433699766437344,3673,0,64.64605689927836,49.46740732132232,76.52037834015908,0.10699245202311422,0.0818710290835002,0.427734375,,
4.302424999999814,1500,,,,-0.1875,0.31640625,-1.10546875,0.1285950411892615,5.292639204534427,22.735666689298004,2.841255278503391,3678,0,64.59783299126167,49.52604905535467,76.66828245160205,0.10686576671235995,0.08193214786710226,0.427734375,,
4.310424999999814,1500,,,,0.125,-0.30078125,-1.05078125,0.1285950411892615,5.292639204534427,22.735781164211147,2.8403907983933343,3679,0,64.57850361310983,49.53924760309472,76.7116684831916,0.10683729488462791,0.08195667146830558,0.427734375,,
4.318469999999972,1500,,,,-0.15625,0.20703125,-0.982421875,0.1285950411892615,5.292639204534427,22.735791827637364,2.8398908411744803,3678,0,64.56716697815695,49.52391149319627,76.70138525661223,0.10687037927651462,0.08197106133408216,0.431640625,,
4.326249999999767,1500,,,,0.1875,-0.24609375,-0.82421875,0.1285950411892615,5.292639204534427,22.735802302868258,2.8368060409661666,3684,0,64.49706131898915,49.61146816456635,76.92050947747568,0.1066817693638535,0.08206016051426167,0.4296875,,
4.33473499999987,1500,,,,-0.34375,0.2109375,-1.037109375,0.1285950411892615,5.292639204534427,22.73601013252241,2.8374421427147176,3686,0,64.51211330720791,49.6315365775154,76.93367033438989,0.10663863280292142,0.08204101420970011,0.431640625,,
4.345064999999944,1500,,,,0.15625,-0.15234375,-0.873046875,0.1285950411892615,5.292639204534427,22.736009688381365,2.8355094653791575,3684,0,64.46817067635759,49.61071839778853,76.95381748435786,0.10668338164541383,0.08209693479755269,0.435546875,,
4.362249999999767,1500,,,,-0.46875,0.21484375,-0.873046875,0.1285950411892615,5.292639204534427,22.7360087069379,2.835423862380879,3676,0,64.46622162295115,49.50246382355804,76.7882195936457,0.1069166824382523,0.08209941689292599,0.439453125,,
4.370359999999869,1500,,,,0.5625,-0.35546875,-1.2734375,0.1285950411892615,5.292639204534427,22.736073247252158,2.834637776592331,3675,0,64.44853211803124,49.4941512144752,76.79639797510276,0.10693463923847485,0.08212195112281956,0.443359375,,
