Time (s),ESC signal (µs),Servo 1 (µs),Servo 2 (µs),Servo 3 (µs),AccX (g),AccY (g),AccZ (g),Torque (N·m),Thrust (N),Voltage (V),Current (A),Motor Electrical Speed (RPM),Motor Optical Speed (RPM),Electrical Power (W),Mechanical Power (W),Motor Efficiency (%),Propeller Mech. Efficiency (N/W),Overall Efficiency (N/W),Vibration (g),App message,90% settling time (s),Max acceleration (RPM/s),
0,1000,,,,-0.0625,0.048828125,-0.955078125,0.00006488069653211896,0.003888022629945856,15.18014128417965,0.06511116340262274,0,0,0.9883966596291206,0,0,0,0,0.05859375,,
0,1200,,,,-0.0625,0.048828125,-0.958984375,0.00006488069653211896,0.003888022629945856,15.179913885981916,0.06421779740678951,0,0,0.9748206345824976,0,0,0,0,0.05859375,,
0.008629999998956918,1200,,,,-0.0625,0.046875,-0.95703125,0.00006488069653211896,0.003888022629945856,15.179785658634211,0.06438294945735164,0,0,0.9773193728332776,0,0,0,0,0.05859375,,
0.017244999999180437,1200,,,,-0.0625,0.05078125,-0.95703125,0.00006488069653211896,0.003888022629945856,15.180088937636588,0.06550408352627515,0,0,0.9943578137072325,0,0,0,0,0.05859375,,
0.02621000000089407,1200,,,,-0.0625,0.046875,-0.953125,0.00006488069653211896,0.003888022629945856,15.180010330901563,0.0653765801752986,0,0,0.9924171624600471,0,0,0,0,0.05859375,,
0.035365000000223516,1200,,,,-0.0625,0.048828125,-0.955078125,0.00006488069653211896,0.003888022629945856,15.180227664333525,0.06502169595618217,0,0,0.9870441477359199,0,0,0,0,0.05859375,,
0.054900000000372526,1200,,,,0.0625,0,-0.984375,0.00006488069653211896,0.003888022629945856,15.17841471532945,0.11867636154126099,0,0,1.801319032379634,0,0,0,0,0.05859375,,
0.07115000000037253,1200,,,,0.03125,0.037109375,-0.994140625,0.00006488069653211896,0.009221531853972965,15.176429785864839,0.18074937844919844,0,0,2.7431302508729716,0,0,0,0,0.0625,,
0.07829999999888242,1200,,,,-0.0625,0.0625,-0.8671875,0.00006488069653211896,0.009221531853972965,15.1757782754506,0.2029226659415691,0,0,3.079509385392584,0,0,0,0,0.0625,,
0.08536999999918043,1200,,,,-0.0625,0.041015625,-1.0390625,0.00006488069653211896,0.009221531853972965,15.17535085166348,0.21474421000320337,0,0,3.2588187301619134,0,0,0,0,0.064453125,,
0.09255000000074506,1200,,,,0.1875,-0.01171875,-1.08984375,0.00006488069653211896,0.009221531853972965,15.17512374532482,0.22405777177144234,0,0,3.4001044127333837,0,0,0,0,0.06640625,,
0.10122999999858438,1200,,,,-0.3125,0.078125,-0.9140625,0.00006488069653211896,0.009221531853972965,15.174811719355542,0.23422479263328574,0,0,3.554317128215206,0,0,0,0,0.068359375,,
0.12120999999903143,1200,,,,-0.08203125,0.05859375,-0.935546875,0.00028316812919039263,0.009221531853972965,15.174439379520946,0.2451871370912356,0,0,3.7205773484292464,0,0,0,0,0.0703125,,
0.1375049999989569,1200,,,,-0.125,0.109375,-0.982421875,0.00028316812919039263,0.009221531853972965,15.173620691247562,0.25355898788502057,0,0,3.847407905023938,0,0,0,0,0.072265625,,
0.14658999999985098,1200,,,,0.03125,-0.005859375,-1.041015625,0.00028316812919039263,0.009221531853972965,15.173383950492422,0.26509960205379696,1,0,4.022458047085011,0.000028270095917556438,0.0007028064826690528,0,0.0022925116299610912,0.072265625,,
0.16794999999925495,1200,,,,-0.041015625,0.03515625,-0.97265625,0.00028316812919039263,0.009221531853972965,15.173608045947038,0.2575021544340642,1,0,3.9072367623694135,0.000028270097063111297,0.0007235317126256725,0,0.0023601159629704333,0.07421875,,
0.17553999999910594,1200,,,,-0.03125,0.0625,-1.01171875,0.00028316812919039263,0.009221531853972965,15.173538708990778,0.2530548545074708,1,0,3.8397376303671376,0.000028270096417166005,0.0007362507321747125,0,0.002401604677632947,0.07421875,,
0.184214999999851,1200,,,,-0.0625,0.0234375,-0.9921875,0.00028316812919039263,0.009221531853972965,15.173890612837667,0.24744273422927884,1,0,3.7546689821365398,0.000028270096098059545,0.0007529317826034523,0,0.0024560172675263604,0.07421875,,
0.2004199999999255,1200,,,,-0.03125,0.041015625,-0.982421875,0.00028316812919039263,0.009221531853972965,15.174301152007128,0.23749002136154232,1,0,3.603745104736649,0.000028270095955046364,0.0007844643595322278,0,0.0025588746112627314,0.07421875,,
0.220089999999851,1200,,,,-0.03125,0.056640625,-1.021484375,0.00028316812919039263,0.011285957944619887,15.174601088300577,0.22460154768790586,1,0,3.40823888997889,0.000028270095922085743,0.0008294634512037049,0,0.0033113752612246583,0.076171875,,
0.227839999999851,1200,,,,-0.0625,0.056640625,-0.96875,0.00028316812919039263,0.011285957944619887,15.174534509979676,0.218392632406522,315,0,3.314006537178074,0.009344713249245984,0.2819763070595252,0,0.003405532794823648,0.076171875,,
0.23640000000037253,1200,,,,0,0,-0.98828125,0.00028316812919039263,0.011285957944619887,15.174606632965352,0.21439045917197597,428,0,3.253290883795554,0.012694265517284477,0.39019767892609447,0.8890595465529657,0.003469089714920533,0.076171875,,
0.24467999999970197,1200,,,,-0.03125,0.05078125,-0.98046875,0.00028316812919039263,0.011285957944619887,15.174781575463555,0.20861391915498967,474,0,3.165670656778381,0.014045915896951347,0.44369479392545225,0.8035045936071348,0.003565108050786719,0.076171875,,
0.25241499999910594,1200,,,,-0.0625,0.05859375,-0.9765625,0.00028316812919039263,0.011285957944619887,15.174839165227619,0.20399609783334585,490,0,3.095607974955062,0.014534801956994274,0.4695298007560299,0.7764782745587383,0.003645796895449503,0.07421875,,
0.2610449999999255,1200,,,,-0.0625,0.04296875,-0.98046875,0.00028316812919039263,0.011285957944619887,15.175047687927526,0.19774309961655917,497,0,3.0007609666398887,0.01474849579808275,0.4914918569671154,0.7652277289245334,0.003761031974918473,0.07421875,,
0.269105000000447,1200,,,,-0.03125,0.02734375,-0.93359375,0.001864965043665585,0.011285957944619887,15.17509518905592,0.19395941957492255,500,0,2.9433526548634856,0.09762083295402116,3.3166543191049893,0.11561013774524447,0.003834388626850878,0.07421875,,
0.2778300000000745,1200,,,,-0.0625,0.029296875,-0.951171875,0.001864965043665585,0.011285957944619887,15.175448292174108,0.19026743292245107,501,0,2.8873935899993617,0.09781266112231789,3.3875763062263884,0.11538340553383404,0.003908700907181269,0.07421875,,
0.2864199999999255,1200,,,,0,0.01953125,-0.96484375,0.001864965043665585,0.011285957944619887,15.175686188354582,0.186804294102043,501,0,2.8348833459297014,0.09788652309720544,3.4529294913580832,0.1152963409826341,0.003981101360246149,0.07421875,,
0.2955099999997765,1200,,,,-0.0625,0.033203125,-0.974609375,0.001864965043665585,0.011285957944619887,15.175995476056633,0.1816996921692472,501,0,2.7574737063613783,0.09791482780564914,3.550888901669803,0.11526301171689085,0.0040928614907854415,0.07421875,,
0.30439499999955294,1200,,,,-0.0625,0.0546875,-0.931640625,0.001864965043665585,0.011285957944619887,15.176069317034463,0.17755417961990344,509,0,2.6945745374408423,0.09937147890388334,3.687835594195916,0.1135734123020971,0.00418840072441962,0.07421875,,
0.3116849999986589,1200,,,,-0.0625,0.0546875,-1.013671875,0.001864965043665585,0.011285957944619887,15.176259521042338,0.17328113375708445,525,0,2.629759455997964,0.10256497712323073,3.900165731481646,0.11003715167858837,0.004291631281666784,0.07421875,,
0.3195099999997765,1200,,,,-0.0625,0.01953125,-0.94921875,0.001864965043665585,0.011285957944619887,15.17636523824184,0.1703544206050161,531,0,2.5853609070507955,0.10377057609042278,4.013775245360124,0.1087587480943116,0.004365331708173054,0.07421875,,
0.328570000000298,1200,,,,0,0.015625,-0.96875,0.001864965043665585,0.011285957944619887,15.176564609319678,0.16733562188171,534,0,2.5395798769284594,0.10435447760226203,4.109123660582609,0.10815020307643461,0.004444025583581915,0.07421875,,
0.3377100000008941,1200,,,,-0.0625,0.060546875,-0.966796875,0.001864965043665585,0.011285957944619887,15.17682579680469,0.16234372095690955,535,0,2.4638623721680872,0.10456419486536503,4.243913785385394,0.10793329360161462,0.004580595926179413,0.07421875,,
0.3460649999994785,1200,,,,0,0,-0.96875,0.001864965043665585,0.011285957944619887,15.17707321738805,0.15881044994164947,536,0,2.410277826450754,0.1046396127549461,4.341392166770782,0.10785550182654342,0.004682430307728875,0.07421875,,
0.3544850000012666,1200,,,,-0.03125,0.013671875,-0.9921875,0.001864965043665585,0.03300068514238699,15.177352096357557,0.15642435220028617,536,0,2.374107469788386,0.10466541977512132,4.408621812914417,0.31529692627508255,0.013900249067211976,0.07421875,,
0.36432999999821186,1200,,,,-0.03125,0.046875,-0.951171875,0.001864965043665585,0.03300068514238699,15.177286218427454,0.15441898984860783,536,0,2.3436612064927647,0.1046753472195805,4.466317355494601,0.3152670234105888,0.014080825782738353,0.07421875,,
0.38185999999940395,1200,,,,-0.125,0.044921875,-0.95703125,0.001864965043665585,0.03300068514238699,15.177278786016975,0.15470737931717474,543,0,2.3480370261508376,0.10599543875608167,4.514214962352665,0.31134061549882985,0.014054584648729058,0.07421875,,
0.390515000000596,1200,,,,0,0.015625,-0.939453125,0.001864965043665585,0.03300068514238699,15.176610546141585,0.18088505058991997,548,0,2.7452219664223336,0.10707142063790205,3.9002828167458223,0.30821189207893196,0.01202113546592176,0.07421875,,
0.39847000000067057,1200,,,,-0.125,0.12890625,-0.9375,0.001864965043665585,0.03300068514238699,15.175891019836747,0.19988549583552515,550,0,3.0334405012459618,0.10747301153110146,3.5429411418143117,0.30706020676490464,0.010878962395613898,0.07421875,,
0.4062050000000745,1200,,,,-0.0625,0.068359375,-1.04296875,0.001864965043665585,0.03300068514238699,15.174688706524284,0.24231683199911555,551,0,3.677082493937721,0.10764241637629908,2.9273864960540164,0.30657696336936885,0.008974692625687371,0.076171875,,
0.41534500000067054,1200,,,,0,0.0625,-1.01171875,0.001864965043665585,0.03300068514238699,15.173363170996243,0.28149454414144015,552,0,4.271218948912105,0.10770739590368872,2.521701584301179,0.30639200646811665,0.007726292081278669,0.076171875,,
0.4236000000014901,1200,,,,-0.09375,0.0546875,-0.966796875,0.022648806117922617,0.03300068514238699,15.172426556712388,0.31172502456751217,552,0,4.729625041139943,1.308371080886495,27.66331515724445,0.025222725895185007,0.006977442155632935,0.076171875,,
0.43051500000059606,1200,,,,-0.03125,0.083984375,-1.005859375,0.022648806117922617,0.03300068514238699,15.171806366994447,0.3256616320847639,552,0,4.940875223149424,1.308467648652281,26.482507441631657,0.0252208644030119,0.006679117292371455,0.078125,,
0.43918999999947844,1200,,,,-0.0625,0.03125,-0.984375,0.022648806117922617,0.03300068514238699,15.171368016459803,0.3386757221939551,552,0,5.138174019644796,1.308510872367479,25.466456904041113,0.02522003128845166,0.006422648399259226,0.078125,,
0.446964999999851,1200,,,,-0.03125,-0.01171875,-1.013671875,0.022648806117922617,0.03300068514238699,15.17089959203724,0.3481464401988998,671,0,5.281694687582706,1.5902936220421855,30.109533324237287,0.02075131578532583,0.006248124341600394,0.078125,,
0.4554199999980629,1200,,,,-0.0625,0.015625,-0.978515625,0.022648806117922617,0.03300068514238699,15.170555888028538,0.35584380587570447,712,0,5.398348344446153,1.689029314477956,31.287890419588017,0.0195382548186186,0.0061131077575492625,0.078125,,
0.4634799999985844,1200,,,,0,0.05078125,-1.0234375,0.022648806117922617,0.03300068514238699,15.170299155661645,0.3652427299750861,728,0,5.540841478152603,1.7272452931156868,31.172977966003373,0.019105963278011773,0.005955897722847307,0.078125,,
0.47118999999947847,1200,,,,-0.0625,0.029296875,-0.912109375,0.022648806117922617,0.03300068514238699,15.169991756674348,0.37009845370439126,735,0,5.614390491853538,1.7422328209948281,31.03155762896796,0.018941604557503027,0.005877874934112773,0.078125,,
0.47865000000037256,1200,,,,0,0.1015625,-0.97265625,0.022648806117922617,0.03300068514238699,15.16964532002908,0.373446013026563,737,0,5.66504356379192,1.7477906815660045,30.852201962523196,0.018881371488271514,0.005825318864855798,0.078125,,
0.48664499999955296,1200,,,,-0.03125,0.02734375,-0.9921875,0.022648806117922617,0.03300068514238699,15.169957949619622,0.371316383152922,869,0,5.632853918434674,2.062007735068248,36.60680296216991,0.016004151963714502,0.005858608375123213,0.078125,,
0.4957399999983609,1200,,,,-0.03125,0.0390625,-0.982421875,0.022648806117922617,0.03300068514238699,15.17021624469949,0.36691249296694645,925,0,5.566141861190359,2.1927086018896147,39.3936887807004,0.015050191855838908,0.005928825740587495,0.078125,,
0.5050149999987334,1200,,,,-0.0625,0.09765625,-1,0.022648806117922617,0.04354759840723365,15.170386561609137,0.3622989975471804,944,0,5.496215843674207,2.2394969178105337,40.746160294779024,0.01944525936200367,0.00792319654937754,0.078125,,
0.5172449999991804,1200,,,,-0.03125,0.021484375,-0.9609375,0.022648806117922617,0.04354759840723365,15.170650200204019,0.3551052955872747,952,0,5.387178223594597,2.257336148206472,41.902013531311454,0.01929158776012764,0.008083563713653508,0.078125,,
0.5350999999996274,1200,,,,-0.0625,0.0390625,-0.970703125,0.022648806117922617,0.04354759840723365,15.171379442285616,0.3407083828488121,1033,0,5.169016155366845,2.449418963621341,47.386560420751984,0.01777874632882353,0.008424736371160186,0.078125,,
0.5442949999999255,1200,,,,-0.0625,0.046875,-0.87890625,0.022648806117922617,0.04354759840723365,15.171608788074787,0.3331764887483588,1047,0,5.054823344674501,2.484414761694384,49.14938846105936,0.01752831253406897,0.008615058418038116,0.078125,,
0.553164999999106,1200,,,,-0.03125,0.064453125,-0.9765625,0.022648806117922617,0.04354759840723365,15.171870790220726,0.32561350992714966,1054,0,4.940166100164968,2.4993720324957627,50.59287444631265,0.017423415898492285,0.008815006929783079,0.078125,,
0.561089999999851,1200,,,,-0.0625,0.068359375,-0.98046875,0.022648806117922617,0.04354759840723365,15.172075745593663,0.31905089801605796,1056,0,4.840664391399311,2.5039253815146396,51.72689488582412,0.017391731690059965,0.008996202770141883,0.078125,,
0.5689550000000745,1200,,,,-0.03125,0.060546875,-0.98828125,0.03227530303073446,0.04354759840723365,15.172467463887257,0.3121966650979208,1075,0,4.73679374353231,3.631730200513357,76.67064257277777,0.011990868264684984,0.009193475748589265,0.076171875,,
0.576804999999702,1200,,,,-0.0625,0.05078125,-1.00390625,0.03227530303073446,0.04354759840723365,15.17262254487702,0.30641114215421,1081,0,4.649060603450485,3.655062125205003,78.61936930854921,0.0119143250964007,0.009366967248160428,0.076171875,,
0.584589999999851,1200,,,,-0.03125,0.0546875,-0.9453125,0.03227530303073446,0.04354759840723365,15.172689723982007,0.3015406067133099,1085,0,4.575182064842337,3.665706390762115,80.1215413683966,0.011879728970377229,0.009518221961454187,0.076171875,,
0.5927050000000745,1200,,,,0,-0.0625,-0.9609375,0.03227530303073446,0.04354759840723365,15.172721354599801,0.29538607667823014,1086,0,4.481810633467236,3.6699400843316172,81.88521078795476,0.011866024350957407,0.009716519051931514,0.076171875,,
0.6007199999988079,1200,,,,-0.0625,0.0703125,-1.005859375,0.03227530303073446,0.04354759840723365,15.172783946535935,0.28976341127933464,1089,0,4.396517634952578,3.6797270027270526,83.69640038454533,0.011834464452107573,0.009905020751202642,0.078125,,
0.6087949999999255,1200,,,,-0.0625,0.037109375,-0.95703125,0.03227530303073446,0.04354759840723365,15.172876426922663,0.28481903572210804,1095,0,4.321524033046817,3.6998819848236155,85.61521251601317,0.01176999660688088,0.010076907608108605,0.078125,,
0.6176899999994785,1200,,,,0,-0.0546875,-0.94140625,0.03227530303073446,0.04354759840723365,15.17319356073296,0.27885975466727037,1097,0,4.231193033865,3.7082773593754084,87.64141294655299,0.011743349859506855,0.010292037744128853,0.078125,,
0.6264600000008941,1200,,,,-0.03125,0.05078125,-1.0234375,0.03227530303073446,0.04354759840723365,15.173493166617884,0.27465827412935806,1098,0,4.167525445656876,3.7112963076688725,89.05275699123911,0.011733797249561737,0.010449269950496911,0.078125,,
0.6342249999996274,1200,,,,-0.0625,0.060546875,-0.94140625,0.03227530303073446,0.04354759840723365,15.173320755524585,0.27097054837093537,1098,0,4.111523045732592,3.7123260635897615,90.29077600435286,0.011730542431158055,0.010591597790612488,0.078125,,
0.6423300000000745,1200,,,,0,-0.009765625,-0.9609375,0.03227530303073446,0.04354759840723365,15.17335383993964,0.26751357304240325,1101,0,4.0590781007589225,3.721168757163744,91.67521946591765,0.011702666890180333,0.0107284455549381,0.078125,,
0.6504099999982864,1200,,,,-0.125,0.11328125,-1.02734375,0.03227530303073446,0.04354759840723365,15.17348486121955,0.2625542795427277,1105,0,3.9838633858899843,3.7332337851874944,93.70888064108404,0.01166484632706884,0.010930996921598815,0.078125,,
0.6584900000002235,1200,,,,-0.03125,0.029296875,-1.00390625,0.03227530303073446,0.1354443287924844,15.173510284601116,0.2585025351309113,1106,0,3.922390875404344,3.7379437599503835,95.29758452655622,0.03623498305236198,0.03453106360250798,0.078125,,
0.668964999999851,1200,,,,-0.0625,0.1015625,-0.9765625,0.03227530303073446,0.1354443287924844,15.173501932646495,0.2537444650057349,1106,0,3.850192130162869,3.7397623825783275,97.13183800051375,0.03621736221088575,0.03517858959073683,0.078125,,
0.676734999999404,1200,,,,-0.041015625,0.033203125,-0.982421875,0.03227530303073446,0.1354443287924844,15.173983619434331,0.24869935686319347,1107,0,3.773759967205951,3.740592822851845,99.12111144740712,0.03620932167891533,0.03589108209570781,0.078125,,
0.6851200000010431,1200,,,,-0.0625,0.041015625,-0.998046875,0.03227530303073446,0.1354443287924844,15.17402130274247,0.2444560587829708,1109,0,3.7093814435572647,3.749575174352918,101.08356963033458,0.03612257989089621,0.036513993196287314,0.078125,,
0.693714999999851,1200,,,,-0.0625,0.1171875,-0.9765625,0.03227530303073446,0.1354443287924844,15.173935898126008,0.24009665165676045,1110,0,3.6432112015943723,3.7523569480192784,102.99586656895272,0.036095800764364944,0.03717718279226033,0.078125,,
0.701839999999851,1200,,,,-0.03125,0.00390625,-0.97265625,0.03227530303073446,0.1354443287924844,15.174223428253473,0.23594325158807836,1111,0,3.5802556159861223,3.7538430018834408,104.84846347624558,0.036081511327065885,0.03783091022543609,0.078125,,
0.7099399999994784,1200,,,,-0.0625,0.09765625,-1.01953125,0.03227530303073446,0.1354443287924844,15.174177741772143,0.2319677748482763,1111,0,3.519920245911126,3.7542928121559105,106.65846240456843,0.03607718831997688,0.038479374340887884,0.078125,,
0.7176499999985099,1200,,,,-0.03125,0.015625,-1.005859375,0.03227530303073446,0.1354443287924844,15.174253862988472,0.2292700951522889,1111,0,3.4790026270323544,3.755307136942974,107.94206097355874,0.03606744371453555,0.03893194208594795,0.078125,,
0.7267699999995529,1200,,,,0,0.041015625,-0.974609375,0.019519193843069566,0.1354443287924844,15.174459350571205,0.22409236300457683,1112,0,3.4004804531863977,2.2720252142236217,66.81482941902036,0.059613919750783805,0.03983093879147788,0.078125,,
0.736105000000447,1200,,,,-0.03125,0.001953125,-0.990234375,0.019519193843069566,0.1354443287924844,15.174470851643349,0.2209542594519849,1112,0,3.352863969600587,2.2723575722753737,67.77362854199153,0.05960520053930608,0.04039660720521844,0.078125,,
0.7445049999989569,1200,,,,-0.0625,0.12109375,-1.0390625,0.019519193843069566,0.1354443287924844,15.17433626191579,0.21685175352826777,1112,0,3.2905814270240192,2.2724752820824703,69.05999235939535,0.059602113105654886,0.04116121475680344,0.078125,,
0.7526549999993295,1200,,,,-0.03125,0.001953125,-0.9375,0.019519193843069566,0.1354443287924844,15.174483629313741,0.21420720845996002,1112,0,3.250483778056659,2.2725155783020843,69.91314934851745,0.05960105624168348,0.04166897546354204,0.078125,,
0.760960000000894,1200,,,,0.03125,-0.0234375,-0.919921875,0.019519193843069566,0.1354443287924844,15.174566327567756,0.21117692162818602,1113,0,3.2045182040984868,2.275554102047124,71.01080278266967,0.05952147157065461,0.042266674790380335,0.078125,,
0.769289999999106,1200,,,,-0.0625,0.01953125,-0.94921875,0.019519193843069566,0.1354443287924844,15.174637690801823,0.20813311347162425,1114,0,3.158344588390442,2.2765997354271166,72.08205665067467,0.05949413359088942,0.04288459507881298,0.078125,,
0.7771199999991805,1200,,,,-0.09375,0.0859375,-1.03125,0.019519193843069566,0.1354443287924844,15.174780443963236,0.20529504268551882,1114,0,3.115307198986809,2.276973060440421,73.08984042347288,0.059484379128440894,0.04347703778187106,0.080078125,,
0.7853799999989569,1200,,,,-0.0625,0.068359375,-0.974609375,0.019519193843069566,0.1354443287924844,15.174921473250727,0.20320132838765537,1114,0,3.083564201542904,2.2771625543992493,73.84839119807654,0.05947942913904831,0.043924601512987126,0.080078125,,
0.7928599999994039,1200,,,,0,0.05078125,-0.984375,0.019519193843069566,0.1354443287924844,15.174967964426672,0.20334051140680914,1114,0,3.085685746468465,2.2772218522685037,73.79953888288074,0.059477880320513606,0.04389440141385071,0.078125,,
0.8106500000003726,1200,,,,-0.0625,0.037109375,-1.001953125,0.019519193843069566,0.17846692568641573,15.175379755745086,0.19830628331037017,1113,0,3.009373157185241,2.2756141142414568,75.61754542829473,0.07842583000760878,0.059303687633520764,0.078125,,
0.822160000000149,1200,,,,-0.0625,0.0859375,-0.9375,0.019519193843069566,0.17846692568641573,15.175340535232314,0.195884797849742,1113,0,2.9726185130449774,2.2754606058764457,76.54734692295233,0.07843112081374624,0.0600369421448582,0.078125,,
0.8299350000005216,1200,,,,-0.01953125,0.04296875,-0.984375,0.019519193843069566,0.17846692568641573,15.175382987784424,0.19404799997554356,1113,0,2.944752717642456,2.2754016424608707,77.26970175894898,0.07843315323153317,0.06060506358214514,0.078125,,
0.8385800000000745,1200,,,,-0.0625,0.0625,-1.033203125,0.019519193843069566,0.17846692568641573,15.175483781083276,0.19311798997764812,1115,0,2.9306589247412016,2.278185829312453,77.73630053226455,0.0783372995258584,0.060896518588281524,0.078125,,
0.8468650000002235,1200,,,,-0.0625,0.01953125,-0.890625,0.019519193843069566,0.17846692568641573,15.17557440240817,0.19058103236850302,1115,0,2.8921766363959773,2.2792079094175404,78.80597197056835,0.07830217021843504,0.06170678631468664,0.080078125,,
0.855820000000298,1200,,,,0,0.052734375,-0.986328125,0.019519193843069566,0.17846692568641573,15.175524681036014,0.18812024988275305,1115,0,2.8548234950983815,2.2796356198498873,79.85206874484292,0.07828747898673721,0.06251417153909387,0.078125,,
0.8637949999999255,1200,,,,-0.0625,0.029296875,-0.970703125,0.019519193843069566,0.17846692568641573,15.175450397659233,0.1896483575292752,1115,0,2.87799924268306,2.2797804065653366,79.2140724971135,0.07828250702237143,0.062010761865259265,0.078125,,
0.8726149999983609,1200,,,,0,0.078125,-1.0390625,0.013821048168481325,0.17846692568641573,15.175333877399616,0.19248537785433653,1116,0,2.9210298754569792,1.6145141135267296,55.272084927722545,0.11053909296374884,0.06109726134125743,0.078125,,
0.8814599999990315,1200,,,,-0.0625,-0.001953125,-0.958984375,0.013821048168481325,0.17846692568641573,15.175591476188849,0.19433232330175995,1116,0,2.949107949046164,1.614823144562284,54.75632538593813,0.11051793893800746,0.06051556225472778,0.078125,,
0.8892349999994039,1200,,,,0,0.05078125,-0.919921875,0.013821048168481325,0.17846692568641573,15.175739785758628,0.19240473903073985,1116,0,2.9198842530773046,1.614926157858771,55.3078827065415,0.11051088919325255,0.06112123297296017,0.078125,,
0.897820000000298,1200,,,,0,0.02734375,-0.9296875,0.013821048168481325,0.17846692568641573,15.175885317580203,0.19029628357401795,1116,0,2.887914575881018,1.6149679913914765,55.92159840457875,0.11050802656010933,0.06179785481776957,0.078125,,
0.9059199999999255,1200,,,,-0.03125,0.01953125,-0.99609375,0.013821048168481325,0.17846692568641573,15.176088233955186,0.18788292187291367,1116,0,2.8513277999966467,1.6149842616738432,56.639726294386165,0.11050691323855037,0.06259081319468972,0.078125,,
0.9139700000006705,1200,,,,-0.0625,0.0546875,-1.0234375,0.013821048168481325,0.17846692568641573,15.176149814944107,0.18686942304650495,1122,0,2.835958359985928,1.623446198404272,57.2450647128799,0.10993091477982797,0.06293002330517339,0.078125,,
0.921304999999702,1200,,,,0,-0.05859375,-0.953125,0.013821048168481325,0.17846692568641573,15.17640052495756,0.18571578532254812,1124,0,2.8184971418620246,1.6267281233087598,57.71615302167987,0.10970912909737772,0.06331988882859485,0.078125,,
0.929539999999106,1200,,,,-0.0625,0.08203125,-0.91796875,0.013821048168481325,0.17846692568641573,15.176478894344363,0.18418014900588836,1125,0,2.7952061441450646,1.6280452283512137,58.24419181967575,0.10962037330323819,0.06384750050018267,0.078125,,
0.9378300000000745,1200,,,,0.0625,-0.046875,-0.94140625,0.013821048168481325,0.17846692568641573,15.176587104952414,0.18356324174692148,1125,0,2.785863527639591,1.6285684358105654,58.45829918274641,0.10958515574912871,0.06406161820770429,0.078125,,
0.9465299999993294,1200,,,,-0.09375,0.056640625,-0.966796875,0.013821048168481325,0.17846692568641573,15.176993070293243,0.18125040621790328,1125,0,2.7508361591569535,1.6277282505391848,59.17212645038204,0.10964172037150462,0.06487733742060099,0.080078125,,
0.9557649999987334,1200,,,,-0.03125,0.0625,-1.02734375,0.013821048168481325,0.1957033388357118,15.176864822983182,0.18048525285627498,1123,0,2.739200285141625,1.625306532305684,59.335074588080026,0.12041011030582897,0.07144542876155306,0.080078125,,
0.9648000000007451,1200,,,,-0.09375,0.06640625,-0.91015625,0.013821048168481325,0.1957033388357118,15.177115034284178,0.17921191304997292,1122,0,2.7199198198735726,1.6244934933876132,59.72578608817678,0.12047037407801788,0.07195187792146332,0.080078125,,
0.973910000000149,1200,,,,0,0.015625,-0.953125,0.013821048168481325,0.1957033388357118,15.176693373950654,0.17856965311905895,1122,0,2.7100968712806885,1.6241527291722144,59.92969278639482,0.12049565002144617,0.07221267287882217,0.080078125,,
0.9823499999996275,1200,,,,-0.0625,0.046875,-0.994140625,0.013821048168481325,0.1957033388357118,15.176815392347418,0.1754651373508442,1122,0,2.663001997366646,1.624021210249184,60.984603535976476,0.12050540818101986,0.07348974541860513,0.080078125,,
0.990234999999404,1200,,,,-0.0625,0.05078125,-1.0078125,0.013821048168481325,0.1957033388357118,15.176722010960392,0.17454640718041023,1121,0,2.6490422997889866,1.6219666456276607,61.228416237704494,0.12065805382821511,0.0738770154222531,0.080078125,,
0.9992649999987334,1200,,,,-0.0625,0.048828125,-0.958984375,0.013821048168481325,0.1957033388357118,15.17646657645345,0.17368832161598283,1120,0,2.6359750077252606,1.6209663291057037,61.4939946075032,0.1207325132679853,0.07424324519851797,0.080078125,,
1.0072750000003725,1200,,,,0,0.07421875,-0.98828125,0.013821048168481325,0.1957033388357118,15.176589015758893,0.17430234065062064,1120,0,2.645314988539274,1.6205976178587407,61.26293560048304,0.12075998179874547,0.07398110988052048,0.078125,,
1.015405000001192,1200,,,,-0.0625,-0.046875,-0.9453125,0.013821048168481325,0.1957033388357118,15.17665882638457,0.17331530309416424,1120,0,2.6303472244515644,1.62047444137374,61.606864155039986,0.12076916107964429,0.07440209300751788,0.078125,,
1.0239199999999256,1200,,,,-0.09375,0.0859375,-1.015625,0.010444842052207384,0.1957033388357118,15.1764294141889,0.17302234801847108,1120,0,2.6258614517795533,1.2245884616511384,46.63568448446629,0.1598115162475407,0.07452919448704468,0.080078125,,
1.0318499999996276,1200,,,,-0.0625,-0.01953125,-0.96484375,0.010444842052207384,0.1957033388357118,15.17621579787888,0.17568059563257152,1119,0,2.666166630819803,1.2243440356057778,45.92151223606425,0.15984342075786093,0.07340251602186476,0.080078125,,
1.0401150000002235,1200,,,,-0.0625,0.09765625,-0.955078125,0.010444842052207384,0.1957033388357118,15.176105842837808,0.1791439478292853,1119,0,2.718707513361048,1.2242447232686164,45.03039467291291,0.1598563874657369,0.07198396218568222,0.080078125,,
1.0477249999996274,1200,,,,0,-0.0078125,-0.96484375,0.010444842052207384,0.1957033388357118,15.176165553541866,0.17836026089637397,1119,0,2.706824847536291,1.2242063535236969,45.226655675115076,0.1598613977720412,0.07229996392778715,0.080078125,,
1.055820000000298,1200,,,,-0.03125,0.03515625,-0.998046875,0.010444842052207384,0.1957033388357118,15.176354651050003,0.17846031445315033,1119,0,2.708377023278914,1.2241909924651837,45.20016902901905,0.1598634037010999,0.07225852868844025,0.080078125,,
1.0638100000005215,1200,,,,-0.0625,0.08984375,-1.03515625,0.010444842052207384,0.1957033388357118,15.17620701319017,0.1762202385787841,1121,0,2.674354820585388,1.226359127966137,45.85626105131779,0.15958077399421916,0.07317777631050258,0.080078125,,
1.0720599999986589,1200,,,,-0.03125,-0.013671875,-0.998046875,0.010444842052207384,0.1957033388357118,15.17619678117931,0.1751416037431699,1123,0,2.6579834429776774,1.2283124248959718,46.21219248528959,0.15932700416368928,0.07362850184516946,0.080078125,,
1.0795,1200,,,,-0.03125,0.0703125,-0.921875,0.010444842052207384,0.1957033388357118,15.17628545367474,0.17539953068430916,1124,0,2.6619133461056577,1.22907832481912,46.172739868382436,0.15922771957150325,0.07351980075610766,0.080078125,,
1.086824999999255,1200,,,,0.0625,0.0234375,-0.9921875,0.010444842052207384,0.1957033388357118,15.17644538682669,0.1747729937483314,1124,0,2.6524327947137545,1.2293585417505422,46.34833893626369,0.15919142560073687,0.07378258149489957,0.080078125,,
1.0948499999996275,1200,,,,-0.0625,-0.01953125,-0.95703125,0.010444842052207384,0.1957033388357118,15.176552731586538,0.17315860888304394,1124,0,2.6279507586416853,1.2294889049979374,46.78508152996847,0.15917454646411805,0.07446994133819516,0.080078125,,
1.1035400000009685,1200,,,,-0.09375,0.103515625,-0.99609375,0.010444842052207384,0.21101938363103676,15.176723456982248,0.17093742309103732,1124,0,2.5942699987018454,1.2289925030264626,47.373346014155885,0.17170111543511435,0.08134056352524192,0.080078125,,
1.1124450000002981,1200,,,,-0.0625,0,-0.984375,0.010444842052207384,0.21101938363103676,15.176920436770816,0.1707227024184228,1123,0,2.5910448713549035,1.228778946695834,47.424070508407816,0.17173095632738852,0.08144180981346377,0.080078125,,
1.1207999999988825,1200,,,,0,0.048828125,-0.9765625,0.010444842052207384,0.21101938363103676,15.176775416477883,0.16990978449524152,1123,0,2.5786826403464365,1.228714558380843,47.64892504243057,0.17173995554273458,0.0818322426844612,0.080078125,,
1.130984999999404,1200,,,,-0.0625,0.01953125,-0.953125,0.010444842052207384,0.21101938363103676,15.17700376823156,0.1686947477964479,1123,0,2.5602808229875627,1.2286892892508765,47.990410982227054,0.17174348753352758,0.08242040550254977,0.080078125,,
1.148019999999553,1200,,,,-0.03125,0.013671875,-0.974609375,0.010444842052207384,0.21101938363103676,15.177089976711217,0.16784050225273572,1121,0,2.5473304044261718,1.226032789956518,48.130104670607196,0.1721156117190966,0.08283942407485703,0.080078125,,
1.155894999999553,1200,,,,0,0.044921875,-0.93359375,0.010444842052207384,0.21101938363103676,15.177133949084764,0.16781762939010478,1120,0,2.5469906402714844,1.2253818027817402,48.11096607136046,0.17220704857212787,0.08285047471102765,0.080078125,,
1.164004999998957,1200,,,,0,-0.03515625,-0.94921875,0.010444842052207384,0.21101938363103676,15.176946734161762,0.16843712061396282,1120,0,2.5563612076136937,1.2251189662385715,47.92432941752362,0.1722439938048794,0.08254677899294938,0.080078125,,
1.1741300000008195,1200,,,,-0.0625,0.04296875,-0.982421875,0.00841531695367613,0.21101938363103676,15.177011814851173,0.16756724815640747,1120,0,2.5431701050518947,0.9869747491146527,38.808837330781415,0.21380423746436042,0.08297493872386125,0.080078125,,
1.182050000000745,1200,,,,-0.03125,0.015625,-1.013671875,0.00841531695367613,0.21101938363103676,15.176962840029425,0.16692714970427144,1118,0,2.5334471480537566,0.9856485945491348,38.90543346468977,0.21409190333961095,0.08329338300708027,0.080078125,,
1.1898349999990314,1200,,,,-0.03125,0.056640625,-0.93359375,0.00841531695367613,0.21101938363103676,15.177014037151265,0.16694886235815795,1118,0,2.533785227496198,0.9851141495921414,38.87914961780712,0.2142080526590785,0.0832822692867142,0.080078125,,
1.1979199999999255,1200,,,,0,-0.03515625,-0.94921875,0.00841531695367613,0.21101938363103676,15.176900421109668,0.16633870347322824,1118,0,2.524505938789674,0.9849063925728505,39.013827515297706,0.21425323789380146,0.08358838867782817,0.080078125,,
1.207004999998957,1200,,,,-0.09375,0.068359375,-0.98828125,0.00841531695367613,0.21101938363103676,15.17692424364617,0.1673489481578793,1118,0,2.539842308446004,0.9848181324351057,38.7747746842466,0.21427243942925858,0.08308365559913379,0.080078125,,
1.215695000000298,1200,,,,-0.03125,0.0078125,-1.01171875,0.00841531695367613,0.21101938363103676,15.176946914695161,0.16807105884138962,1118,0,2.5508055379323773,0.9848525521572479,38.60947208682737,0.21426495079777594,0.08272656637012167,0.080078125,,
1.2240399999991058,1200,,,,0,0.046875,-0.970703125,0.00841531695367613,0.21101938363103676,15.176900730522076,0.1670835047397471,1118,0,2.5358097651428566,0.984988213252306,38.843142998813086,0.2142354403757559,0.08321577845929182,0.080078125,,
1.231945000000298,1200,,,,-0.0625,0.033203125,-0.970703125,0.00841531695367613,0.21101938363103676,15.176996139162792,0.16592725316081955,1118,0,2.5182772806036455,0.985044746898089,39.11581756644241,0.21422314498456835,0.08379513457725918,0.08203125,,
1.239089999999851,1200,,,,-0.0625,0.1015625,-1.0390625,0.00841531695367613,0.21101938363103676,15.176953129070899,0.1654269289392396,1118,0,2.5106767467969817,0.9850630078802609,39.23495962341483,0.21421917374110466,0.0840488063229353,0.08203125,,
1.247754999998957,1200,,,,0,0.01953125,-1.05859375,0.00841531695367613,0.21101938363103676,15.176838641093406,0.16661107581829404,1118,0,2.528629413513228,0.9850716395311065,38.956742109650115,0.21421729665416198,0.08345207981182602,0.08203125,,
1.2542949999999256,1200,,,,-0.09375,0.083984375,-0.900390625,0.00841531695367613,0.21758536593432373,15.17680311543549,0.16636714501961988,1117,0,2.524921404839875,0.984387669725728,38.9868638223278,0.22103625698089838,0.08617510450711338,0.08203125,,
1.261484999999404,1200,,,,0.0625,-0.0546875,-0.9453125,0.00841531695367613,0.21758536593432373,15.176768251607673,0.1664105902955469,1116,0,2.5255749635287477,0.9837325774702389,38.95083660853852,0.22118345058152392,0.08615280444113693,0.08203125,,
1.268824999999255,1200,,,,-0.0625,0.052734375,-0.97265625,0.00841531695367613,0.21758536593432373,15.176910214319856,0.16673834333491067,1116,0,2.530572866078377,0.9834466669038814,38.86261012621725,0.22124775369805566,0.08598265193268878,0.08203125,,
1.276769999999553,1200,,,,0,0.0625,-1.0546875,0.00841531695367613,0.21758536593432373,15.176607930084948,0.1661383768712474,1116,0,2.5214170079156153,0.9833167022336492,38.998574973781494,0.22127699594654351,0.08629487516394421,0.08203125,,
1.2859799999985844,1200,,,,-0.0625,0.021484375,-0.9296875,0.00841531695367613,0.21758536593432373,15.176410416585519,0.16451523222514633,1116,0,2.4967506840286964,0.9832683018470603,39.38191779166682,0.2212878880826237,0.08714741416761454,0.083984375,,
1.2935600000005216,1200,,,,0,0.01171875,-0.9609375,0.00841531695367613,0.21758536593432373,15.176384767773497,0.16388028918988765,1115,0,2.4871103245997266,0.9828253906791178,39.516758905228414,0.22138761167329576,0.0874852087509796,0.08203125,,
1.3020250000003726,1200,,,,-0.0625,0.01953125,-0.94921875,0.00841531695367613,0.21758536593432373,15.176430263558514,0.1625910075013258,1115,0,2.46755108682559,0.9823336045601203,39.81006147369596,0.22149844505396554,0.08817866713926437,0.08203125,,
1.3117449999991804,1200,,,,-0.0625,0.0625,-1.03515625,0.00841531695367613,0.21758536593432373,15.176079306880924,0.16249635402680765,1114,0,2.466057555789832,0.9821225464005773,39.8256133193137,0.2215460450752929,0.08823207123591859,0.08203125,,
1.321085000000894,1200,,,,-0.0625,0.076171875,-0.939453125,0.006562595235267132,0.21758536593432373,15.176074426390299,0.16173117183278193,1114,0,2.454444300801617,0.7658352028371975,31.20197930696888,0.28411512702502184,0.08864954314231566,0.08203125,,
1.3287750000003726,1200,,,,0,0,-0.951171875,0.006562595235267132,0.21758536593432373,15.176070792220639,0.16221567221501418,1115,0,2.461796525142714,0.7659770833097028,31.114557010973847,0.2840625009225619,0.08838478879634863,0.08203125,,
1.336289999999106,1200,,,,-0.09375,0.09375,-1.013671875,0.006562595235267132,0.21758536593432373,15.175970012709854,0.1611980214711699,1115,0,2.446336339954634,0.7663542673818974,31.326610935114058,0.28392269110428847,0.08894335679874614,0.08203125,,
1.344929999999702,1200,,,,-0.0625,0.05859375,-1,0.006562595235267132,0.21758536593432373,15.176104021875108,0.16236676292371258,1115,0,2.4640948838253967,0.7665054242426744,31.106976816278646,0.2838667008120696,0.08830234881074557,0.08203125,,
1.3531899999994785,1200,,,,-0.03125,0.048828125,-0.958984375,0.006562595235267132,0.21758536593432373,15.176098850765378,0.16196576110863178,1115,0,2.4580084010240464,0.7665646422765562,31.186412624024918,0.2838447717704996,0.08852100173606979,0.08203125,,
1.361129999998957,1200,,,,-0.03125,-0.001953125,-0.994140625,0.006562595235267132,0.21758536593432373,15.17596471044121,0.16264923298597628,1115,0,2.4683590199755066,0.7665872787896211,31.056555087242856,0.283836390134041,0.08814980485962,0.08203125,,
1.3691599999982864,1200,,,,-0.0625,0.078125,-1.02734375,0.006562595235267132,0.21758536593432373,15.175966416255461,0.1624557246387729,1115,0,2.465422621246462,0.7663554863181221,31.084142723192425,0.2839222395075303,0.08825479415140496,0.08203125,,
1.3780849999990314,1200,,,,-0.0625,0.03125,-0.96484375,0.006562595235267132,0.21758536593432373,15.176188738350783,0.16344403903180915,1115,0,2.480457584505108,0.7660019190971606,30.881476219638348,0.2840532908726629,0.08771984947194153,0.08203125,,
1.3861150000002236,1200,,,,0,0.052734375,-0.982421875,0.006562595235267132,0.21758536593432373,15.176179470139965,0.1625726741142651,1114,0,2.467232079298665,0.7658826658140628,31.042181732322987,0.2840975199550319,0.08819006844146356,0.08203125,,
1.407195000000298,1200,,,,-0.0625,0.07421875,-1.005859375,0.006562595235267132,0.21891161060618064,15.17622580020975,0.16294268804998754,1115,0,2.47285502633975,0.765924126149968,30.973272512609327,0.28581370286189123,0.08852585706579306,0.08203125,,
1.4162899999991059,1200,,,,-0.03125,0.0546875,-0.939453125,0.006562595235267132,0.21891161060618064,15.176286703468644,0.16247018830405063,1115,0,2.4656941584688106,0.7663080784936028,31.07879685165325,0.28567049826293606,0.08878295382024352,0.08203125,,
1.4252449999991805,1200,,,,-0.0625,0.017578125,-0.95703125,0.006562595235267132,0.21891161060618064,15.176344103833188,0.1613117301976839,1115,0,2.4481223254647504,0.76644537849585,31.30747881850015,0.28561932363111764,0.08942020924735555,0.08203125,,
1.433105000000447,1200,,,,-0.0625,0.16796875,-1.0625,0.006562595235267132,0.21891161060618064,15.176327251547242,0.162032667036092,1115,0,2.4590607803807236,0.7664919664393136,31.170110659917956,0.28560196347930383,0.08902244806339749,0.08203125,,
1.443804999999702,1200,,,,-0.0625,0.03515625,-0.97265625,0.006562595235267132,0.21891161060618064,15.176236606077659,0.16327273238490028,1115,0,2.477865617994045,0.7665114473154114,30.934342917915803,0.28559470490999833,0.0883468453722686,0.08203125,,
1.451859999999404,1200,,,,0,0.01953125,-0.939453125,0.006562595235267132,0.21891161060618064,15.176387278803022,0.16379542694422822,1114,0,2.485822833802495,0.7658304612967796,30.807926087206695,0.2858486592913762,0.08806404367575849,0.083984375,,
1.460035000000149,1200,,,,-0.0625,0.0546875,-0.98046875,0.006562595235267132,0.21891161060618064,15.176235494823292,0.16332581304505092,1114,0,2.478671001155175,0.7654267093944132,30.880528679993795,0.28599944046815157,0.08831813923838934,0.083984375,,
1.4694700000006706,1200,,,,-0.0625,0.091796875,-1.015625,0.005755407308629558,0.21891161060618064,15.176295897797198,0.16330936756485037,1114,0,2.4784312850462933,0.6711351217672646,27.07902881215966,0.32618112732609233,0.08832668144845972,0.083984375,,
1.4775149999987334,1200,,,,-0.0625,0.0390625,-0.93359375,0.005755407308629558,0.21891161060618064,15.176377609826718,0.16350388999365417,1113,0,2.481396775219264,0.6710865465856776,27.04470938656629,0.3262047372577334,0.08822112319656614,0.083984375,,
1.4862249999996275,1200,,,,0.03125,0.037109375,-0.962890625,0.005755407308629558,0.21891161060618064,15.17657791421485,0.16227827199159747,1115,0,2.4628288386646284,0.6718294561540715,27.27877169565484,0.3258440197894171,0.08888624624229947,0.083984375,,
1.494464999999851,1200,,,,-0.09375,0.060546875,-0.958984375,0.005755407308629558,0.21891161060618064,15.17648432915852,0.16210234285837619,1115,0,2.4601436661100275,0.6720787788134621,27.31868012717124,0.32572314066018193,0.08898326289713115,0.083984375,,
1.5012749999985098,1200,,,,0,0.00390625,-1.03515625,0.005755407308629558,0.21891161060618064,15.17652507760945,0.16214672022522375,1115,0,2.4608237657502317,0.672176166205795,27.31508755568559,0.32567594867557104,0.0889586705285419,0.083984375,,
1.509824999999255,1200,,,,-0.0625,0.0546875,-0.943359375,0.005755407308629558,0.21891161060618064,15.176502371330846,0.16237272899941776,1115,0,2.4642501066991245,0.672213068580667,27.27860563963208,0.32565807009434955,0.08883498067467423,0.083984375,,
1.518234999999404,1200,,,,-0.03125,0.025390625,-0.998046875,0.005755407308629558,0.21891161060618064,15.176472121281225,0.16371789999198944,1115,0,2.4846601449831356,0.6722320794792165,27.05529288730066,0.3256488603991841,0.08810525296515613,0.08203125,,
1.5259099999982864,1200,,,,-0.0625,0.09375,-0.97265625,0.005755407308629558,0.21891161060618064,15.176570285946232,0.1638809273242746,1115,0,2.4871504120628996,0.6718755275528178,27.013867930711466,0.3258216762314973,0.08801703730680702,0.08203125,,
1.534,1200,,,,-0.0625,0.0625,-1.02734375,0.005755407308629558,0.21891161060618064,15.176444958590384,0.16341560291911736,1115,0,2.4800679030768467,0.6717165404878925,27.0846027906954,0.32589879422528,0.08826839391558285,0.083984375,,
1.542464999999851,1200,,,,-0.0625,0.109375,-0.98046875,0.005755407308629558,0.21891161060618064,15.176423099398313,0.1620086839575669,1114,0,2.4587123335167393,0.6716533065965522,27.317278944783048,0.3259294764965345,0.08903506425782944,0.083984375,,
1.5505849999990313,1200,,,,0,-0.015625,-0.95703125,0.005755407308629558,0.21891161060618064,15.176400364458106,0.16206332172117635,1114,0,2.459537854834552,0.6716272911246441,27.307052412487593,0.3259421013693648,0.08900518045529589,0.08203125,,
1.558789999999106,1200,,,,-0.0625,0.080078125,-1.021484375,0.005755407308629558,0.2194553662024358,15.176480460637034,0.16363239939616642,1114,0,2.4833639121630746,0.671618101834328,27.04469121681531,0.32675618123314093,0.08837020024636037,0.08203125,,
1.56702499999851,1200,,,,-0.0625,0.03515625,-1.05078125,0.005755407308629558,0.2194553662024358,15.176391486764375,0.1633895501793443,1114,0,2.4796637783680615,0.6716145730249944,27.08490477152525,0.3267578980813281,0.08850206552876524,0.083984375,,
1.576359999999404,1200,,,,-0.03125,0.04296875,-0.94140625,0.005755407308629558,0.2194553662024358,15.176369577093524,0.16433950143313272,1114,0,2.494077009864513,0.671613089400282,26.92832205035908,0.32675861990480093,0.0879906134952735,0.083984375,,
1.5852550000008196,1200,,,,-0.03125,0.033203125,-0.9921875,0.005755407308629558,0.2194553662024358,15.176349298353816,0.16450556037611297,1114,0,2.4965938457893233,0.671612569078877,26.90115455549959,0.3267588730559657,0.08790190946459406,0.08203125,,
1.5972200000006707,1200,,,,-0.03125,0.072265625,-1.037109375,0.005755407308629558,0.2194553662024358,15.176403150605825,0.16608566225927815,1114,0,2.520582967982164,0.6716123826175612,26.6451210354411,0.3267589637747956,0.08706532139194742,0.08203125,,
1.6054550000000745,1200,,,,-0.09375,0.078125,-0.955078125,0.005755407308629558,0.2194553662024358,15.176083962132655,0.16759531046563977,1114,0,2.543440503286239,0.6715745360052894,26.404177142637504,0.32677737829045284,0.08628287782587783,0.083984375,,
1.613324999999255,1200,,,,0.03125,-0.009765625,-0.96875,0.005755407308629558,0.2194553662024358,15.1760803028734,0.16729953363583108,1114,0,2.538951157090642,0.6715562477548519,26.45014441807464,0.3267862773015952,0.08643544228472179,0.083984375,,
1.6212750000003726,1200,,,,-0.125,0.109375,-1,0.006190949123116621,0.2194553662024358,15.176076481879242,0.1660544039309669,1114,0,2.520054334209223,0.7223675426551672,28.66476063032353,0.30380014776936903,0.08708358515265881,0.083984375,,
1.6366150000002235,1200,,,,-0.0625,0.0546875,-0.908203125,0.006190949123116621,0.2194553662024358,15.175830517478346,0.1646269057417802,1115,0,2.498350020154139,0.7225790768818017,28.922251528119393,0.30371121061167117,0.08784012025220397,0.083984375,,
1.643234999999404,1200,,,,0.0625,0,-0.97265625,0.006190949123116621,0.2194553662024358,15.175837553269467,0.16527938816536838,1115,0,2.508253145701399,0.7230802774400676,28.828042284299343,0.3035006942512345,0.08749330847188795,0.083984375,,
1.650285000000149,1200,,,,0,-0.05078125,-0.9453125,0.006190949123116621,0.2194553662024358,15.175788017846926,0.16481658288112055,1116,0,2.501221523629784,0.7233087556667585,28.91822051079624,0.3034048246797981,0.08773927624129876,0.083984375,,
1.658050000000745,1200,,,,-0.09375,0.103515625,-1.01171875,0.006190949123116621,0.2194553662024358,15.175985408998702,0.16371577325026518,1116,0,2.4845481860689644,0.7234159713735883,29.11660057268489,0.30335985779487873,0.08832807809199973,0.083984375,,
1.665484999999404,1200,,,,-0.0625,0.03515625,-0.9765625,0.006190949123116621,0.2194553662024358,15.176170785729342,0.16418496846836425,1116,0,2.4916991219254827,0.7234594482629804,29.03478360998581,0.30334162713521284,0.08807458503771905,0.083984375,,
1.673449999999255,1200,,,,-0.0625,0.12109375,-0.90234375,0.006190949123116621,0.2194553662024358,15.176360310977428,0.1624092321065923,1116,0,2.4647810242788086,0.7234781356155718,29.352633296390312,0.3033337918577346,0.08903645558803672,0.083984375,,
1.6811150000002235,1200,,,,0.0625,0.01171875,-0.9921875,0.006190949123116621,0.2194553662024358,15.17616085477213,0.16293360006722687,1116,0,2.472706523267346,0.7237488010620793,29.269498594024153,0.30322035197901775,0.08875107665929369,0.083984375,,
1.688695000000298,1200,,,,-0.09375,0.044921875,-0.9609375,0.006190949123116621,0.2194553662024358,15.176343645866936,0.16314467778911557,1117,0,2.4759396941218528,0.7238642537039791,29.235940415774696,0.3031719898855249,0.08863518232025054,0.0859375,,
1.6961349999997766,1200,,,,0,0.001953125,-1.033203125,0.006190949123116621,0.2194553662024358,15.176327929756546,0.16333824974951475,1117,0,2.478874841671111,0.7239099436225221,29.203166350040682,0.3031528550419654,0.08853023255280285,0.0859375,,
1.7039350000005216,1200,,,,-0.125,0.1015625,-0.8984375,0.006190949123116621,0.21881982020948684,15.176121795560464,0.16259974242119218,1117,0,2.467633494910772,0.7239293711636821,29.33698917026002,0.30226680795910293,0.08867598071625268,0.0859375,,
1.712929999999702,1200,,,,0.03125,-0.0234375,-0.95703125,0.006190949123116621,0.21881982020948684,15.175968953421291,0.16190902360986117,1117,0,2.4571263155820082,0.7239378061871237,29.462783479881775,0.3022632860714643,0.08905517751441118,0.0859375,,
1.7348800000008195,1200,,,,-0.03125,0.033203125,-1.0078125,0.006190949123116621,0.21881982020948684,15.176101973476442,0.1624677492145539,1115,0,2.465627129481267,0.7227783116641963,29.31417743672615,0.30274818250378105,0.0887481394056219,0.0859375,,
1.7524550000000745,1200,,,,-0.03125,0.0625,-0.94921875,0.006190949123116621,0.21881982020948684,15.176181614795501,0.16261346754740186,1115,0,2.467851516511025,0.7226889573004783,29.284134497775394,0.30278561475031135,0.08866814666339723,0.0859375,,
1.771875,1200,,,,-0.041015625,0.044921875,-0.9375,0.00720588731151315,0.21881982020948684,15.176380730468326,0.1643489688194849,1115,0,2.4942225234643707,0.8416098680942656,33.74237303114819,0.26000149060155464,0.08773067284532227,0.0859375,,
1.780675000000745,1200,,,,0,0.04296875,-0.93359375,0.00720588731151315,0.21881982020948684,15.176361109008429,0.16472762422316609,1115,0,2.499965909839813,0.8416954309677995,33.668276341485466,0.25997506004978915,0.08752912163650578,0.0859375,,
1.788550000000745,1200,,,,-0.03125,0.044921875,-1,0.00720588731151315,0.21881982020948684,15.176478856367872,0.16220248743984675,1115,0,2.4616626210811097,0.8417277452225989,34.19346493764974,0.25996507950634196,0.08889106831113432,0.0859375,,
1.796074999999255,1200,,,,-0.0625,0.037109375,-1.001953125,0.00720588731151315,0.21881982020948684,15.176458179868817,0.16242577222594398,1116,0,2.4650479395199367,0.8417884769312188,34.14896982065004,0.25994632405423895,0.0887689917511712,0.0859375,,
1.804375,1200,,,,-0.03125,0.056640625,-0.931640625,0.00720588731151315,0.21881982020948684,15.176337073077228,0.1620276056583591,1116,0,2.4589855586148928,0.8418169047728917,34.234316741863005,0.25993754576420725,0.08898784274794382,0.083984375,,
1.812125,1200,,,,0,0.03515625,-1,0.00720588731151315,0.21881982020948684,15.176191460270378,0.1622864447448305,1116,0,2.462890156854137,0.841827990004114,34.1804926891009,0.2599341228941764,0.08884676387232252,0.083984375,,
1.8215499999988825,1200,,,,-0.0625,0.046875,-0.99609375,0.00720588731151315,0.21881982020948684,15.176105654480455,0.1615947065021951,1116,0,2.4523783390820726,0.8418327482194893,34.327197186653834,0.2599326536919592,0.0892275945853409,0.083984375,,
1.8294399999994784,1200,,,,-0.0625,0.029296875,-0.98046875,0.00720588731151315,0.21881982020948684,15.17619875040781,0.16123857811078848,1116,0,2.4469887076424803,0.8418343063935075,34.40286846295102,0.2599321725755396,0.0894241234240537,0.083984375,,
1.8372999999988824,1200,,,,0,0.07421875,-0.96875,0.00720588731151315,0.21881982020948684,15.176188902324633,0.16154170440718935,1116,0,2.4515874216869933,0.841834923029178,34.33836034490225,0.2599319821778201,0.08925638069186695,0.083984375,,
1.8461749999988823,1200,,,,-0.03125,0.005859375,-0.96875,0.00720588731151315,0.21881982020948684,15.176246999619323,0.1616170690398954,1116,0,2.4527405591039817,0.8418351676578657,34.32222639827015,0.2599319066442452,0.08921441747977804,0.083984375,,
1.854445000000298,1200,,,,-0.0625,0.09375,-1.0078125,0.00720588731151315,0.22854756518240205,15.176443153948343,0.16225746218494,1116,0,2.4624911511536647,0.8418352628903658,34.18632641566936,0.27148727934929273,0.09281152749536933,0.083984375,,
1.8633499999996275,1200,,,,-0.0625,0.03125,-1.0546875,0.00720588731151315,0.22854756518240205,15.176492056909138,0.1627760445057825,1116,0,2.4703693464970966,0.8418352994185434,34.07730510468965,0.27148726756915526,0.09251554448992619,0.083984375,,
1.872140000000596,1200,,,,-0.03125,0.048828125,-0.93359375,0.00720588731151315,0.22854756518240205,15.176319000859023,0.16302758131119438,1116,0,2.4741585799171686,0.8417604399164088,34.02208923668061,0.2715114114950543,0.09237385470661849,0.083984375,,
1.879765000000596,1200,,,,-0.03125,0.001953125,-0.96875,0.00720588731151315,0.22854756518240205,15.176400509833195,0.16355386576316183,1115,0,2.4821589717532393,0.8417000027385837,33.909995786613955,0.2715309070200688,0.09207611912985998,0.08203125,,
1.8871549999993293,1200,,,,-0.0625,0.07421875,-1.015625,0.00720588731151315,0.22854756518240205,15.17649942579866,0.16315220544467152,1115,0,2.4760793522488425,0.8416773240252685,33.99234048217535,0.27153822332932503,0.09230219741335387,0.08203125,,
1.895960000000894,1200,,,,-0.03125,0.01953125,-1,0.00720588731151315,0.22854756518240205,15.176474723477618,0.16142654125456438,1115,0,2.449885823048313,0.8416668078931642,34.35534831765774,0.2715416160398384,0.09328906801788328,0.08203125,,
1.906679999999702,1200,,,,0,0.041015625,-0.94140625,0.00720588731151315,0.22854756518240205,15.176448864219102,0.16104136885325768,1115,0,2.444036099425312,0.8416624862472186,34.43739994041521,0.2715430103121782,0.09351235247144772,0.08203125,,
1.9146999999992549,1200,,,,-0.0625,0.037109375,-0.966796875,0.00720588731151315,0.22854756518240205,15.176285367948433,0.16102903564907406,1116,0,2.443822597535889,0.8418446725362492,34.447863498155826,0.27148424482375155,0.09352052207588511,0.08203125,,
1.922554999999702,1200,,,,-0.0625,0.1171875,-1.01953125,0.007099618795102858,0.22854756518240205,15.17627279137823,0.1618839974329226,1116,0,2.4567957056008063,0.8294736697730712,33.76241939376985,0.2755332369319552,0.09302668702219626,0.083984375,,
1.9303800000008196,1200,,,,-0.0625,0.03515625,-0.947265625,0.007099618795102858,0.22854756518240205,15.176451590604934,0.16214701248640073,1116,0,2.4608162855610747,0.8294934627080709,33.70806132807039,0.2755266623033487,0.0928746963043982,0.083984375,,
1.938,1200,,,,0,0.03125,-0.927734375,0.007099618795102858,0.22854756518240205,15.176626477262534,0.16240427212028724,1116,0,2.464748976281301,0.8295015210489605,33.654604547213324,0.2755239856503075,0.09272650780333178,0.083984375,,
1.946085000000894,1200,,,,-0.0625,-0.01171875,-0.94921875,0.007099618795102858,0.22854756518240205,15.176596109853133,0.16138310139714346,1116,0,2.449246148859921,0.8294267430076815,33.864572713271976,0.27554882587175683,0.09331343249790827,0.083984375,,
1.954285000000149,1200,,,,-0.09375,0.080078125,-0.98046875,0.007099618795102858,0.22854756518240205,15.176466501940945,0.16103170023932703,1115,0,2.4438922044327422,0.8293172885848624,33.93428266110278,0.275585193180276,0.09351785842594099,0.083984375,,
1.962445000000298,1200,,,,-0.0625,0.01953125,-0.962890625,0.007099618795102858,0.22854756518240205,15.176378105634907,0.16198214590372495,1115,0,2.4583022925970504,0.8292751213447858,33.73365122109152,0.27559920622215234,0.09296967499507765,0.083984375,,
1.9707050000000745,1200,,,,0,0.0703125,-0.98046875,0.007099618795102858,0.22854756518240205,15.176359612466616,0.1658530410694122,1115,0,2.5170453940905944,0.8292585408710514,32.94571257308061,0.27560471664522884,0.09079993778379036,0.083984375,,
1.979769999999553,1200,,,,0,-0.00390625,-0.966796875,0.007099618795102858,0.22854756518240205,15.176339719261048,0.1688228865183042,1115,0,2.562113478188041,0.8292515566095562,32.36591835877673,0.2756070378894822,0.08920274887435266,0.083984375,,
1.987074999999255,1200,,,,-0.125,0.111328125,-1.00390625,0.007099618795102858,0.22854756518240205,15.176323396438638,0.1677114087836976,1118,0,2.5452425769737146,0.8315325107596567,32.67006918249601,0.2748510277410676,0.08979402091180809,0.083984375,,
1.9956899999994784,1200,,,,0,0.02734375,-1.09375,0.007099618795102858,0.22854756518240205,15.17637385568949,0.16704438170325345,1120,0,2.5351279872210717,0.8324687232761624,32.83734499687681,0.2745419242694886,0.09015227883343624,0.0859375,,
2.003245000001043,1200,,,,-0.09375,0.044921875,-0.98046875,0.007099618795102858,0.23130053542038703,15.176453239989648,0.1664242888928191,1120,0,2.5257304383803976,0.8328280593310469,32.97375074851973,0.2777290376193314,0.0915776806208609,0.0859375,,
2.0105649999994784,1200,,,,-0.0625,0.09375,-0.90625,0.007099618795102858,0.23130053542038703,15.176778187589917,0.16562401686233846,1120,0,2.5136389664573633,0.8329606115036281,33.137639200333304,0.27768484154713186,0.09201820090590579,0.0859375,,
2.018410000000149,1200,,,,0,0.044921875,-0.97265625,0.007099618795102858,0.23130053542038703,15.176838495719238,0.16442509569776545,1120,0,2.495453122048166,0.8330231216477845,33.381637759000384,0.27766400404691843,0.09268879201807846,0.083984375,,
2.026625,1200,,,,-0.0625,0.05859375,-0.9921875,0.007099618795102858,0.23130053542038703,15.176927674632955,0.16393381497973086,1124,0,2.488011653374036,0.8353725956700855,33.57591169387098,0.27688307782571164,0.09296601770603298,0.083984375,,
2.034684999998659,1200,,,,-0.0625,0.072265625,-0.998046875,0.007099618795102858,0.23130053542038703,15.176947605872432,0.16388931132164206,1125,0,2.487339491091077,0.8363066171745464,33.62253605388216,0.2765738434568814,0.09299114023189756,0.083984375,,
2.044515000000596,1200,,,,-0.03125,0.0234375,-1.01953125,0.007099618795102858,0.23130053542038703,15.17670574298811,0.16310440500352655,1125,0,2.47538756012368,0.836674062584431,33.79971993325472,0.27645237944381224,0.09344013000082718,0.083984375,,
2.0526549999993295,1200,,,,-0.0625,0.078125,-0.921875,0.007099618795102858,0.23130053542038703,15.176593437885328,0.16295640600394123,1126,0,2.473123122020792,0.83684137334869,33.83743275445607,0.27639710796661354,0.0935256855434642,0.083984375,,
2.0627400000002236,1200,,,,0.0625,-0.05859375,-0.953125,0.007099618795102858,0.23130053542038703,15.176567878972232,0.1625854648895111,1125,0,2.4674893440299215,0.8360434463742795,33.88235286191134,0.2766609037167651,0.09373922362826716,0.083984375,,
2.070570000000298,1200,,,,-0.0625,0.064453125,-1.01953125,0.006352725753936007,0.23130053542038703,15.176530895628035,0.16176637632430133,1123,0,2.4550524081595504,0.7467846598255944,30.418277725705558,0.3097285574591281,0.09421409280373909,0.083984375,,
2.080065000001341,1200,,,,0,0.0078125,-0.9921875,0.006352725753936007,0.23130053542038703,15.176607303557983,0.16205758517857938,1122,0,2.4594843308181975,0.7464223902099595,30.348735336795045,0.3098788815208572,0.09404432161738563,0.083984375,,
2.0886500000003725,1200,,,,-0.0625,0.09765625,-0.931640625,0.006352725753936007,0.23130053542038703,15.176647000258397,0.1621105199663659,1122,0,2.4602941365578763,0.7462827255797974,30.33306930625373,0.30993687444753115,0.09401336693180624,0.0859375,,
2.095684999998659,1200,,,,0,-0.005859375,-0.978515625,0.006352725753936007,0.23130053542038703,15.176615754653453,0.16173554062994194,1121,0,2.4545981540117703,0.7458922260712705,30.3875493775709,0.31009913675958617,0.09423152830224034,0.0859375,,
2.1042449999991804,1200,,,,-0.125,0.11328125,-1.0078125,0.006352725753936007,0.23130053542038703,15.176651806820079,0.1622359003368593,1120,0,2.462197769978478,0.7450327877719036,30.258852349558254,0.3104568540025129,0.093940681061704,0.0859375,,
2.113094999998808,1200,,,,0,0.0078125,-1.005859375,0.006352725753936007,0.23130053542038703,15.176620161238844,0.16121913786600023,1119,0,2.446761618114684,0.7447051462757074,30.436358849274782,0.31059344302524017,0.0945333348814799,0.0859375,,
2.1214900000002235,1200,,,,-0.0625,0.09765625,-0.923828125,0.006352725753936007,0.23130053542038703,15.17673369423418,0.16252248209534575,1119,0,2.466560430087005,0.7445661488336943,30.18641423706901,0.3106514253739598,0.09377452609674282,0.0859375,,
2.129574999999255,1200,,,,0,-0.013671875,-0.962890625,0.006352725753936007,0.23130053542038703,15.17676305502717,0.1629718442819766,1119,0,2.4733850653083436,0.7445197330280093,30.10124640399226,0.3106707924042161,0.09351578072682833,0.0859375,,
2.138484999999404,1200,,,,-0.0625,0.0625,-0.953125,0.006352725753936007,0.23130053542038703,15.176721388261855,0.1615542791806938,1117,0,2.4518642842068625,0.743063179108414,30.306048499286437,0.3112797699085557,0.09433659803695413,0.0859375,,
2.1468650000002234,1200,,,,-0.03125,-0.00390625,-0.984375,0.006352725753936007,0.23130053542038703,15.176784880645211,0.1618430055827809,1116,0,2.4562564801669278,0.7425620476450101,30.231453988654533,0.31148984270599667,0.09416790847699577,0.0859375,,
2.1545449999999255,1200,,,,-0.0625,0.076171875,-0.93359375,0.006352725753936007,0.23245670379713756,15.176746487280294,0.1602011948537264,1116,0,2.431332921254398,0.7423679576462627,30.533373326070574,0.3131286869306162,0.09560875097154779,0.0859375,,
2.162660000000149,1200,,,,0,-0.00390625,-0.96484375,0.006352725753936007,0.23245670379713756,15.176906452417876,0.16119302313375167,1116,0,2.4464114328833797,0.7422910403913853,30.3420361110931,0.31316113377115656,0.0950194642947529,0.0859375,,
2.1707949999999254,1200,,,,-0.0625,0.064453125,-1.01171875,0.006352725753936007,0.23245670379713756,15.176861972483671,0.16213612120559512,1116,0,2.4607175322912,0.7422607671310382,30.164403568901765,0.31317390611337514,0.09446704091253201,0.0859375,,
2.1796500000003727,1200,,,,-0.0625,0.046875,-1.0078125,0.006352725753936007,0.23245670379713756,15.176814676552935,0.16099473081191373,1116,0,2.4433871934339413,0.7421491196742457,30.3737828236395,0.31322101938107894,0.0951370721847987,0.0859375,,
2.1883650000002235,1200,,,,-0.0625,0.09765625,-0.8984375,0.006352725753936007,0.23245670379713756,15.176840214910696,0.16045450430347735,1116,0,2.4351923735765766,0.742111193463694,30.474438139511435,0.31323702680211624,0.09545722396285576,0.0859375,,
2.1965,1200,,,,-0.03125,-0.0234375,-0.943359375,0.006352725753936007,0.23245670379713756,15.17650216780491,0.16035764823794357,1116,0,2.4336681961072477,0.7420954173051217,30.49287567188222,0.31324368588784873,0.09551700768780297,0.0859375,,
2.2038499999996275,1200,,,,-0.0625,0.037109375,-0.98046875,0.006352725753936007,0.23245670379713756,15.17647782388517,0.16069785802724132,1115,0,2.4388274786962754,0.7420900869152535,30.428150141721083,0.31324593589899835,0.09531494368818659,0.0859375,,
2.214254999998957,1200,,,,-0.0625,0.046875,-0.9921875,0.006352725753936007,0.23245670379713756,15.176457107697098,0.16098659199756674,1115,0,2.4432061083654046,0.7420662698344369,30.372643032188012,0.31325598972312974,0.09514412353555375,0.0859375,,
2.221324999999255,1200,,,,-0.03125,0.0546875,-0.974609375,0.006253304796913618,0.23245670379713756,15.17659092433423,0.16163579551314214,1115,0,2.453080347232296,0.7304152097617354,29.77542951602996,0.31825282481859324,0.09476114553663452,0.0859375,,
2.2297400000002234,1200,,,,-0.03125,-0.001953125,-0.982421875,0.006253304796913618,0.23245670379713756,15.17636184326959,0.16062275038006388,1115,0,2.4376689800290174,0.730403939944278,29.96321263995341,0.31825773532228147,0.09536024197771531,0.083984375,,
2.2385849999990315,1200,,,,-0.0625,0.068359375,-1.025390625,0.006253304796913618,0.23245670379713756,15.176342031463602,0.15932911923914256,1115,0,2.4180332091450754,0.7303993448378686,30.20634051159744,0.3182597375532113,0.09613462003663938,0.0859375,,
2.2467949999999255,1200,,,,-0.03125,0.05078125,-0.947265625,0.006253304796913618,0.23245670379713756,15.17639043527738,0.15972116956720211,1115,0,2.423990830131003,0.7303977859044265,30.132035848706266,0.31826041683477235,0.0958983428928956,0.083984375,,
2.2549199999999257,1200,,,,0,0.05078125,-0.9921875,0.006253304796913618,0.23245670379713756,15.176437152697094,0.16074460167730215,1115,0,2.439530344990904,0.7299810899141724,29.923017412472248,0.31844208981422883,0.09528748198375221,0.083984375,,
2.2626850000005216,1200,,,,-0.0625,0.03125,-0.978515625,0.006253304796913618,0.23245670379713756,15.176415768727232,0.16043119613000117,1114,0,2.434770534743121,0.7298189421136941,29.974855194750138,0.318512839806403,0.09547376250865577,0.083984375,,
2.2706699999999254,1200,,,,0,0.00390625,-1.00390625,0.006253304796913618,0.23245670379713756,15.176330230481106,0.1603457946945173,1114,0,2.4334607313529197,0.7297549544078465,29.98835958212188,0.31854076823056665,0.0955251509926358,0.083984375,,
2.2784949999991806,1200,,,,-0.0625,0.013671875,-0.92578125,0.006253304796913618,0.23245670379713756,15.17624813243554,0.16069245009594152,1114,0,2.4387084956650233,0.7297295312299467,29.92278628327627,0.3185518659294709,0.09531959404346432,0.083984375,,
2.286519999999553,1200,,,,0.0625,0.00390625,-0.96484375,0.006253304796913618,0.23245670379713756,15.17623602205744,0.1622920729796172,1114,0,2.4629828040476416,0.7297196158402617,29.627475053461506,0.31855619439456484,0.09438015702550603,0.083984375,,
2.295085000000894,1200,,,,-0.0625,0.03515625,-0.970703125,0.006253304796913618,0.23245670379713756,15.176224461985441,0.16222155342008754,1114,0,2.4619107072752104,0.7297156844398486,29.640217343523485,0.31855791064101663,0.09442125707898465,0.083984375,,
2.3042200000006705,1200,,,,-0.0625,0.044921875,-1.021484375,0.006253304796913618,0.22583618082611273,15.17587962070066,0.1610637015511005,1114,0,2.4442833460039597,0.7297140387975201,29.853905439829393,0.30948586544705,0.09239361762019994,0.083984375,,
2.3164049999993295,1200,,,,-0.0625,0.064453125,-0.90234375,0.006253304796913618,0.22583618082611273,15.17581022154539,0.16233315479036964,1114,0,2.4635371497634018,0.7297133628739987,29.62055445131324,0.3094861521195801,0.09167151420785435,0.083984375,,
2.323789999999106,1200,,,,0,0.029296875,-0.990234375,0.006253304796913618,0.22583618082611273,15.175911742823265,0.16241560747115616,1114,0,2.4648049246392927,0.729713225765984,29.605313526902034,0.3094862102698649,0.09162436287292079,0.083984375,,
2.3327450000010432,1200,,,,-0.09375,0.115234375,-1.021484375,0.006253304796913618,0.22583618082611273,15.175915816054923,0.16264245366576383,1115,0,2.468248184948245,0.7300677244601816,29.578375825909497,0.3093359331740051,0.09149654487879148,0.0859375,,
2.340155000001192,1200,,,,-0.09375,0.0859375,-0.990234375,0.006253304796913618,0.22583618082611273,15.176062024737234,0.1628935923222534,1115,0,2.4720832605147787,0.7302274391135795,29.538950033645683,0.3092682755118795,0.09135460137337176,0.0859375,,
2.347519999999553,1200,,,,0,0.03125,-0.9453125,0.006253304796913618,0.22583618082611273,15.17623323343253,0.16195661259122165,1115,0,2.4578913263810556,0.7302802911455755,29.71165906756439,0.3092458930691505,0.09188208542915073,0.083984375,,
2.3556549999993295,1200,,,,0,-0.0234375,-0.9609375,0.006253304796913618,0.22583618082611273,15.176221812283078,0.16200897586243984,1115,0,2.458684153269202,0.7303047762980058,29.703074114946904,0.3092355248871585,0.09185245714697778,0.083984375,,
2.3674249999988826,1200,,,,-0.0625,0.04296875,-0.98828125,0.006253304796913618,0.22583618082611273,15.176356196309174,0.1620648974129341,1115,0,2.4595546100569927,0.7303150502142042,29.692979665016722,0.3092311746278187,0.09181994980013054,0.083984375,,
2.383644999999553,1200,,,,-0.03125,0.046875,-0.939453125,0.006224497405732156,0.22583618082611273,15.176586796487973,0.15996358774053826,1114,0,2.4277012736218984,0.7263560858115098,29.91950013387998,0.31091662235307194,0.09302469924118248,0.083984375,,
2.3914850000012664,1200,,,,-0.0625,0.05859375,-0.994140625,0.006224497405732156,0.22583618082611273,15.176493234897153,0.16053603558728743,1114,0,2.4363740580476763,0.7263077457041862,29.81101129792006,0.31093731570651906,0.09269355831471976,0.083984375,,
2.399894999999553,1200,,,,-0.0625,0.03125,-1.01171875,0.006224497405732156,0.22583618082611273,15.176567558001448,0.16183600679922855,1114,0,2.4561150905056737,0.7262884630012211,29.570620115024425,0.3109455709827695,0.09194853355980838,0.083984375,,
2.4074749999996277,1200,,,,-0.0625,0.072265625,-0.9765625,0.006224497405732156,0.22583618082611273,15.176604749234315,0.16252577632478557,1114,0,2.466589468843735,0.7260385463711951,29.434916330504763,0.3110526045137162,0.09155807388246823,0.083984375,,
2.4157949999999255,1200,,,,0,-0.0078125,-0.96875,0.006224497405732156,0.22583618082611273,15.17657479519344,0.16341085606401476,1114,0,2.4800170794021095,0.7258155312549176,29.266553738004887,0.31114817898102487,0.09106234900630525,0.083984375,,
2.4241100000012668,1200,,,,-0.0625,0.06640625,-0.9609375,0.006224497405732156,0.22583618082611273,15.176543847704128,0.1636240898960379,1113,0,2.483248174847901,0.7257244476523796,29.22480543841858,0.3111872303002361,0.09094386260444758,0.083984375,,
2.431859999999404,1200,,,,-0.03125,0.05078125,-1.01953125,0.006224497405732156,0.22583618082611273,15.17651961124729,0.16320989909845293,1113,0,2.476958234417362,0.7256944459888005,29.297807121059538,0.3112000954043377,0.09117480371211613,0.083984375,,
2.4398100000005214,1200,,,,-0.0625,0.087890625,-0.9375,0.006224497405732156,0.22583618082611273,15.176591218577803,0.16341080496595511,1113,0,2.4800189876670444,0.7256810980958057,29.26111056828861,0.3112058194966206,0.0910622789378548,0.083984375,,
2.449359999999404,1200,,,,-0.0625,0.048828125,-0.974609375,0.006224497405732156,0.21959231978923294,15.176799363967783,0.16206236498378923,1114,0,2.4595879978090873,0.7260817489895414,29.52046235533386,0.30243470531359684,0.08928012333156525,0.083984375,,
2.456554999999702,1200,,,,-0.0625,0.1015625,-1.0234375,0.006224497405732156,0.21959231978923294,15.17685129521379,0.16201024425434662,1114,0,2.458805385349483,0.7261914098393588,29.534318338746495,0.3023890351963941,0.08930854027636723,0.083984375,,
2.464804999999702,1200,,,,-0.03125,0.0078125,-0.951171875,0.006224497405732156,0.21959231978923294,15.17681003174698,0.16226992494231746,1114,0,2.462739824715393,0.7262423086424279,29.489201472037603,0.3023678422146998,0.08916586217734558,0.083984375,,
2.4727850000001492,1200,,,,-0.0625,0.11328125,-0.8984375,0.006224497405732156,0.21959231978923294,15.176770287877837,0.16145561115072957,1114,0,2.45037472212355,0.7262627044359071,29.638842495343386,0.3023593507528267,0.08961581173957316,0.083984375,,
2.481054999999702,1200,,,,0,0,-0.970703125,0.006224497405732156,0.21959231978923294,15.176863981359645,0.16239032790019722,1114,0,2.4645759184296856,0.7262707788481758,29.468387377205328,0.3023559892324098,0.08909943416518777,0.083984375,,
2.4905499999988825,1200,,,,-0.09375,0.076171875,-0.982421875,0.006224497405732156,0.21959231978923294,15.176962819818826,0.16147354075190096,1114,0,2.4506779243761008,0.726322516703561,29.63761616649278,0.3023344516233092,0.08960472431118718,0.083984375,,
2.4989900000002234,1200,,,,0,0.015625,-1,0.006224497405732156,0.21959231978923294,15.177056091395887,0.16179573864215027,1114,0,2.4555830007207438,0.7263410795857602,29.579170379195908,0.3023267249519588,0.08942573707538287,0.083984375,,
2.506809999998659,1200,,,,-0.0625,0.087890625,-0.919921875,0.006224497405732156,0.21959231978923294,15.177102377265076,0.16238790811887724,1114,0,2.4645779063501143,0.7263474028659422,29.471472619894467,0.30232409302048796,0.08909936229787739,0.083984375,,
2.5171199999991805,1200,,,,0,-0.013671875,-0.96484375,0.006224497405732156,0.21959231978923294,15.177048131327224,0.1632739098658755,1114,0,2.4780159886243753,0.7263499034071634,29.31175209286616,0.3023230522358011,0.08861618359094428,0.083984375,,
2.5337050000000745,1200,,,,-0.0625,0.01953125,-0.9140625,0.006170129728141865,0.21959231978923294,15.176851661184942,0.1619591746634347,1115,0,2.4580303690348915,0.7204278248610255,29.309150689781372,0.3048082156343607,0.08933669923510854,0.0859375,,
2.5415099999997763,1200,,,,0,0.03125,-1,0.006170129728141865,0.21959231978923294,15.177003352256296,0.1613833154983723,1115,0,2.449315120317032,0.7204901477126289,29.415984155577778,0.3047818495317141,0.08965458056732593,0.083984375,,
2.5503250000011177,1200,,,,-0.03125,0.021484375,-0.96484375,0.006170129728141865,0.21959231978923294,15.177153014478018,0.15973143128948739,1115,0,2.424268373902132,0.720515600066373,29.720950362711797,0.304771083053586,0.09058086231425544,0.083984375,,
2.5584649999998508,1200,,,,-0.03125,0.0390625,-1.015625,0.006170129728141865,0.21959231978923294,15.177307657676748,0.1599103195346669,1115,0,2.4270081172150353,0.720462160183201,29.68519779859341,0.3047936892804953,0.09047860954054521,0.083984375,,
2.567070000000298,1200,,,,-0.0625,0.072265625,-0.943359375,0.006170129728141865,0.21959231978923294,15.177375672883615,0.16071715534113828,1115,0,2.4392646436896492,0.7203213344121947,29.53026586416763,0.30485327769505444,0.0900239833989788,0.083984375,,
2.574765000000596,1200,,,,0,-0.0078125,-0.953125,0.006170129728141865,0.21959231978923294,15.177373642118642,0.16146168647698442,1115,0,2.450564344547807,0.7202674850493299,29.391902589778272,0.3048760694427202,0.08960887735014908,0.083984375,,
2.582804999999702,1200,,,,-0.0625,0.05859375,-0.994140625,0.006170129728141865,0.21959231978923294,15.17711271391209,0.16111634338292308,1115,0,2.4452809035759877,0.7202460794475788,29.45453335828568,0.3048851303122093,0.08980249241226247,0.083984375,,
2.5904400000013412,1200,,,,-0.0625,0.0390625,-1.0078125,0.006170129728141865,0.21959231978923294,15.176863236261818,0.16248135955103293,1115,0,2.46595737234791,0.7202375355633542,29.207217595882245,0.3048887470402005,0.08904951977339036,0.083984375,,
2.5973300000000745,1200,,,,-0.0625,0.0390625,-0.962890625,0.006170129728141865,0.21887174969694784,15.176997540286393,0.162133084855505,1115,0,2.4606934300510446,0.7203606746481127,29.274702238432422,0.30383633837849905,0.08894718335246159,0.083984375,,
2.6049399999994787,1200,,,,0,0.046875,-0.953125,0.006170129728141865,0.21887174969694784,15.177145073441983,0.16207037676988945,1115,0,2.4597656203440135,0.7205552902026701,29.293656446092452,0.3037542748945552,0.08898073372793026,0.083984375,,
2.6127599999997764,1200,,,,-0.0625,0.041015625,-0.955078125,0.006170129728141865,0.21887174969694784,15.177094975891325,0.16201725357518165,1115,0,2.4589512452436004,0.7206271814440098,29.30628180765819,0.3037239717468989,0.08901020307755834,0.083984375,,
2.6210649999994784,1200,,,,0,0.07421875,-1.04296875,0.006170129728141865,0.21887174969694784,15.17710717447225,0.1618471565637601,1115,0,2.4563716410517764,0.720660943636804,29.338432816633127,0.3037097426043585,0.08910367879154911,0.083984375,,
2.6291150000002235,1200,,,,-0.0625,0.021484375,-0.943359375,0.006170129728141865,0.21887174969694784,15.176959095513226,0.1621101234668641,1115,0,2.460338712825195,0.7206733643232931,29.291632106042314,0.3037045082170711,0.08896000723640952,0.083984375,,
2.6376899999994783,1200,,,,0,0.06640625,-0.962890625,0.006170129728141865,0.21887174969694784,15.176760975509087,0.1623976762905641,1115,0,2.4646707160399903,0.7203908758458955,29.22868645931552,0.30382360054178204,0.08880364759176072,0.08203125,,
2.6455499999988823,1200,,,,-0.0625,0.0234375,-0.984375,0.006170129728141865,0.21887174969694784,15.176852850598765,0.16221889138723647,1115,0,2.4619722441713514,0.7201607764234429,29.251376741894745,0.3039206755801635,0.08890098181046534,0.08203125,,
2.654,1200,,,,-0.0625,0.06640625,-1.02734375,0.006170129728141865,0.21887174969694784,15.176910193801953,0.1618257524410947,1114,0,2.4560149118429218,0.7200669125750319,29.318507355263357,0.30396029295977567,0.08911662084849188,0.08203125,,
2.6617849999982863,1200,,,,-0.0625,0.05078125,-0.94140625,0.006170129728141865,0.21887174969694784,15.176800265676256,0.1606075029322148,1114,0,2.4375079931712373,0.7200307749253662,29.539627231687334,0.3039755484335162,0.08979324388273785,0.08203125,,
2.672980000000447,1200,,,,0,0.05859375,-0.953125,0.006170129728141865,0.21887174969694784,15.176662551015427,0.16157995954582602,1114,0,2.4522445210337254,0.7200165005835731,29.361529586782627,0.30398157475495685,0.08925364001004439,0.08203125,,
2.6804749999996274,1200,,,,-0.0625,0.03125,-0.9765625,0.006146826911782086,0.21887174969694784,15.176617949148145,0.16313810433892875,1115,0,2.475884682500189,0.7177620574901701,28.990124724442424,0.3049363607520384,0.08840143131219162,0.08203125,,
2.6888000000007453,1200,,,,0,0.015625,-1.05078125,0.006146826911782086,0.21887174969694784,15.176458320102507,0.16249995539425607,1115,0,2.466173800059444,0.7178813067816184,29.10911253555264,0.3048857069118938,0.08874952352979835,0.08203125,,
2.6983800000008196,1200,,,,-0.09375,0.078125,-0.94140625,0.006146826911782086,0.21887174969694784,15.176287484093983,0.16181656312952603,1115,0,2.4557746817417296,0.7179316648991403,29.234427337199993,0.30486432121321233,0.08912533846212455,0.08203125,,
2.7067949999999255,1200,,,,0,-0.03125,-0.95703125,0.006146826911782086,0.21887174969694784,15.176345058959999,0.16021140810451298,1115,0,2.4314236117759496,0.7179498295350695,29.52796156366466,0.30485660793134384,0.0900179420142591,0.083984375,,
2.7150299999993295,1200,,,,-0.0625,0.06640625,-0.9453125,0.006146826911782086,0.21887174969694784,15.176198519333008,0.16098286598095546,1115,0,2.4431079323381604,0.7179559412363574,29.386992352369894,0.3048540127964389,0.08958742542638225,0.083984375,,
2.7231349999997763,1200,,,,-0.03125,0.0546875,-1.0546875,0.006146826911782086,0.21887174969694784,15.176287966828598,0.16033064785470133,1115,0,2.433224081751137,0.7179583917527078,29.506464165684616,0.30485297227688873,0.08995133302290463,0.083984375,,
2.7320800000000744,1200,,,,-0.0625,0.06640625,-0.91015625,0.006146826911782086,0.21887174969694784,15.176381433383561,0.16000385115784777,1115,0,2.4282794759818276,0.717959396327821,29.566588336687566,0.3048525457239239,0.09013449722810482,0.083984375,,
2.739375,1200,,,,0.0625,-0.0546875,-0.953125,0.006146826911782086,0.21887174969694784,15.17631476593506,0.1597307856130973,1115,0,2.4241246802744563,0.7179597362315987,29.617277612565385,0.3048524013975408,0.0902889820304818,0.083984375,,
2.749285000000149,1200,,,,-0.09375,0.06640625,-0.994140625,0.006146826911782086,0.21519178988506565,15.176499144644652,0.16043851793055605,1115,0,2.4348950301411394,0.7179598746280976,29.486276235344768,0.29972676397345294,0.08837826157647215,0.083984375,,
2.759445000000298,1200,,,,-0.03125,0.001953125,-0.9765625,0.006146826911782086,0.21519178988506565,15.176463044199783,0.16188032385679663,1116,0,2.4567707525957667,0.7181216170003055,29.230306337762897,0.29965925658101183,0.08759131866809267,0.083984375,,
2.7683249999992547,1200,,,,-0.03125,0.064453125,-0.935546875,0.006146826911782086,0.21519178988506565,15.17650608803385,0.16236579647601287,1116,0,2.4641454987066744,0.7181596825973906,29.144370045288404,0.2996433733327591,0.08732917354028434,0.083984375,,
2.776969999998808,1200,,,,-0.03125,0.0234375,-0.966796875,0.006146826911782086,0.21519178988506565,15.176478130880923,0.16192310277825336,1116,0,2.457422428198546,0.7181754714076367,29.22474635075692,0.2996367857889743,0.08756809062038859,0.083984375,,
2.786059999998659,1200,,,,-0.0625,0.072265625,-1.01953125,0.006146826911782086,0.21519178988506565,15.176598109032108,0.16269695363372225,1116,0,2.469186278862834,0.7181810887719188,29.085739497251378,0.29963444213358653,0.0871508932830174,0.083984375,,0.3141900000013411,2065,
2.794870000001043,1200,,,,-0.0625,0.0546875,-0.88671875,0.006146826911782086,0.21519178988506565,15.17656765174815,0.163155787400144,1115,0,2.4761448452525237,0.7179984201775339,28.996624391910746,0.2997106732238448,0.08690597817718529,0.083984375,,
2.8132949999999255,1500,,,,-0.0625,0.064453125,-0.984375,0.006146826911782086,0.21519178988506565,15.176430695862454,0.162187618212172,1115,0,2.4614291475240275,0.7178988271420039,29.16593507735717,0.29975225163935204,0.0874255471060497,0.083984375,,
2.8231650000009685,1500,,,,-0.125,0.01171875,-0.9921875,0.006146826911782086,0.21519178988506565,15.176410077893728,0.3280014159537867,1115,0,4.97788399464446,0.7178907225910527,14.42160410655225,0.29975563566051255,0.04322957106203827,0.083984375,,
2.8390650000013413,1500,,,,-0.125,0.052734375,-0.791015625,0.006250351716506738,0.21519178988506565,15.149758686199238,1.1026563093920914,1152,0,16.70497700110523,0.7540936408817371,4.514185448036504,0.2853648117672083,0.012881896806612078,0.09765625,,
2.848015000000596,1500,,,,-0.125,0.30078125,-1.10546875,0.006250351716506738,0.21519178988506565,15.14056434822044,1.346986449895823,1155,0,20.394135020828717,0.7563043667927392,3.7084405198863233,0.28453067221815703,0.010551650740043071,0.099609375,,
2.856184999998659,1500,,,,0.0625,-0.14453125,-1.0234375,0.006250351716506738,0.21519178988506565,15.133670914838728,1.5435652453027013,1438,0,23.3598084579934,0.9411974870818521,4.029131868843675,0.22863617130158284,0.00921205284161609,0.1015625,,
2.880140000000596,1500,,,,-0.08203125,0.0859375,-1.080078125,0.006250351716506738,0.21519178988506565,15.118810450055205,1.9115423431631346,1771,0,28.900246353537813,1.159115072062423,4.010744607097546,0.18565179167429263,0.007446019222556663,0.107421875,,
2.889239999998361,1500,,,,-0.09375,0.056640625,-0.87109375,0.006250351716506738,0.21519178988506565,15.116672634567305,1.9638087673247122,1933,0,29.686254252540827,1.2649112148211314,4.260932363040946,0.17012402717569033,0.007248869731237565,0.111328125,,
2.897004999998957,1500,,,,-0.0625,0.1015625,-1.19140625,0.006250351716506738,0.21703433999952448,15.11531806871433,1.9993154778232425,2122,0,30.220289367001882,1.3887724066013392,4.59549671988835,0.15627783139114915,0.007181742615492903,0.11328125,,
2.905214999999851,1500,,,,-0.03125,0.501953125,-1.06640625,0.006250351716506738,0.21703433999952448,15.114386844244308,2.0227177622994525,2195,0,30.57213873611813,1.4365215695672346,4.6987931788694866,0.1510832448307115,0.007099089202520158,0.119140625,,
2.913414999999106,1500,,,,-0.03125,-0.12890625,-0.86328125,0.006250351716506738,0.21703433999952448,15.113734211890389,2.0331398876704516,2273,0,30.728335877843886,1.487955837350478,4.842292284442718,0.14586074032007948,0.007063003374550236,0.123046875,,
2.921155000001192,1500,,,,0,-0.16015625,-0.8515625,0.006250351716506738,0.21703433999952448,15.113325014389156,2.0364457788127446,2327,0,30.77746692937786,1.5234177817924748,4.949782856685761,0.14246541073201785,0.007051728477120376,0.123046875,,
2.9293149999994785,1500,,,,-0.03125,0.283203125,-1.078125,0.006250351716506738,0.21703433999952448,15.113259382601615,2.033192631445827,2404,0,30.72816761383511,1.5734718754032018,5.120617327974866,0.1379334091649458,0.007063042050766689,0.125,,
2.9378349999990316,1500,,,,-0.09375,-0.162109375,-0.9140625,0.006250351716506738,0.21703433999952448,15.113480514520147,2.0221461583818745,2464,0,30.56166656221623,1.6127618058371584,5.277074149585272,0.13457309021952282,0.007101521756272504,0.126953125,,
2.94585000000149,1500,,,,0,-0.078125,-0.8984375,0.006250351716506738,0.21703433999952448,15.11381579650145,2.0072594547080467,2503,0,30.337349654243365,1.6380085736977879,5.399313362460044,0.13249890353722119,0.007154031003798227,0.126953125,,
2.955339999999851,1500,,,,-0.0625,0.2578125,-1.09375,0.006250351716506738,0.21703433999952448,15.11468649956069,1.9799895091132529,2546,0,29.926920702665882,1.666710735046287,5.569269059137838,0.13021716092414626,0.007252144053036206,0.12890625,,
2.9637050000000746,1500,,,,0,-0.115234375,-0.943359375,0.006250351716506738,0.21703433999952448,15.115481578308728,1.9521430478145827,2583,0,29.507582277464778,1.690560578266653,5.729241258636599,0.1283801023102359,0.007355205789437913,0.130859375,,
2.977035000000149,1500,,,,-0.03125,0.1015625,-1.037109375,0.006447412061795111,0.21703433999952448,15.116292227622164,1.9238235003272182,2606,0,29.081078225313195,1.759691712304986,6.050985106780836,0.12333656996954054,0.007463077480071222,0.130859375,,
2.9937249999996274,1500,,,,-0.125,0.078125,-1.08203125,0.006447412061795111,0.21703433999952448,15.118949926156851,1.845996392515557,2663,0,27.909527022308893,1.7982228870459482,6.443043214629101,0.1206937925009175,0.007776353208208891,0.1328125,,
3.0027999999988824,1500,,,,-0.03125,0.09765625,-0.921875,0.006447412061795111,0.21703433999952448,15.120314228643911,1.8127251393523327,2677,0,27.408973717169594,1.807681211919569,6.59521670009555,0.12006228673973805,0.00791836798557581,0.1328125,,
3.0109550000000747,1500,,,,-0.0625,-0.009765625,-1.021484375,0.006447412061795111,0.21703433999952448,15.121289681344678,1.7818442840039495,2693,0,26.943783585471916,1.8183844240510862,6.748808749456995,0.11935558682140748,0.008055080286368888,0.1328125,,
3.019085000000894,1500,,,,0,0.34765625,-1.05078125,0.006447412061795111,0.21703433999952448,15.122270297799588,1.7525463783508552,2705,0,26.502480042851378,1.8262500623011553,6.890864776988134,0.11884152366628899,0.008189208694756325,0.134765625,,
3.0275699999984353,1500,,,,-0.09375,-0.0078125,-0.91796875,0.006447412061795111,0.21703433999952448,15.123077381401865,1.7281436208442384,2719,0,26.134849704203422,1.835586592474699,7.023520751984545,0.11823704797653996,0.008304403601166207,0.134765625,,
3.03525,1500,,,,-0.03125,-0.033203125,-1.015625,0.006447412061795111,0.21703433999952448,15.123806134228017,1.7015380595569145,2724,0,25.733731742749303,1.8392464147710135,7.147219972436515,0.11800177412690258,0.008433846368227405,0.134765625,,
3.0435499999988824,1500,,,,-0.0625,0.21484375,-1.00390625,0.006447412061795111,0.21703433999952448,15.124405279677596,1.6726844581040885,2736,0,25.298357649384133,1.847276861256025,7.301963577469604,0.1174887990812355,0.00857898931651826,0.13671875,,
3.0514950000010432,1500,,,,-0.0625,0.0546875,-0.921875,0.006447412061795111,0.5834489316035947,15.125237008320982,1.6421206116513882,2741,0,24.837463447476264,1.850436483669161,7.45018301720816,0.31530340908902516,0.023490681036628918,0.134765625,,
3.059835000000894,1500,,,,-0.041015625,0.05859375,-0.98828125,0.006447412061795111,0.5834489316035947,15.126265593213462,1.6087443364646596,2747,0,24.3342941049424,1.8548017632963252,7.622172047799845,0.3145613418906278,0.02397640667477154,0.13671875,,
3.0669199999999255,1500,,,,0,0.0234375,-0.9609375,0.006447412061795111,0.5834489316035947,15.127034473200226,1.583230664673428,2749,0,23.949584843542652,1.856184772208428,7.750383918278639,0.3143269680579408,0.024361546783175477,0.13671875,,
3.0752299999985846,1500,,,,-0.03125,-0.046875,-0.9296875,0.006447412061795111,0.5834489316035947,15.127669969589617,1.5569288084951451,2760,0,23.55270518106095,1.863211794007489,7.910818649849712,0.31314149764406735,0.024772055996045577,0.13671875,,
3.08375,1500,,,,-0.0625,0.16796875,-1.08984375,0.006447412061795111,0.5834489316035947,15.128793745881852,1.5277168087695465,2764,0,23.112512501991297,1.8659839379099166,8.073479409688366,0.3126762882306019,0.02524385574927549,0.13671875,,
3.09547500000149,1500,,,,-0.125,-0.04296875,-1.02734375,0.006447412061795111,0.5834489316035947,15.130057446297558,1.4876358831132817,2766,0,22.508016370677552,1.8673167211166268,8.296229620435518,0.3124531178913779,0.025921828116478807,0.13671875,,
3.103179999999702,1500,,,,0.03125,-0.015625,-0.9375,0.006447412061795111,0.5834489316035947,15.130745440927635,1.463595289951573,2768,0,22.145287760797924,1.8687824740437564,8.438736467231264,0.3122080497368436,0.026346414546774544,0.138671875,,
3.1112099999990313,1500,,,,0.03125,0.232421875,-0.9296875,0.006447412061795111,0.5834489316035947,15.131694977672435,1.4426393536583335,2770,0,21.829578662344414,1.8704404230203255,8.56837620162957,0.3119313100929783,0.026727448139438094,0.138671875,,
3.1192099999990313,1500,,,,-0.0625,-0.140625,-0.9296875,0.006447412061795111,0.5834489316035947,15.132703542098419,1.4181014534431462,2772,0,21.459708887574013,1.8713828550420286,8.720448468551362,0.3117742208824988,0.02718811027028581,0.138671875,,
3.130405000001192,1500,,,,-0.09375,0.078125,-1.064453125,0.024449100448250938,0.5834489316035947,15.13344599317882,1.3962629060229181,2773,0,21.130269280576744,7.099286421907333,33.59770918032314,0.08218416569349263,0.027611996981974554,0.138671875,,
3.149379999998957,1500,,,,0,0.16015625,-1.05859375,0.024449100448250938,0.5834489316035947,15.135255641888545,1.3418445567188055,2775,0,20.309160397615734,7.105528532918161,34.98681577083974,0.08211196801203734,0.028728362974182367,0.140625,,
3.1574949999991806,1500,,,,-0.1875,0.04296875,-1.083984375,0.024449100448250938,0.5834489316035947,15.13573840849145,1.321934358955053,2778,0,20.00845265034052,7.113390943038756,35.55192931382275,0.08202120989491858,0.029160122564183644,0.140625,,
3.1655800000000744,1500,,,,0.03125,-0.05859375,-0.921875,0.024449100448250938,0.5834489316035947,15.136244725132848,1.304478075114038,2779,0,19.744899383496307,7.1160408695220525,36.03989431047679,0.08199066620071026,0.029549349443191795,0.142578125,,
3.1741599999982864,1500,,,,0,0.12109375,-1.0390625,0.024449100448250938,0.5834489316035947,15.136807715367256,1.2863110664465358,2780,0,19.470643274950206,7.117131387071005,36.553139444691546,0.08197810323742079,0.029965570390487615,0.142578125,,
3.182285000000149,1500,,,,-0.1875,-0.1875,-1.05859375,0.024449100448250938,0.5834489316035947,15.137355983936306,1.2726398651163793,2781,0,19.26440267761532,7.119743922584859,36.95803104685824,0.08194802200017476,0.03028637541311081,0.14453125,,
3.189980000000447,1500,,,,-0.03125,0.056640625,-0.990234375,0.024449100448250938,0.5834489316035947,15.13781625980344,1.2563013124990572,2781,0,19.01765843556063,7.120781727486346,37.442999366164756,0.08193607864028063,0.03067932540594054,0.14453125,,
3.1981650000009685,1500,,,,-0.0625,0.0234375,-0.955078125,0.024449100448250938,0.5834489316035947,15.138506809286321,1.242281336913549,2781,0,18.806284477915078,7.120070254853373,37.86005823327164,0.08194426609848246,0.031024146863712528,0.14453125,,
3.2069999999981373,1500,,,,-0.0625,-0.24609375,-1.01171875,0.024449100448250938,1.2375292465001209,15.138957057248152,1.2266693116805372,2781,0,18.5704940329758,7.119769044622836,38.339147208362874,0.17381592559308612,0.06663954358471177,0.146484375,,
3.2154049999993295,1500,,,,-0.0625,0.134765625,-1.044921875,0.024449100448250938,1.2375292465001209,15.139204276437875,1.21304114292148,2781,0,18.364477658411957,7.120786661108247,38.774784633455276,0.17379108592863213,0.0673871192809703,0.146484375,,
3.223445000000298,1500,,,,-0.03125,-0.0390625,-0.9296875,0.024449100448250938,1.2375292465001209,15.139834510444018,1.2003384252476212,2782,0,18.172925114775964,7.1215630099190275,39.187764022252296,0.17377214029791918,0.06809741627636576,0.146484375,,
3.2313499999996274,1500,,,,-0.1875,-0.09375,-1.1328125,0.024449100448250938,1.2375292465001209,15.14029868855668,1.1875160312882835,2782,0,17.97934741115403,7.122612299308222,39.615521834176775,0.173746540524228,0.06883059869750235,0.1484375,,
3.239309999998659,1500,,,,0.03125,0.076171875,-1.001953125,0.024449100448250938,1.2375292465001209,15.140479044761332,1.1771404678054078,2783,0,17.822470585548327,7.125263411187358,39.97910041139306,0.173681894280158,0.06943645891067392,0.146484375,,
3.248355000000447,1500,,,,-0.0625,-0.076171875,-0.9375,0.024449100448250938,1.2375292465001209,15.140891976899455,1.1632899821201108,2785,0,17.613247957089897,7.131130494794256,40.487311097688526,0.17353899881702073,0.0702612743268612,0.146484375,,
3.257394999999553,1500,,,,-0.125,0.04296875,-1.1484375,0.024449100448250938,1.2375292465001209,15.141303499694796,1.1517345931830216,2785,0,17.43876302648165,7.129635763550644,40.883838794781084,0.17357538134371908,0.07096427909599262,0.1484375,,
3.2659599999990316,1500,,,,-0.03125,0.01953125,-0.931640625,0.024449100448250938,1.2375292465001209,15.141804446144693,1.1427305781480048,2783,0,17.303002948946954,7.125893378907954,41.1829865598077,0.17366653985633623,0.07152106776791804,0.146484375,,
3.27625,1500,,,,-0.0625,-0.056640625,-0.986328125,0.03157564000969868,1.2375292465001209,15.142214629732335,1.1285876380555286,2783,0,17.089316243899486,9.200647924142688,53.83859595568734,0.13450457584110123,0.07241537512900154,0.1484375,,
3.286370000001043,1500,,,,-0.125,0.076171875,-1.048828125,0.03157564000969868,1.2375292465001209,15.142431680649869,1.1199208978220943,2782,0,16.958325683003125,9.200034941875161,54.25084476998876,0.1345135376461827,0.07297473050305096,0.1484375,,
3.29527499999851,1500,,,,0,-0.044921875,-0.845703125,0.03157564000969868,1.2375292465001209,15.142807843098323,1.1068110150985244,2782,0,16.76022652026155,9.19975203893819,54.890380078196124,0.13451767409189358,0.07383726258138953,0.1484375,,
3.304390000000596,1500,,,,-0.15625,0.044921875,-1.111328125,0.03157564000969868,1.2375292465001209,15.143092910372483,1.0994359250311947,2784,0,16.648860361748696,9.204788433985163,55.287798888225815,0.13444407281877518,0.07433116859718428,0.1484375,,
3.314609999999404,1500,,,,0,-0.083984375,-0.84765625,0.03157564000969868,1.2375292465001209,15.143434099304958,1.0915468010631895,2785,0,16.52976704820755,9.209141268383267,55.71246855158727,0.1343805258747408,0.07486670821742256,0.150390625,,
3.3234199999999254,1500,,,,-0.0625,0.12109375,-1.0859375,0.03157564000969868,1.2375292465001209,15.14355050896676,1.084525685686919,2783,0,16.423569499471665,9.202330059485028,56.03124253702011,0.1344799891441162,0.07535080888109806,0.150390625,,
3.332324999999255,1500,,,,-0.1875,-0.11328125,-0.9609375,0.03157564000969868,1.2375292465001209,15.14379321519544,1.0760418600873942,2782,0,16.295355420057763,9.19755184566929,56.442781446473575,0.13454985275052483,0.07594367932453075,0.150390625,,
3.340539999999106,1500,,,,0.03125,-0.0234375,-0.85546875,0.03157564000969868,1.2375292465001209,15.143803412110039,1.0716018965059977,2783,0,16.228128456731117,9.201706215898612,56.70220223134801,0.1344891064183217,0.0762582851004496,0.15234375,,
3.358445000000298,1500,,,,-0.0625,-0.044921875,-0.8515625,0.03157564000969868,1.4984905627775018,15.14419574164745,1.0579472277843123,2782,0,16.021759901898907,9.199884048500113,57.42118284652199,0.16288146186166397,0.09352846203867403,0.154296875,,
3.366410000000149,1500,,,,-0.03125,0.138671875,-1.072265625,0.03157564000969868,1.4984905627775018,15.144774709884565,1.0529077302892451,2785,0,15.946050365526519,9.209875681054811,57.75646928198268,0.16270475462116976,0.09397252162310121,0.15625,,
3.3738399999979882,1500,,,,-0.25,-0.07421875,-0.9921875,0.03157564000969868,1.4984905627775018,15.144800286615643,1.0508210775434086,2786,0,15.914475356361173,9.213666884525741,57.89488298049956,0.16263780550762058,0.09415896718068939,0.15625,,
3.3805800000000743,1500,,,,0.09375,0.09375,-0.8671875,0.03157564000969868,1.4984905627775018,15.144933067753634,1.0463106842276382,2787,0,15.846305280703088,9.21516423065897,58.15339328266494,0.16261137894775704,0.09456403472185378,0.15625,,
3.387890000000596,1500,,,,-0.125,0.2421875,-1.07421875,0.03157564000969868,1.4984905627775018,15.145249004135422,1.0422372099108925,2787,0,15.784942065475827,9.215866904116556,58.38391338966723,0.1625989804722716,0.09493164793141297,0.158203125,,
3.395980000000447,1500,,,,-0.125,-0.109375,-0.951171875,0.03157564000969868,1.4984905627775018,15.145516068526936,1.0364435271836065,2786,0,15.697472095080046,9.213273693664872,58.692722228520644,0.16264474633027315,0.09546062918290925,0.158203125,,
3.4036199999991803,1500,,,,0.125,0.21484375,-0.91015625,0.03157564000969868,1.4984905627775018,15.145632649857333,1.031406243280243,2785,0,15.621300073491946,9.209449326140518,58.95443582041031,0.16271228709887334,0.09592611086962707,0.16015625,,
3.4132550000008197,1500,,,,-0.03125,0.208984375,-1.078125,0.03157564000969868,1.4984905627775018,15.145770455082403,1.027346216595991,2786,0,15.559949974460247,9.210863676290966,59.195972296887014,0.1626873022379715,0.09630433036334246,0.16015625,,
3.4296650000009685,1500,,,,0.03125,0.279296875,-1.0390625,0.033122225096887434,1.4984905627775018,15.146055013538428,1.0198074587650705,2784,0,15.44605987367258,9.65635609196197,62.51662994276609,0.15518178373981648,0.09701442147920464,0.1640625,,
3.438929999999702,1500,,,,-0.1875,-0.1171875,-1.05859375,0.033122225096887434,1.4984905627775018,15.146230802398993,1.0169276806390481,2783,0,15.402621360307316,9.65283919947192,62.670106429723496,0.15523832230205184,0.09728802180641305,0.1640625,,
3.459234999999404,1500,,,,-0.0625,0.1875,-1.00390625,0.033122225096887434,1.4984905627775018,15.146447251629315,1.0051513968546646,2784,0,15.224472612360701,9.655609507830453,63.421635374029925,0.1551937825946942,0.0984264349203717,0.16796875,,
3.4737649999987332,1500,,,,-0.0625,-0.17578125,-0.9609375,0.033122225096887434,1.4984905627775018,15.146499489734364,1.0010472883064627,2786,0,15.162362241533806,9.663179254751578,63.73135729656636,0.15507221001211005,0.09882962423049961,0.16796875,,
3.4811099999994037,1500,,,,-0.041015625,0.078125,-1.015625,0.033122225096887434,1.4984905627775018,15.146602368809539,0.9991109345548528,2784,0,15.133136048032046,9.657171679842943,63.81474169789669,0.15516867799971348,0.09902049106155822,0.169921875,,
3.4882599999997765,1500,,,,0,-0.009765625,-0.9921875,0.033122225096887434,1.4984905627775018,15.146662192793356,0.9966739024799556,2783,0,15.096282917236955,9.653278370175387,63.94473674809884,0.15523125981813743,0.09926222044146532,0.169921875,,
3.495605000000447,1500,,,,0,0.26171875,-0.94140625,0.033122225096887434,1.6090296274557028,15.146719738991619,0.9932083494277637,2783,0,15.043848511208793,9.6515647983818,64.15622166888122,0.16671178830250155,0.10695598445150888,0.171875,,
3.506339999999851,1500,,,,-0.125,-0.1875,-1.0390625,0.033122225096887434,1.6090296274557028,15.146805888243042,0.9906473192992145,2784,0,15.005142649133527,9.657675106622545,64.36243448295527,0.16660631152857328,0.10723187810204633,0.171875,,
3.514574999999255,1500,,,,0,0.138671875,-1.017578125,0.033122225096887434,1.6090296274557028,15.146910859809573,0.9894158135939493,2787,0,14.986593131793514,9.665230287152184,64.4925114210764,0.1664760776155077,0.10736460336954132,0.171875,,
3.522460000000894,1500,,,,0,0.15625,-0.98828125,0.033122225096887434,1.6090296274557028,15.146964714495333,0.9890084287655867,2784,0,14.980475772850813,9.656114398512262,64.45799549312102,0.16663323994003318,0.1074084462905881,0.171875,,
3.5303800000008194,1500,,,,-0.15625,-0.16015625,-1.052734375,0.033122225096887434,1.6090296274557028,15.147112741621338,0.9879922482216328,2784,0,14.965229971661007,9.656100706322965,64.52357046706463,0.16663347622318037,0.10751786845258314,0.173828125,,
3.5378800000008197,1500,,,,0.03125,0.166015625,-0.998046875,0.033122225096887434,1.6090296274557028,15.147155846377263,0.9874497762173062,2786,0,14.95705565083389,9.663154295237394,64.60599278908647,0.1665118426442526,0.10757662905172086,0.173828125,,
3.545464999999851,1500,,,,-0.125,-0.1015625,-0.88671875,0.033122225096887434,1.6090296274557028,15.147192854494982,0.984320751689136,2786,0,14.90969625651681,9.662468538809543,64.80660888437764,0.16652366017990078,0.1079183371527384,0.173828125,,
3.553785000000149,1500,,,,-0.09375,-0.041015625,-1.087890625,0.033122225096887434,1.6090296274557028,15.14733088832602,0.9822466762827566,2784,0,14.878415419613368,9.65505278610606,64.89301793105167,0.1666515619439336,0.1081452279746545,0.173828125,,
3.561449999999255,1500,,,,0,0.21484375,-0.98046875,0.033122225096887434,1.6090296274557028,15.147363751792547,0.9858211341233025,2784,0,14.932591312770331,9.655682470645012,64.66180094534218,0.16664069394860884,0.10775287381498634,0.173828125,,
3.5693699999991804,1500,,,,-0.0625,-0.064453125,-0.91796875,0.033122225096887434,1.6090296274557028,15.147005927553337,0.9935044106810291,2786,0,15.048617197635933,9.662990469625997,64.21181655909227,0.1665146656734703,0.10692209166623454,0.173828125,,
3.5785299999993296,1500,,,,-0.0625,0.162109375,-0.994140625,0.03373666943203295,1.6090296274557028,15.146840672136332,1.001414730727384,2787,0,15.168269373057992,9.84539420452433,64.90782806120126,0.16342968031856894,0.1060786559021476,0.17578125,,
3.586589999999851,1500,,,,-0.03125,-0.03515625,-0.982421875,0.03373666943203295,1.6090296274557028,15.146898036272798,0.9956836519105716,2789,0,15.081518751873165,9.852707481355026,65.32967696062634,0.1633083729016195,0.10668883246628308,0.17578125,,
3.596945000000298,1500,,,,-0.0625,0.01953125,-0.96484375,0.03373666943203295,1.6090296274557028,15.14688674292155,0.9922088857264173,2791,0,15.028875617418434,9.86099728963634,65.61367290981812,0.1631710850531064,0.10706254203014634,0.17578125,,
3.6042200000006703,1500,,,,0.03125,0.17578125,-1.021484375,0.03373666943203295,1.6090296274557028,15.147121184368073,0.9904480823594015,2794,0,15.002437130322825,9.870770707703029,65.79444807505504,0.16300952327866716,0.10725121615097744,0.177734375,,
3.6115800000000746,1500,,,,-0.125,-0.203125,-0.9609375,0.03373666943203295,1.6090296274557028,15.147325232130232,0.9867928966983752,2792,0,14.94727294304618,9.864794875413425,65.99728868939106,0.1631082701441645,0.10764703592331609,0.1796875,,
3.619839999999851,1500,,,,0.0625,0.23828125,-0.828125,0.03373666943203295,1.6090296274557028,15.147623357554943,0.9837165931977951,2791,0,14.900968444337297,9.8618601913474,66.18267952305563,0.1631568077660879,0.1079815472038779,0.1796875,,
3.6285449999999253,1500,,,,-0.15625,0.013671875,-1.103515625,0.03373666943203295,1.6090296274557028,15.147643745190202,0.9798150984600351,2792,0,14.841890047631072,9.865029810542572,66.46747670871702,0.1631043857299005,0.10841136959591756,0.181640625,,
3.636609999999404,1500,,,,0.0625,0.09375,-0.8125,0.03373666943203295,1.6090296274557028,15.147661348027889,0.9798818780576435,2793,0,14.842918849886743,9.86820729252201,66.48427706385598,0.16305186745266315,0.10840385531501981,0.181640625,,
3.6448649999983607,1500,,,,-0.0625,0.1484375,-1.17578125,0.03373666943203295,1.6090296274557028,15.147823940171541,0.9815943990473648,2791,0,14.86901913742797,9.85970168125918,66.31037051018755,0.16319252645483834,0.10821356893713914,0.181640625,,
3.6529000000003724,1500,,,,-0.25,0.05859375,-1.07421875,0.03373666943203295,1.6556858488894561,15.147831954055189,0.982754917185122,2790,0,14.886606337541652,9.856887165964393,66.21312435129619,0.16797248675083767,0.11121983152829666,0.18359375,,
3.6604599999990315,1500,,,,0.029296875,0.060546875,-1.03515625,0.03373666943203295,1.6556858488894561,15.147744504470317,0.9792590128873648,2790,0,14.833565330917608,9.855666685046868,66.44165758655943,0.16799328769929708,0.11161752498157063,0.18359375,,
3.6684950000010432,1500,,,,-0.1875,0.05859375,-1.10546875,0.03373666943203295,1.6556858488894561,15.147887102444798,0.9770221914050472,2790,0,14.799821851986868,9.855170669132448,66.58979255084341,0.168001742889675,0.11187201207203591,0.18359375,,
3.6822599999997765,1500,,,,0.03125,-0.029296875,-0.82421875,0.03373666943203295,1.6556858488894561,15.148093270637316,0.9715379586291687,2789,0,14.716947613279226,9.854932949665447,66.96315845259419,0.16800579540682345,0.11250198698781239,0.18359375,,
3.692594999998808,1500,,,,-0.08203125,0.046875,-1.001953125,0.03373666943203295,1.6556858488894561,15.147877942363799,0.9747228811782717,2789,0,14.76498323171763,9.854871296834025,66.74488648022388,0.16800684646397784,0.11213597895138604,0.18359375,,
3.70025,1500,,,,-0.09375,-0.052734375,-0.95703125,0.03373666943203295,1.6556858488894561,15.147957065069448,0.9753090523032475,2789,0,14.773939649463166,9.85485390258885,66.70430593607401,0.16800714300335906,0.11206799866341799,0.185546875,,
3.7072799999993293,1500,,,,-0.0625,0.2109375,-1.12109375,0.03373666943203295,1.6556858488894561,15.148045779608,0.9747159669238777,2789,0,14.765042089077776,9.854848324417095,66.74446483093384,0.16800723810098706,0.11213553194773658,0.185546875,,
3.7153849999997766,1500,,,,-0.03125,0.111328125,-0.861328125,0.03373666943203295,1.6556858488894561,15.148437355886365,0.9743927013500612,2789,0,14.760526796434293,9.85484572619771,66.76486457501197,0.16800728239591312,0.11216983456778933,0.185546875,,
3.7234799999985846,1500,,,,-0.125,-0.19140625,-1.07421875,0.03408801780393164,1.6556858488894561,15.148415960428167,0.9723884819171027,2793,0,14.730145199209554,9.97004106596419,67.68460820399245,0.16606610122616747,0.11240118997457697,0.1875,,
3.731459999999031,1500,,,,0,0.267578125,-0.984375,0.03408801780393164,1.6556858488894561,15.148494194665897,0.9708934397705192,2794,0,14.707573636002914,9.97503489655617,67.82243722471065,0.1659829630732493,0.11257369093406917,0.1875,,
3.7398100000005217,1500,,,,-0.15625,-0.212890625,-1.017578125,0.03408801780393164,1.6556858488894561,15.148470155208205,0.9675882118290925,2792,0,14.657481149424282,9.966002726268028,67.99260135265106,0.1661333931331826,0.11295841570667742,0.1875,,
3.7528100000005216,1500,,,,0.0625,0.01953125,-0.87890625,0.03408801780393164,1.6556858488894561,15.14838115493305,0.964831836545493,2791,0,14.615640410405192,9.96187342819536,68.15899371130728,0.1662022571179557,0.11328178597707818,0.189453125,,
3.7699900000002233,1500,,,,0.09375,0.26171875,-0.89453125,0.03408801780393164,1.6556858488894561,15.148331709525165,0.962484752464238,2790,0,14.580038295688496,9.9578950250876,68.29814039673872,0.16626865865910156,0.11355840192676747,0.19140625,,
3.778605000000447,1500,,,,-0.125,0.078125,-1.03515625,0.03408801780393164,1.6556858488894561,15.148423144648207,0.9611906573423027,2789,0,14.560522800103762,9.957073983583236,68.38404170152653,0.1662823688584894,0.11371060446247556,0.19140625,,
3.787445000000298,1500,,,,-0.09375,-0.0859375,-0.927734375,0.03408801780393164,1.6556858488894561,15.148508724869153,0.9587411222948838,2789,0,14.523498255974891,9.955677817375609,68.54875899668245,0.1663056879964309,0.11400048526244809,0.193359375,,
3.7967199999988077,1500,,,,0.03125,0.244140625,-1.009765625,0.03408801780393164,1.6727253449391615,15.148627610116037,0.9573481817902897,2789,0,14.502511099162769,9.955168621816126,68.64444752875134,0.16802581739032418,0.11534039405325662,0.193359375,,
3.8049249999988826,1500,,,,-0.09375,-0.158203125,-0.96484375,0.03408801780393164,1.6727253449391615,15.148695599816545,0.9575606168850838,2789,0,14.505794303564684,9.954995743581168,68.62771893252896,0.1680287353229367,0.115314288203308,0.193359375,,
3.8129799999985843,1500,,,,0.0625,0.23046875,-0.9296875,0.03408801780393164,1.6727253449391615,15.148596013918555,0.9578675745450109,2785,0,14.510348921614387,9.940827249686425,68.50853348453066,0.1682682238534953,0.11527809248249683,0.193359375,,
3.820660000000149,1500,,,,-0.09375,0.07421875,-1.091796875,0.03408801780393164,1.6727253449391615,15.148372033706908,0.9577340189808187,2783,0,14.508111228858754,9.935269705424778,68.4807935967714,0.16836234893813032,0.11529587267099706,0.1953125,,
3.8287750000003724,1500,,,,-0.1875,-0.26171875,-0.9609375,0.03408801780393164,1.6727253449391615,15.148353820967587,0.959729920279862,2787,0,14.538328404968366,9.947131327776468,68.42004837624323,0.16816158245224194,0.1150562360640801,0.1953125,,
3.8373499999996277,1500,,,,0.0625,0.15625,-0.904296875,0.03408801780393164,1.6727253449391615,15.148555771831154,0.961397984055967,2788,0,14.563790980397854,9.952122460619957,68.33469715416147,0.1680772469951059,0.11485507771915757,0.1953125,,
3.844714999999851,1500,,,,-0.21875,-0.09375,-1.103515625,0.03408801780393164,1.6727253449391615,15.148531925452268,0.9597300852717978,2788,0,14.538501836556856,9.952219138339302,68.45422761040335,0.16807561426127163,0.11505486354399443,0.197265625,,
3.8528450000006704,1500,,,,0.125,-0.1171875,-0.7578125,0.03408801780393164,1.6727253449391615,15.148702548483449,0.9597171976929855,2788,0,14.538470358515124,9.95226474222346,68.45468950173604,0.16807484409477774,0.11505511265560707,0.197265625,,
3.860609999999404,1500,,,,-0.0625,0.193359375,-1.02734375,0.03408801780393164,1.6727253449391615,15.148668547876683,0.9607570964591049,2788,0,14.554190809279367,9.953840745038816,68.39157789997167,0.16804823261542332,0.11493083791870283,0.19921875,,
3.868515000000596,1500,,,,-0.0625,-0.185546875,-0.919921875,0.03408801780393164,1.6727253449391615,15.14863653372154,0.9598630490886007,2789,0,14.540616452792927,9.954465337914428,68.45972019296607,0.16803768842994596,0.11503813131786915,0.19921875,,
3.8767400000002237,1500,,,,0.0625,0.171875,-0.82421875,0.03424203929331825,1.6727253449391615,15.14870473262046,0.9570222395094762,2785,0,14.497647328880234,9.985409421465258,68.87606792292215,0.1675169514174719,0.11537908924070642,0.19921875,,
3.8852099999990313,1500,,,,-0.09375,0.109375,-1.078125,0.03424203929331825,1.6727253449391615,15.14853777117388,0.9560681172645938,2783,0,14.483033986197798,9.979979624347308,68.90807294837629,0.1676080921907251,0.1154955064341666,0.19921875,,
3.892820000000298,1500,,,,0,-0.080078125,-0.8203125,0.03424203929331825,1.6727253449391615,15.148609773155355,0.9579445597095974,2786,0,14.51152831935781,9.990461296343211,68.84499741502987,0.16743224314891506,0.11526872346779708,0.201171875,,
3.9039949999991803,1500,,,,0.125,0.27734375,-0.97265625,0.03424203929331825,1.6727253449391615,15.148645397154953,0.9597264759472877,2787,0,14.538556062386622,9.99458598016482,68.7453825350805,0.16736314523271298,0.11505443441297086,0.201171875,,
3.9215950000006705,1500,,,,-0.03125,0.154296875,-1.0625,0.03424203929331825,1.6727253449391615,15.148420370046868,0.9747852128825532,2789,0,14.766456175250541,10.000214961764845,67.72251136684915,0.16726893885128621,0.11327872612677026,0.201171875,,
3.9298650000002233,1500,,,,-0.125,-0.0859375,-1.05078125,0.03424203929331825,1.6727253449391615,15.148400165124375,0.9763464102920336,2789,0,14.790086122886432,10.001565829370037,67.62344550444126,0.1672463465697671,0.11309774203077544,0.203125,,
3.9379550000000747,1500,,,,0,0.0078125,-0.892578125,0.03424203929331825,1.6727253449391615,15.148641722851139,0.9746702702424848,2794,0,14.7649307218179,10.017905224173141,67.8493208868894,0.16697356458343066,0.11329042963048938,0.203125,,
3.945969999998808,1500,,,,-0.1875,0.0859375,-1.171875,0.03424203929331825,1.6809610437038705,15.148679381227012,0.9707758379789226,2796,0,14.70597192058468,10.024717505715147,68.16766385690599,0.1676816371878355,0.11430465478796037,0.203125,,
3.9536699999999256,1500,,,,0,0.13671875,-0.849609375,0.03424203929331825,1.6809610437038705,15.149013712234686,0.9682759461720569,2793,0,14.668425585787505,10.014790234854054,68.27447278702876,0.16784785345315495,0.11459723702948618,0.203125,,
3.9610449999999253,1500,,,,-0.0625,-0.07421875,-1.046875,0.03424203929331825,1.6809610437038705,15.149213865068528,0.9654553405877954,2792,0,14.625889431737088,10.01316909519992,68.46194990010036,0.16787502814765048,0.11493051766522386,0.201171875,,
3.9679700000006703,1500,,,,-0.03125,0.212890625,-1.009765625,0.03424203929331825,1.6809610437038705,15.149504806520163,0.9638972036901511,2794,0,14.60256532029529,10.017414869691638,68.60037705682434,0.16780387610677192,0.11511409172521192,0.203125,,
3.9749749999996276,1500,,,,-0.0625,-0.1328125,-0.9609375,0.03424203929331825,1.6809610437038705,15.14943960002351,0.9604099093249749,2794,0,14.549671912582763,10.019289896110212,68.86265172375047,0.16777247301292975,0.11553257377921708,0.203125,,
3.9840449999999255,1500,,,,-0.0625,-0.05078125,-1.078125,0.03424203929331825,1.6809610437038705,15.149632947941555,0.9612249550535849,2791,0,14.56220524946343,10.007455768702492,68.7221172704679,0.16797086917545417,0.11543313769497984,0.203125,,
3.992859999999404,1500,,,,0.03125,0.193359375,-0.921875,0.03424203929331825,1.6809610437038705,15.149394808953645,0.9608871058218595,2789,0,14.55685813292817,10.002564936481743,68.71376257940962,0.1680529998433706,0.11547553931994928,0.203125,,
4.001290000000969,1500,,,,-0.1875,-0.16796875,-1.03125,0.03424203929331825,1.6809610437038705,15.149391480286615,0.9617586289289975,2789,0,14.570057979189093,10.000836738998501,68.63964956956956,0.16808204029058119,0.11537092344483763,0.203125,,
4.016734999999404,1500,,,,-0.125,0.029296875,-0.9765625,0.03424203929331825,1.6809610437038705,15.149076177168558,0.9617749367350514,2789,0,14.570001781890765,10.000030199804447,68.63437870154284,0.1680955967249721,0.11537136843683558,0.203125,,
4.024789999999106,1500,,,,-0.0625,-0.10546875,-0.98046875,0.03457640955440543,1.6809610437038705,15.1489571849536,0.9608027214772858,2789,0,14.555159290846301,10.098376742617486,69.3800496499432,0.16645853948088768,0.11548901733841017,0.203125,,
4.032990000000224,1500,,,,0.09375,0.26171875,-0.921875,0.03457640955440543,1.6809610437038705,15.148812551473766,0.9598880545226182,2789,0,14.541164208361973,10.099444080684755,69.45416430189968,0.16644094766747786,0.11560016925860896,0.205078125,,
4.040939999999479,1500,,,,-0.125,-0.126953125,-1.064453125,0.03457640955440543,1.6809610437038705,15.14877297921041,0.9590213222282999,2789,0,14.52799629265871,10.099864665284933,69.52001130664246,0.16643401663406823,0.11570494718210343,0.205078125,,
4.04875500000082,1500,,,,0.0625,0.23828125,-0.9375,0.03457640955440543,1.6809610437038705,15.148670096716184,0.9609507048090961,2789,0,14.557125206359895,10.100031762948406,69.3820491324467,0.16643126310457892,0.11547342073897061,0.205078125,,
4.060990000000223,1500,,,,-0.0625,0.1171875,-1.0234375,0.03457640955440543,1.6809610437038705,15.148855321978179,0.9618338213382347,2789,0,14.570681403238325,10.09840586935117,69.30633914695854,0.16645805936614363,0.11536598716174509,0.205078125,,
4.076935000000521,1500,,,,-0.0625,0.11328125,-1.0625,0.03457640955440543,1.6809610437038705,15.14914194527254,0.9593486563684767,2789,0,14.533308970332541,10.099152015550047,69.48969457792353,0.16644576110109355,0.11566265102705016,0.20703125,,
4.086294999999925,1500,,,,-0.0625,-0.080078125,-0.88671875,0.03457640955440543,1.6809610437038705,15.149224610248833,0.9567691630346266,2789,0,14.494310950971343,10.098944686301834,69.67523134050776,0.1664491781981853,0.11597384997395961,0.208984375,,
4.09502499999851,1500,,,,0.0625,0.21875,-0.93359375,0.03457640955440543,1.6915281832261937,15.149304896261507,0.9564362949928755,2789,0,14.489345046697784,10.098020213306528,69.69273062903511,0.16751087317068405,0.11674290161318948,0.208984375,,
4.1031549999993295,1500,,,,-0.15625,0.009765625,-1.099609375,0.03457640955440543,1.6915281832261937,15.14924136396657,0.9563725451769387,2789,0,14.488318520756467,10.096920929449285,69.69008111592856,0.16752911061159065,0.11675117307801122,0.208984375,,
4.1108749999981375,1500,,,,0.09375,0.0390625,-0.8125,0.03457640955440543,1.6915281832261937,15.149079926016261,0.9585809125734553,2788,0,14.521618860128882,10.09567763785147,69.52170921914603,0.1675497419691958,0.11648344440925376,0.208984375,,
4.119119999999181,1500,,,,-0.0625,0.22265625,-1.1796875,0.03457640955440543,1.6915281832261937,15.149092285654168,0.9594682242265717,2789,0,14.535072673961063,10.096783624222233,69.46496829224785,0.16753138882447768,0.11637562612648586,0.2109375,,
4.127789999999106,1500,,,,-0.125,-0.03515625,-0.994140625,0.03457640955440543,1.6915281832261937,15.148886779518918,0.9604183458954149,2789,0,14.549268782942477,10.097249903428088,69.40039430205644,0.16752365242063663,0.11626207532912836,0.2109375,,
4.135960000000894,1500,,,,0.0625,0.130859375,-0.939453125,0.03457640955440543,1.6915281832261937,15.148843350931212,0.9607972222978082,2789,0,14.55496661259933,10.09900002459827,69.38525036434088,0.16749462116111655,0.11621656223944499,0.2109375,,
4.144105000000447,1500,,,,-0.125,-0.00390625,-1.03515625,0.03457640955440543,1.6915281832261937,15.148867631168617,0.9605166346969645,2789,0,14.550739356559856,10.099694325157174,69.41017963189593,0.1674831067919345,0.11625032527736183,0.2109375,,
4.152194999998436,1500,,,,0.125,-0.0625,-0.86328125,0.03457640955440543,1.6915281832261937,15.148759598086961,0.9594002257951473,2789,0,14.533723378921035,10.099964978126305,69.49330680653229,0.16747861867734887,0.11638643031279233,0.2109375,,
4.159865000000224,1500,,,,-0.15625,0.060546875,-1.140625,0.03457640955440543,1.6915281832261937,15.148529492028828,0.9604535387920293,2789,0,14.549458758114511,10.10007086082134,69.41887687188596,0.16747686293842876,0.11626055727212506,0.2109375,,
4.1677599999997765,1500,,,,0.0625,-0.0546875,-0.8046875,0.03457640955440543,1.6915281832261937,15.148205963631044,0.9621251977104794,2789,0,14.574470657717582,10.100113676198339,69.30003780857764,0.16747615298750593,0.11606103734069292,0.2109375,,
4.175769999999553,1500,,,,-0.125,-0.04296875,-1.01171875,0.03467105585689866,1.6915281832261937,15.148098148327511,0.965602873407856,2789,0,14.627047098689268,10.127777461549309,69.24006871118137,0.1670186958242495,0.11564385974922936,0.2109375,,
4.184429999999702,1500,,,,-0.03125,0.177734375,-1.001953125,0.03467105585689866,1.6915281832261937,15.148093346754754,0.9629734113237584,2789,0,14.587211125175154,10.12778405023806,69.42920043680695,0.16701858716926662,0.11595966965247329,0.2109375,,
4.192925000000745,1500,,,,0,0.01953125,-0.87109375,0.03467105585689866,1.6915281832261937,15.148235482183168,0.9623010714133104,2791,0,14.577163234525988,10.132315657927688,69.50814431390405,0.16694388926806825,0.11603959947569305,0.2109375,,
4.202570000000298,1500,,,,-0.0625,-0.041015625,-1.083984375,0.03467105585689866,1.6915281832261937,15.14836883325926,0.9592907203381877,2794,0,14.531689650005829,10.142958859293216,69.79889540435614,0.16676871184155262,0.11640271874547742,0.2109375,,
4.214005000000819,1500,,,,0,0.13671875,-0.8984375,0.03467105585689866,1.6915281832261937,15.148421995892518,0.9571476130796771,2792,0,14.499275955292202,10.137739572116251,69.91893666535812,0.16685457060652106,0.1166629415456287,0.2109375,,
4.2342799999993295,1500,,,,-0.103515625,0.01953125,-0.984375,0.03467105585689866,1.6915281832261937,15.14864208791493,0.9538797753285342,2790,0,14.44998331135267,10.130346556689254,70.10628551197232,0.16697633923582275,0.11706090912210536,0.2109375,,
4.242484999999404,1500,,,,0.0625,0.193359375,-0.89453125,0.03467105585689866,1.7005986138981641,15.148708955218552,0.9526586344406204,2788,0,14.431548386816903,10.123998994101779,70.15185566193276,0.1679769639338101,0.11783895728414331,0.2109375,,
4.249699999999255,1500,,,,-0.0625,0.1640625,-1.05078125,0.03467105585689866,1.7005986138981641,15.148939344211312,0.9521995996933428,2788,0,14.424813979336742,10.121666416288466,70.16843635410169,0.16801567488545627,0.11789397189691582,0.2109375,,
4.256814999999478,1500,,,,-0.125,-0.107421875,-0.978515625,0.03467105585689866,1.7005986138981641,15.149158487310896,0.9531725987791755,2789,0,14.43976276466773,10.12512675955726,70.11975836841421,0.16795825418115815,0.11777192199163504,0.212890625,,
4.265210000000894,1500,,,,0.125,0.25,-0.890625,0.03467105585689866,1.7005986138981641,15.149167066498244,0.9517827046604076,2789,0,14.418715203904071,10.126735780883477,70.23327416954265,0.16793156755491065,0.1179438382580511,0.212890625,,
4.272944999998435,1500,,,,-0.0625,0.056640625,-0.98828125,0.03467105585689866,1.7005986138981641,15.14930466879879,0.9528936882159572,2789,0,14.435676799758898,10.125253616181974,70.14048427816758,0.1679561498766117,0.11780525689842039,0.2109375,,
4.281634999999777,1500,,,,-0.125,-0.1328125,-0.9921875,0.03467105585689866,1.7005986138981641,15.148975365165622,0.9521436825472772,2788,0,14.424001191006779,10.123586702842017,70.18570345899565,0.16798380493158135,0.11790061518841738,0.212890625,,
4.29010000000149,1500,,,,0.0625,0.265625,-0.931640625,0.03467105585689866,1.7005986138981641,15.149068710502833,0.9520688502680744,2786,0,14.422956429840493,10.113891250305244,70.1235651615783,0.16814483879751418,0.11790915560000563,0.212890625,,
4.298875,1500,,,,-0.125,-0.125,-1.033203125,0.03467105585689866,1.7005986138981641,15.149010558226985,0.951290784075921,2783,0,14.411114131910155,10.105971586902061,70.12623378316512,0.16827660747653803,0.11800604716137615,0.212890625,,
4.307625,1500,,,,0,0.205078125,-0.9609375,0.03467105585689866,1.7005986138981641,15.148961243795666,0.9502071002492155,2786,0,14.39465053525483,10.115964252677978,70.27585857608939,0.1681103819092647,0.1181410142422786,0.212890625,,
4.315735000001267,1500,,,,-0.09375,0.015625,-1.025390625,0.03467105585689866,1.7005986138981641,15.14905597522682,0.9487932591824587,2785,0,14.373322192272957,10.111150748089594,70.3466506409027,0.16819041237412827,0.11831632180432158,0.212890625,,
4.324134999999776,1500,,,,-0.0625,-0.12890625,-1.0546875,0.03470973226031046,1.7005986138981641,15.149004001822709,0.9510291397385455,2783,0,14.407144243749235,10.116561551849745,70.21906202014306,0.1681004563835448,0.11803856372410484,0.212890625,,
4.332185000000521,1500,,,,0,0.205078125,-0.982421875,0.03470973226031046,1.7005986138981641,15.149249229733458,0.9499523282544263,2783,0,14.391064577091873,10.114256353969878,70.2815021070092,0.1681387691177784,0.11817045256021072,0.2109375,,
4.340129999998957,1500,,,,-0.0625,-0.166015625,-0.98828125,0.03470973226031046,1.7005986138981641,15.149253389906761,0.9508452622775176,2782,0,14.404595812834467,10.113348170288509,70.20917699945134,0.16815386806263294,0.11805944685951786,0.2109375,,
4.348169999999926,1500,,,,-0.125,0.0234375,-1.05859375,0.03470973226031046,1.7005986138981641,15.14899673895982,0.9512668559292529,2784,0,14.410738498352812,10.117759429999188,70.20986073097973,0.1680805543622518,0.11800912313359566,0.2109375,,
