Time (s),ESC signal (µs),Servo 1 (µs),Servo 2 (µs),Servo 3 (µs),AccX (g),AccY (g),AccZ (g),Torque (N·m),Thrust (N),Voltage (V),Current (A),Motor Electrical Speed (RPM),Motor Optical Speed (RPM),Electrical Power (W),Mechanical Power (W),Motor Efficiency (%),Propeller Mech. Efficiency (N/W),Overall Efficiency (N/W),Vibration (g),App message,90% settling time (s),Max acceleration (RPM/s),
0,1000,,,,-0.0625,0.046875,-0.953125,0.0005040671838999395,0.015881622456281188,15.180134982662816,0.06744745336702859,0,0,1.0238614463483497,0,0,0,0,0.05859375,,
0,1200,,,,-0.0625,0.048828125,-0.955078125,0.0005040671838999395,0.015881622456281188,15.180195556698829,0.06733814532047588,0,0,1.022206214390228,0,0,0,0,0.05859375,,
0.008364999999292196,1200,,,,-0.0625,0.05078125,-0.953125,0.0005040671838999395,0.015881622456281188,15.180185085484634,0.06734902018089144,0,0,1.0223705916719719,0,0,0,0,0.05859375,,
0.015910000000149013,1200,,,,-0.0625,0.05078125,-0.95703125,0.0005040671838999395,0.015881622456281188,15.18008978487143,0.06688436549407287,0,0,1.0153106734041828,0,0,0,0,0.05859375,,
0.024700000000186264,1200,,,,-0.0625,0.046875,-0.955078125,0.0005040671838999395,0.015881622456281188,15.180084874559215,0.06620548701931268,0,0,1.005004912114695,0,0,0,0,0.05859375,,
0.03309999999869615,1200,,,,-0.0625,0.048828125,-0.95703125,0.0005040671838999395,0.015881622456281188,15.179882253583369,0.0654104481911164,0,0,0.9929229016952621,0,0,0,0,0.05859375,,
0.043139999999664724,1200,,,,-0.0625,0.046875,-0.95703125,0.0005040671838999395,0.016517545200145093,15.179888050221447,0.08064649393609695,0,0,1.2242047495928143,0,0,0,0,0.05859375,,
0.0510699999993667,1200,,,,-0.03125,0.0234375,-0.951171875,0.0005040671838999395,0.016517545200145093,15.17861396352933,0.12207382551893806,0,0,1.852911472603196,0,0,0,0,0.05859375,,
0.06001999999862164,1200,,,,-0.03125,0.013671875,-0.96484375,0.0005040671838999395,0.016517545200145093,15.1775069564053,0.1566063503749696,0,0,2.3768939722333466,0,0,0,0,0.05859375,,
0.06749999999906868,1200,,,,0,0.04296875,-1.037109375,0.0005040671838999395,0.016517545200145093,15.176583551618801,0.18363802393764136,0,0,2.786997813543788,0,0,0,0,0.05859375,,
0.07512499999906867,1200,,,,-0.03125,-0.005859375,-1.00390625,0.0005040671838999395,0.016517545200145093,15.175751483616725,0.2061107996025948,0,0,3.1278862728585075,0,0,0,0,0.0625,,
0.08295500000007451,1200,,,,-0.25,0.078125,-0.9453125,0.0005040671838999395,0.016517545200145093,15.174902962970974,0.2210990317042553,1,0,3.355156351318917,0.00003311268774088327,0.0009869193645138659,0,0.004923032929196287,0.064453125,,
0.09113499999884515,1200,,,,0.1875,-0.10546875,-0.95703125,0.0005040671838999395,0.016517545200145093,15.174696342684733,0.23509623115385728,1,0,3.5675139190694027,0.00005311076273553724,0.0014887331609736605,0,0.004629987597764929,0.064453125,,
0.09933999999891967,1200,,,,-0.125,0.072265625,-0.9609375,0.0005040671838999395,0.016517545200145093,15.174259772241776,0.24191517675643867,1,0,3.670883734949986,0.00006148052928862942,0.0016748154866165234,0,0.004499610010222821,0.06640625,,
0.10866500000003726,1200,,,,-0.09375,0.078125,-0.947265625,0.0005586546820507797,0.016517545200145093,15.174148180776122,0.24755604409760304,1,0,3.7564520961837764,0.00007133294051682042,0.001898944501096883,0,0.004397113227378957,0.068359375,,
0.11600999999977649,1200,,,,0,0.029296875,-1.0234375,0.0005586546820507797,0.016517545200145093,15.174140203558558,0.2513211236473161,1,0,3.813581966340251,0.0000726478828905326,0.0019049776176765906,0,0.004331241689816451,0.068359375,,
0.12471999999973923,1200,,,,-0.125,0.05078125,-1.02734375,0.0005586546820507797,0.016517545200145093,15.174046558607174,0.2553407045784086,1,0,3.8745517395803315,0.00007307395405388568,0.001885997631865425,0,0.004263085463903026,0.0703125,,
0.13270999999996275,1200,,,,-0.0625,0.0234375,-0.939453125,0.0005586546820507797,0.016517545200145093,15.173562488864302,0.2755207055314575,1,0,4.180630642357551,0.00007328235900703312,0.0017529020206795297,0,0.003950969749107153,0.0703125,,
0.14181999999843536,1200,,,,0.03125,0.0546875,-1.0234375,0.0005586546820507797,0.016517545200145093,15.172934537949661,0.29156960349779215,1,0,4.423966507127939,0.0000733556067391651,0.0016581410962531885,0,0.003733650599192345,0.0703125,,
0.15102999999932945,1200,,,,-0.0625,0.078125,-0.80078125,0.0005586546820507797,0.016517545200145093,15.172661858332336,0.29172169589431973,1,0,4.4261946485437695,0.00007338235669149063,0.001657910745421773,0,0.0037317710836732884,0.0703125,,
0.15992499999981374,1200,,,,0,0.087890625,-0.951171875,0.0005586546820507797,0.016517545200145093,15.172846013532089,0.2862974922475096,1,0,4.34394776393186,0.0000733918923455993,0.001689520600477242,0,0.0038024272154678217,0.072265625,,
0.1680799999991432,1200,,,,0,0.02734375,-0.98828125,0.0005586546820507797,0.016517545200145093,15.173003547433238,0.2803618833735901,1,0,4.253931850992546,0.00007339513233140846,0.0017253480991775544,0,0.00388288900215718,0.07421875,,
0.17707999999914317,1200,,,,-0.0625,0.025390625,-0.9609375,0.0005586546820507797,0.016517545200145093,15.173094159947915,0.27349523372998624,1,0,4.1497689336820445,0.00007339644812660539,0.0017686875895878262,0,0.003980352994133882,0.07421875,,
0.18505499999970199,1200,,,,-0.0625,0.07421875,-0.94140625,0.0005586546820507797,0.016517545200145093,15.173138621239866,0.267651831301408,1,0,4.061118338564971,0.00007339689894209601,0.0018073075646456388,0,0.004067240553739121,0.07421875,,
0.19559999999869615,1200,,,,-0.0625,0.046875,-1.01953125,0.0005586546820507797,0.017579422548626395,15.17336896322232,0.2611958717323451,257,0,3.963221333465363,0.01503914027993902,0.3794675849402811,0,0.004435639867041009,0.07421875,,
0.20619499999843538,1200,,,,-0.041015625,0.0390625,-0.970703125,0.0005586546820507797,0.017579422548626395,15.1733667675993,0.2508938096716088,356,0,3.8069037938675727,0.02082800541585378,0.5471114202939666,0.8440281341220202,0.0046177743122756505,0.07421875,,
0.2141199999982491,1200,,,,-0.03125,0.046875,-0.9765625,0.0005586546820507797,0.017579422548626395,15.173405886321124,0.24152628904803605,386,0,3.6647764159427676,0.022580462207285285,0.6161484261100943,0.7785235920881473,0.00479686085954689,0.07421875,,
0.22300499999988824,1200,,,,-0.0625,0.05859375,-0.94921875,0.0005586546820507797,0.017579422548626395,15.173618172862023,0.23540384516254995,395,0,3.571928062920066,0.023113473984179893,0.6470867715427766,0.760570330563839,0.00492154999735777,0.07421875,,
0.231,1200,,,,-0.03125,0.009765625,-0.966796875,0.0005586546820507797,0.017579422548626395,15.173725104437413,0.2288479745891426,398,0,3.472476257122928,0.023289119721795152,0.670677579840129,0.754834135365566,0.0050625033108769426,0.07421875,,
0.23984999999962747,1200,,,,-0.03125,0.03515625,-0.951171875,0.0005586546820507797,0.017579422548626395,15.173969584935158,0.22344568038553156,399,0,3.390557958055198,0.023367574868509516,0.6891955588900479,0.7522998277547697,0.005184817002423353,0.07421875,,
0.24823499999940396,1200,,,,-0.0625,0.03515625,-0.96484375,0.0005586546820507797,0.017579422548626395,15.174082612325194,0.21718190535328313,400,0,3.2955361737329096,0.023400197409080583,0.7100573677689231,0.751251036104704,0.005334313332301823,0.07421875,,
0.2566849999986589,1200,,,,-0.0625,0.08203125,-0.98046875,0.0031779176398106083,0.017579422548626395,15.174398216061519,0.21104961099915842,400,0,3.202550840646107,0.13317687030791853,4.158462330017231,0.13200056817659836,0.005489193903032556,0.07421875,,
0.26470999999903144,1200,,,,-0.0625,0.046875,-0.96484375,0.0031779176398106083,0.017579422548626395,15.174577460155643,0.20628438947484648,400,0,3.1302784469069733,0.1331997376289658,4.255204126028482,0.13197790672527232,0.005615929332419809,0.07421875,,
0.27424499999824914,1200,,,,-0.0625,0.05078125,-0.955078125,0.0031779176398106083,0.017579422548626395,15.174874723896481,0.20034755222466072,454,0,3.0402490062485343,0.15103238663349736,4.96776370366654,0.11639505234917256,0.005782231163465863,0.07421875,,
0.281894999999553,1200,,,,-0.0625,0.02734375,-0.9453125,0.0031779176398106083,0.017579422548626395,15.175261567319563,0.19590955710914018,498,0,2.972978772668932,0.16560114783299112,5.570209560706887,0.1061551974649068,0.005913066958377514,0.07421875,,
0.2908099999986589,1200,,,,-0.03125,0.037109375,-0.966796875,0.0031779176398106083,0.017579422548626395,15.17542822280508,0.19047868189415168,515,0,2.89059556505922,0.17124824720642137,5.924324013930775,0.10265461302757913,0.0060815918910005805,0.072265625,,
0.2994249999988824,1200,,,,-0.0625,0.06640625,-0.974609375,0.0031779176398106083,0.017579422548626395,15.175622402010243,0.18518882449978727,522,0,2.810355673680915,0.1737144049185568,6.181224908483956,0.1011972643078634,0.006255230508101996,0.07421875,,
0.3071299999989569,1200,,,,0,0.0234375,-0.95703125,0.0031779176398106083,0.017579422548626395,15.175837629753275,0.1811120028277125,524,0,2.748526347712781,0.17445712304304392,6.347296731873082,0.10076643614195686,0.006395944708063404,0.072265625,,
0.31506499999854715,1200,,,,-0.0625,0.03515625,-0.958984375,0.0031779176398106083,0.017579422548626395,15.175844738810072,0.17795636931761055,525,0,2.700638231046402,0.1747308263750316,6.469982701360544,0.10060859273277284,0.006509358545892683,0.072265625,,
0.3226049999995157,1200,,,,-0.03125,0.060546875,-0.984375,0.0031779176398106083,0.017579422548626395,15.176241090153415,0.1742780578589329,525,0,2.644885822790872,0.1748564772134038,6.611116279828519,0.10053629598846126,0.0066465714312297485,0.072265625,,
0.3299399999994785,1200,,,,-0.0625,0.046875,-0.9609375,0.0031779176398106083,0.017579422548626395,15.176230584564255,0.16999462956882,526,0,2.5798776964739973,0.17490360497321153,6.779530875136366,0.1005092064930216,0.006814052686548965,0.072265625,,
0.33875999999884515,1200,,,,-0.03125,0.0078125,-0.9765625,0.0031779176398106083,0.03820257342508484,15.176437340939028,0.16592270749340066,526,0,2.51811557371255,0.17492656159519868,6.946724901005956,0.2183920673721938,0.015171096125965889,0.072265625,,
0.3493549999985844,1200,,,,-0.0625,0.048828125,-0.96484375,0.0031779176398106083,0.03820257342508484,15.176611121406484,0.1621849724377288,526,0,2.461418256423439,0.17493432456189179,7.107053996425618,0.21838237590455703,0.015520553374214036,0.072265625,,
0.3582949999999255,1200,,,,-0.0625,0.05859375,-1.03515625,0.0031779176398106083,0.03820257342508484,15.176844899997226,0.1571514064369906,539,0,2.385062521310632,0.17924106474702503,7.515151621624118,0.21313516229666843,0.016017430605589276,0.072265625,,
0.3656499999994412,1200,,,,-0.0625,0.06640625,-1.005859375,0.0031779176398106083,0.03820257342508484,15.176993992143377,0.15476453339860777,542,0,2.348860393587543,0.18029297081408954,7.675763587580367,0.21189164088087334,0.01626430141586063,0.072265625,,
0.37370000000018627,1200,,,,-0.03125,0.037109375,-0.9609375,0.0031779176398106083,0.03820257342508484,15.177292500049699,0.1528038603925883,543,0,2.3191488843150716,0.1806967661517094,7.791512109196718,0.21141813569043463,0.016472669643358164,0.072265625,,
0.38198499999940394,1200,,,,-0.0625,0.04296875,-1.00390625,0.0031779176398106083,0.03820257342508484,15.176779818004837,0.1619837275818649,544,0,2.4583913676096407,0.18090066086036255,7.358497237006533,0.21117984447040494,0.015539663020469443,0.072265625,,
0.3894199999989942,1200,,,,-0.0625,0.060546875,-1.02734375,0.0031779176398106083,0.03820257342508484,15.175861091007292,0.1877280660285954,544,0,2.8489350529334088,0.18096924292636682,6.3521715856608125,0.21109981346735693,0.013409422368456424,0.072265625,,
0.3972749999994412,1200,,,,0,-0.064453125,-1.03515625,0.0031779176398106083,0.03820257342508484,15.175258536920737,0.20496855544706752,544,0,3.1104508208484227,0.18099463207905936,5.8189195876657624,0.2110702012886093,0.012282005286508437,0.07421875,,
0.4053599999984726,1200,,,,-0.25,0.23828125,-0.86328125,0.0031779176398106083,0.03820257342508484,15.173976287178453,0.23893872410112596,544,0,3.6256505335991602,0.18100645548058444,4.992385609235772,0.2110564141132669,0.010536750045559793,0.078125,,
0.41414499999862164,1200,,,,0,-0.013671875,-1.0546875,0.026027599219488683,0.03820257342508484,15.17267055000628,0.2685631910531321,544,0,4.0748208197075675,1.4825085526351307,36.38217772583002,0.02576887219785713,0.009375276880966382,0.078125,,
0.4230049999989569,1200,,,,-0.03125,-0.0390625,-1.056640625,0.026027599219488683,0.03820257342508484,15.1715979965194,0.3001462197347895,598,0,4.553697785991204,1.6288677267975376,35.77022023307113,0.023453453461315513,0.008389351955373402,0.080078125,,
0.43102999999932945,1200,,,,-0.0625,0.078125,-0.92578125,0.026027599219488683,0.03820257342508484,15.171039282671455,0.31903874727118486,615,0,4.840149367545436,1.677255406941173,34.65296790606593,0.022776837246722755,0.007892850101123706,0.080078125,,
0.4391299999989569,1200,,,,-0.03125,0.025390625,-0.98828125,0.026027599219488683,0.03820257342508484,15.170396342214598,0.33372013967602876,623,0,5.062666786264572,1.6968860387868918,33.51763231565392,0.022513340643898486,0.007545938738992568,0.080078125,,
0.4477749999985099,1200,,,,-0.0625,0.02734375,-0.9609375,0.026027599219488683,0.03820257342508484,15.170213221121891,0.3452652765039607,625,0,5.2377478624146905,1.7045721150667583,32.54398951309813,0.022411825869619286,0.007293702260702714,0.080078125,,
0.45734999999869613,1200,,,,-0.03125,0.01953125,-0.984375,0.026027599219488683,0.03820257342508484,15.16991731324721,0.35382280779525027,627,0,5.367462737794907,1.707928282009355,31.82003053291836,0.022367785478755592,0.007117436168877709,0.080078125,,
0.4649899999983609,1200,,,,-0.0625,0.109375,-1.00390625,0.026027599219488683,0.03820257342508484,15.169691837850047,0.3586354031041644,681,0,5.4403885472333045,1.8565303954938874,34.124959630650295,0.020577402620398203,0.007022030337247265,0.080078125,,
0.4731699999989942,1200,,,,-0.0625,0.05859375,-0.978515625,0.026027599219488683,0.03820257342508484,15.169607964115617,0.36432330524115736,811,0,5.526641712699186,2.211544640952596,40.01606682537211,0.017274158847017235,0.006912438947743345,0.080078125,,
0.4813649999992922,1200,,,,-0.03125,0.017578125,-0.96875,0.026027599219488683,0.03820257342508484,15.169521741895045,0.36505024597272756,864,0,5.537637643167424,2.3560672097111977,42.54643155675263,0.016214551634020507,0.006898713113202851,0.080078125,,
0.48836999999918046,1200,,,,-0.125,-0.00390625,-0.96875,0.026027599219488683,0.04753947330250232,15.169628549369676,0.3618627880456198,882,0,5.4893240804913415,2.4030577327532847,43.77693314361921,0.01978290935525479,0.00866035100231268,0.080078125,,
0.4956949999993667,1200,,,,0,0.0625,-0.982421875,0.026027599219488683,0.04753947330250232,15.16973189556588,0.3596310057970559,889,0,5.455505939274037,2.4236970414076837,44.42662272548464,0.019614445407290418,0.008714035660793065,0.080078125,,
0.5060699999993667,1200,,,,-0.0625,0.046875,-0.9609375,0.026027599219488683,0.04753947330250232,15.169917603071898,0.3589139659246336,893,0,5.444695289668447,2.4326340379116536,44.6789748276214,0.019542385974058635,0.008731337710066272,0.080078125,,
0.514484999999404,1200,,,,-0.041015625,0.0625,-0.9609375,0.026027599219488683,0.04753947330250232,15.170067864286063,0.35613220168120374,992,0,5.4025496681614715,2.7041776486985496,50.053730456841905,0.017580011182098863,0.008799451411370432,0.078125,,
0.5229049999993295,1200,,,,0,0.0078125,-1.0078125,0.026027599219488683,0.04753947330250232,15.170329120241249,0.35345758408860833,1014,0,5.362067880669535,2.7643066147632394,51.55299552862195,0.017197612250612813,0.008865884274588164,0.078125,,
0.5417349999984726,1200,,,,-0.03125,0.025390625,-0.986328125,0.026027599219488683,0.04753947330250232,15.170838583370397,0.3445406081259284,1029,0,5.226969951294735,2.8044888986182213,53.654199751493536,0.016951207518034795,0.009095034742016578,0.078125,,
0.5496999999992549,1200,,,,-0.0625,0.0078125,-0.9453125,0.026027599219488683,0.04753947330250232,15.171063259842212,0.33871716840161936,1050,0,5.138699589015595,2.8612373427968274,55.68018315203644,0.016615005190737872,0.009251265320923208,0.078125,,
0.5577349999984726,1200,,,,-0.03125,0.044921875,-0.9453125,0.02080164878982344,0.04753947330250232,15.171330245653518,0.33156373937756395,1071,0,5.030262987580817,2.3330025234953187,46.379335021951206,0.02037694894186329,0.009450693416998716,0.078125,,
0.564804999999702,1200,,,,-0.00390625,0.02734375,-1.02734375,0.02080164878982344,0.04753947330250232,15.171621020480782,0.3238382866021865,1078,0,4.913151756250213,2.34798908429603,47.789875028978315,0.020246888548357767,0.009675962734516697,0.078125,,
0.5733149999994784,1200,,,,-0.0625,0.04296875,-0.9765625,0.02080164878982344,0.04753947330250232,15.171839550012942,0.31537923229371956,1081,0,4.784883109766573,2.3549755192722874,49.216991622333964,0.020186822713635904,0.009935346843785593,0.078125,,
0.5813700000001117,1200,,,,0,0.025390625,-0.966796875,0.02080164878982344,0.04753947330250232,15.171847390074069,0.3085071997520055,1082,0,4.680624153376525,2.357654344932604,50.37051187354642,0.02016388594226321,0.01015665256271605,0.078125,,
0.5900099999997764,1200,,,,-0.09375,0.0859375,-0.986328125,0.02080164878982344,0.04753947330250232,15.171855703967346,0.30156395430793814,1094,0,4.5752848002778395,2.3836534794940594,52.09847219454643,0.019943953142296827,0.010390494882332882,0.078125,,
0.5981549999993294,1200,,,,-0.0625,0.046875,-0.98828125,0.02080164878982344,0.04753947330250232,15.17232538084355,0.29599313421428786,1098,0,4.490904142794871,2.3926637667443993,53.27799682794717,0.019868848253253465,0.01058572434211802,0.078125,,
0.6076049999995157,1200,,,,-0.03125,0.021484375,-0.9296875,0.02080164878982344,0.04753947330250232,15.172675699027344,0.28840531958887045,1100,0,4.37588038399627,2.3963898888473487,54.76360591600192,0.01983795438452987,0.010863979160940163,0.078125,,
0.6163599999994039,1200,,,,-0.03125,0.04296875,-1.001953125,0.02080164878982344,0.04753947330250232,15.172749434016064,0.2816698719473579,1101,0,4.273706390168651,2.3977249382654806,56.104110094724135,0.019826908643195945,0.011123710653559027,0.078125,,
0.6258499999986962,1200,,,,-0.0625,0.03125,-0.962890625,0.02080164878982344,0.04753947330250232,15.172784932036498,0.27447845738362836,1102,0,4.164602602358938,2.401602775656185,57.667033447461606,0.019794894386526183,0.011415128366767752,0.078125,,
0.6364399999985472,1200,,,,0,0.025390625,-0.974609375,0.02080164878982344,0.1250475985212173,15.172737222966862,0.26928128815073027,1106,0,4.08573422417305,2.409660929774191,58.9774272520603,0.051894271503557764,0.030605906223997437,0.078125,,
0.6441299999989569,1200,,,,-0.09375,0.10546875,-1.013671875,0.02080164878982344,0.1250475985212173,15.172701154808786,0.264501815446897,1107,0,4.013207000680154,2.412037315442967,60.10248948120985,0.05184314426671815,0.03115902032963273,0.078125,,
0.6526299999989569,1200,,,,0,-0.05078125,-0.9453125,0.02080164878982344,0.1250475985212173,15.17292807795455,0.260806858121323,1108,0,3.9572037005121303,2.4129757066999105,60.97678788654801,0.05182298279009107,0.031599990292396116,0.078125,,
0.6661399999996648,1200,,,,-0.03125,0.0703125,-0.9296875,0.02080164878982344,0.1250475985212173,15.173165926070027,0.2562310705144132,1108,0,3.8878365483297403,2.4133652625767352,62.07476144061521,0.051814617729147534,0.03216380034673505,0.078125,,
0.6840849999990314,1200,,,,-0.0625,0.04296875,-1.001953125,0.02080164878982344,0.1250475985212173,15.17332777947201,0.24258538102582608,1109,0,3.6808275008129687,2.4167516488192278,65.65783504620768,0.05174201436143132,0.03397268643901367,0.078125,,
0.6921749999998137,1200,,,,-0.0625,0.10546875,-0.97265625,0.02080164878982344,0.1250475985212173,15.173653425354447,0.2382789651937873,1110,0,3.6155624364026235,2.4169543451057436,66.84864077497555,0.05173767505142775,0.03458593254045308,0.078125,,
0.7004749999996275,1200,,,,-0.03125,0.009765625,-0.955078125,0.02080164878982344,0.1250475985212173,15.173702576193257,0.23315515654872349,1110,0,3.5378269995761076,2.417034335946726,68.31974362331252,0.05173596281255868,0.0353458771545924,0.078125,,
0.7102399999983608,1200,,,,-0.0625,0.048828125,-1.005859375,0.01849495982236082,0.1250475985212173,15.173842884169096,0.22913840319294435,1112,0,3.476910128779128,2.153401828917013,61.934354043058114,0.05806979303259259,0.035965151208876986,0.078125,,
0.7182599999997765,1200,,,,-0.0625,0.083984375,-0.9453125,0.01849495982236082,0.1250475985212173,15.174013152088897,0.2273957257459011,1113,0,3.450505733197103,2.154687740865404,62.44556327309606,0.05803513713360315,0.03624036827939222,0.078125,,
0.7274049999993294,1200,,,,0,0.0390625,-0.97265625,0.01849495982236082,0.1250475985212173,15.173902786072599,0.22410514593369413,1113,0,3.4005496982564876,2.1552280725676756,63.378814127395145,0.058020587293222875,0.03677276017619477,0.078125,,
0.7363549999985843,1200,,,,-0.0625,0.033203125,-0.990234375,0.01849495982236082,0.1250475985212173,15.17401866224115,0.22096970033001057,1113,0,3.3529983565974146,2.155422952226626,64.28344791716287,0.05801534144008202,0.037294261798599335,0.078125,,
0.7446699999999254,1200,,,,-0.0625,0.07421875,-1.017578125,0.01849495982236082,0.1250475985212173,15.174128957155586,0.21629121138687163,1113,0,3.282030733883789,2.155926533528001,65.68879783087182,0.05800179021712161,0.038100678714011404,0.078125,,
0.753179999999702,1200,,,,-0.03125,0.05859375,-0.935546875,0.01849495982236082,0.1250475985212173,15.174040602532486,0.21507174970108503,1113,0,3.2635074624219684,2.1560787837963553,66.06630469281201,0.05799769445392782,0.03831693353273809,0.078125,,
0.7604449999993667,1200,,,,-0.0625,0.0390625,-0.98046875,0.01849495982236082,0.1250475985212173,15.174074940771515,0.21221881184597446,1113,0,3.220224154792306,2.1561582565840056,66.95677545847956,0.05799555674513883,0.038831954705737706,0.078125,,
0.7677449999991804,1200,,,,-0.0625,0.109375,-1.01953125,0.01849495982236082,0.1250475985212173,15.174071681625195,0.21082069626135644,1113,0,3.1990083570399555,2.156183634124216,67.40162554996681,0.057994874157371236,0.03908948791772583,0.080078125,,
0.7759099999982864,1200,,,,0,-0.05859375,-1.0078125,0.01849495982236082,0.1250475985212173,15.174231861623264,0.20804766029689803,1113,0,3.1569634356133633,2.156195260537693,68.29965897653065,0.05799456144339824,0.03961008769077552,0.080078125,,
0.7846849999986589,1200,,,,-0.0625,0.056640625,-0.892578125,0.01849495982236082,0.18744566920721925,15.17442847827373,0.20524593025295654,1114,0,3.1144896890802474,2.157602276705768,69.27626969742636,0.0868768406628731,0.06018503444221534,0.080078125,,
0.7917449999982491,1200,,,,0,0.00390625,-0.96875,0.01849495982236082,0.18744566920721925,15.17440883113853,0.20350606107459504,1114,0,3.088084170360552,2.158095070795475,69.88459354537298,0.08685700261486934,0.06069966324309543,0.080078125,,
0.7991349999988452,1200,,,,-0.0625,0.07421875,-0.97265625,0.01849495982236082,0.18744566920721925,15.174391335434146,0.20251563887723795,1114,0,3.07305155586867,2.1582919437993953,70.23285827006906,0.08684907977613318,0.06099659110803083,0.080078125,,
0.8071699999999254,1200,,,,-0.03125,0.060546875,-1.013671875,0.01849495982236082,0.18744566920721925,15.17440485591046,0.2003687564671953,1114,0,3.0404766311085485,2.158384947324207,70.98837482389287,0.08684533750089361,0.06165009370220916,0.080078125,,
0.8176849999995902,1200,,,,-0.03125,0.03515625,-0.91015625,0.01849495982236082,0.18744566920721925,15.174484068094081,0.1987295809094615,1114,0,3.015618859369637,2.158467624492633,71.57627422929113,0.08684201100828651,0.06215827594552234,0.080078125,,
0.8260199999986216,1200,,,,0,-0.01953125,-0.955078125,0.01849495982236082,0.18744566920721925,15.174650916809377,0.19816086356919838,1115,0,3.007021930036074,2.158608800614732,71.78560219508728,0.0868363314157888,0.06233598343094576,0.080078125,,
0.8337599999997765,1200,,,,-0.125,0.11328125,-1.02734375,0.01849495982236082,0.18744566920721925,15.174716860781777,0.1958064046046231,1115,0,2.9713067494028325,2.1586458414601704,72.64971352735664,0.08683484136537449,0.06308526349387916,0.080078125,,
0.8430949999978766,1200,,,,-0.0625,0.046875,-1.001953125,0.01849495982236082,0.18744566920721925,15.1748813267575,0.19405691604898648,1115,0,2.944790671679913,2.158660672819852,73.30438436863162,0.08683424475527204,0.06365330853900296,0.080078125,,
0.8530499999998138,1200,,,,-0.03125,0.06640625,-0.97265625,0.01849495982236082,0.18744566920721925,15.175112304268481,0.19269300682049775,1115,0,2.9241380187482258,2.1586670021814824,73.82233630359116,0.08683399015123335,0.06410288023527069,0.080078125,,
0.8614799999995157,1200,,,,0,-0.0546875,-1.01953125,0.012080298952801289,0.18744566920721925,15.175377347997877,0.19132050889358268,1114,0,2.903360916871101,1.4098781005544465,48.56020801140515,0.13295168506660585,0.06456161482301209,0.080078125,,
0.8697299999985844,1200,,,,-0.0625,0.046875,-1.029296875,0.012080298952801289,0.18744566920721925,15.175506462311763,0.19046193518835092,1114,0,2.8903563282752236,1.4098462641566294,48.77759362624794,0.1329546873107823,0.06485209708350202,0.080078125,,
0.8782400000002235,1200,,,,-0.0625,0.11328125,-0.9375,0.012080298952801289,0.18744566920721925,15.175533365164917,0.18849076340558843,1114,0,2.8604478690869137,1.4098330814334703,49.28714473945314,0.1329559305110296,0.06553018191065792,0.080078125,,
0.8867699999986216,1200,,,,-0.03125,0.0390625,-0.935546875,0.012080298952801289,0.18744566920721925,15.175556469288729,0.18636877421269782,1114,0,2.828249857176917,1.4098285501815935,49.848090563994454,0.13295635783732374,0.06627620566533768,0.080078125,,
0.8950599999986589,1200,,,,-0.0625,0.068359375,-1.041015625,0.012080298952801289,0.18744566920721925,15.175580578498638,0.18533562487782404,1115,0,2.8125757093998156,1.4111398551371714,50.172510927298696,0.1328328078360443,0.066645555026577,0.08203125,,
0.9034099999992177,1200,,,,-0.0625,0.078125,-1.03515625,0.012080298952801289,0.18744566920721925,15.175733930722064,0.1840111845766738,1116,0,2.792504777412589,1.4122203897592402,50.571816427391795,0.13273117324072595,0.0671245652732233,0.08203125,,
0.9111149999983609,1200,,,,-0.0625,0.037109375,-0.970703125,0.012080298952801289,0.18744566920721925,15.175843191731838,0.1828949912301893,1117,0,2.7755857074625223,1.4126352592955493,50.89503291134179,0.13269219210958555,0.06753373484495444,0.08203125,,
0.919359999999404,1200,,,,0,0.0234375,-0.9453125,0.012080298952801289,0.18744566920721925,15.175850977022675,0.18148295459219432,1117,0,2.754158273760914,1.4128034502739804,51.2971045903161,0.1326763954114555,0.06805914932087569,0.080078125,,
0.9285800000000745,1200,,,,-0.0625,0.0390625,-0.94921875,0.012080298952801289,0.18744566920721925,15.176008656460926,0.17899226931737147,1117,0,2.7163882286000147,1.4128736204902732,52.01294887139335,0.1326698060525575,0.06900547838989343,0.080078125,,
0.9364499999992549,1200,,,,-0.0625,0.064453125,-1.041015625,0.012080298952801289,0.21383903584455458,15.176203345639232,0.17715510690169642,1116,0,2.688541926058601,1.4120080900917724,52.519474455872604,0.1514432086792479,0.07953717729745145,0.080078125,,
0.9444249999998138,1200,,,,-0.03125,0.052734375,-0.97265625,0.012080298952801289,0.21383903584455458,15.176323337249668,0.17604467365045864,1116,0,2.6717108891199572,1.4116657357010822,52.83751851481486,0.15147993638760007,0.08003823943502796,0.080078125,,
0.9533649999992921,1200,,,,0,0.0234375,-0.9765625,0.012080298952801289,0.21383903584455458,15.176378789423875,0.17580679386864914,1116,0,2.6681104975047822,1.411521367866529,52.903407455822546,0.15149542947958747,0.08014624433453446,0.080078125,,
0.9623049999987706,1200,,,,-0.03125,0.025390625,-0.99609375,0.012080298952801289,0.21383903584455458,15.176210497800971,0.1753399054515638,1116,0,2.6609953137974522,1.4114693103451088,53.04290853225253,0.15150101690292525,0.08036054582125109,0.080078125,,
0.9733749999990686,1200,,,,-0.0625,0.060546875,-1.009765625,0.012080298952801289,0.21383903584455458,15.1761033788471,0.17526902057942959,1116,0,2.6599007754227033,1.4114225058464396,53.06297584059843,0.15150604086216823,0.08039361385973953,0.080078125,,
0.9820449999989942,1200,,,,-0.03125,0.05078125,-0.90625,0.012080298952801289,0.21383903584455458,15.176095896557529,0.1745042229636042,1116,0,2.648292822049914,1.4113293175768982,53.29204179485172,0.15151604461224782,0.08074599382066529,0.080078125,,
0.9898849999988452,1200,,,,-0.03125,-0.009765625,-0.970703125,0.012080298952801289,0.21383903584455458,15.176002424074978,0.1744762679856017,1116,0,2.647852265893047,1.4113087611947626,53.30013231379309,0.1515182515153709,0.08075942853723851,0.080078125,,
0.9982849999992177,1200,,,,-0.03125,0.04296875,-1.025390625,0.012080298952801289,0.21383903584455458,15.175931737941122,0.17387007314516675,1116,0,2.6386403613218805,1.411299181574243,53.485848327857155,0.15151927999138098,0.08104137228365126,0.080078125,,
1.0061949999993667,1200,,,,-0.0625,0.00390625,-0.9765625,0.012080298952801289,0.21383903584455458,15.175833810628484,0.17321012573219036,1116,0,2.628608082429785,1.4112957153731926,53.68984919458381,0.15151965212904267,0.081350672728241,0.080078125,,
1.0144649999979884,1200,,,,-0.03125,0.06640625,-0.94140625,0.008826429091143015,0.21383903584455458,15.175841870661783,0.17261313729097424,1116,0,2.619549676326658,1.0312219087841217,39.36638110372404,0.20736471366932538,0.08163198345771278,0.080078125,,
1.0239949999991804,1200,,,,-0.03125,0.01953125,-0.97265625,0.008826429091143015,0.21383903584455458,15.175948764488687,0.17170910390306346,1116,0,2.6058485632291557,1.0312476220682816,39.57434966176101,0.20735954320619585,0.08206119068545036,0.080078125,,
1.0324549999982118,1200,,,,-0.03125,0.048828125,-1.044921875,0.008826429091143015,0.21383903584455458,15.176146243340257,0.17058568599035906,1116,0,2.5888333176102085,1.031259039483309,39.834895219723144,0.2073572474590809,0.0826005422558269,0.080078125,,
1.0406199999991805,1200,,,,-0.0625,0,-0.94921875,0.008826429091143015,0.21383903584455458,15.176199225940863,0.1690866495127542,1116,0,2.566092679452394,1.0312619802027774,40.18802549340694,0.20735665616462207,0.08333254584171447,0.080078125,,
1.0482999999988825,1200,,,,0,0.0546875,-0.962890625,0.008826429091143015,0.21383903584455458,15.176189490444088,0.16836418401134426,1115,0,2.5551267599601575,1.0308303896973685,40.34361057349039,0.20744347273981076,0.08369018680227396,0.080078125,,
1.0566249999990687,1200,,,,-0.0625,-0.00390625,-0.94921875,0.008826429091143015,0.21383903584455458,15.176245885521414,0.1689567393643442,1115,0,2.5641290206092426,1.030442470868652,40.18684171453341,0.20752156659875498,0.08339636349256169,0.080078125,,
1.0655949999997392,1200,,,,-0.0625,0.08984375,-1.029296875,0.008826429091143015,0.21383903584455458,15.17601343951426,0.16708722653896693,1115,0,2.535717995526526,1.0302816764844442,40.630767234450005,0.20755395415186076,0.08433076399733963,0.080078125,,
1.0735349999992176,1200,,,,-0.09375,0.05078125,-0.9609375,0.008826429091143015,0.21383903584455458,15.176012759520757,0.16817050628528737,1115,0,2.552157749160587,1.0302268649909105,40.36689602473654,0.2075649967120992,0.08378754640652088,0.080078125,,
1.0822399999992922,1200,,,,0.03125,-0.015625,-0.92578125,0.008826429091143015,0.2211065816777543,15.175646474815926,0.16812642378781942,1115,0,2.5514271704790303,1.0302041274256755,40.37756355915324,0.21462404953692646,0.08665996201500101,0.080078125,,
1.0906649999991058,1200,,,,-0.0625,0.01953125,-0.94921875,0.008826429091143015,0.2211065816777543,15.175564829966042,0.16679763187064736,1115,0,2.531248275937819,1.0308498970428626,40.72496194238141,0.21448959961293057,0.08735080781273225,0.080078125,,
1.0996699999999255,1200,,,,-0.0625,0.0625,-1.029296875,0.008826429091143015,0.2211065816777543,15.175661958675517,0.16635229061364382,1116,0,2.524506128404009,1.0311154694845226,40.84424505383923,0.2144343560166839,0.08758409385107642,0.080078125,,
1.1091550000002608,1200,,,,-0.0625,0.07421875,-0.951171875,0.008826429091143015,0.2211065816777543,15.175825135964615,0.16570021945702304,1116,0,2.514637555470743,1.031210311591527,41.008307910938015,0.21441463413656872,0.0879278133728353,0.080078125,,
1.1168149999994785,1200,,,,0.03125,-0.025390625,-0.9140625,0.008826429091143015,0.2211065816777543,15.17583462413566,0.1648469020594952,1116,0,2.5016893239559876,1.0312446851392318,41.22193252631775,0.21440748724722097,0.08838290972442277,0.08203125,,
1.128414999999106,1200,,,,-0.0625,0.01953125,-0.94921875,0.008826429091143015,0.2211065816777543,15.176018595251602,0.16409614915456522,1116,0,2.490326210978862,1.0312149238964117,41.408829066256196,0.2144136751263358,0.08878619222774226,0.08203125,,
1.1477649999996646,1200,,,,-0.0625,0.07421875,-0.96484375,0.008826429091143015,0.2211065816777543,15.176109371744698,0.16493351017658348,1116,0,2.503048989505598,1.0311613330483098,41.19621059642083,0.21442481849481398,0.0883348997981167,0.08203125,,
1.162109999999404,1200,,,,-0.0625,0.0625,-1.03125,0.007101640718692557,0.2211065816777543,15.175984574714613,0.16589535541305203,1116,0,2.517625354765276,0.8296572677941355,32.95396061307487,0.26650351929734184,0.0878234647817044,0.08203125,,
1.169714999999851,1200,,,,-0.0625,0.048828125,-0.998046875,0.007101640718692557,0.2211065816777543,15.17598532064723,0.1659638866486054,1116,0,2.5186655075367965,0.83001317385181,32.95448210046541,0.26638924374136563,0.08778719564631352,0.08203125,,
1.1775849999990313,1200,,,,-0.0625,0.1015625,-0.91796875,0.007101640718692557,0.2211065816777543,15.175922022608436,0.16582283250806473,1116,0,2.51651437571045,0.8301620383799327,32.988567297397836,0.266341474863444,0.08786223667620915,0.08203125,,
1.1849150000000372,1200,,,,0.03125,-0.0546875,-0.947265625,0.007101640718692557,0.2211065816777543,15.175834982130484,0.1658927974473303,1116,0,2.5175617187846817,0.8302198781109598,32.97714101371612,0.2663229193943766,0.08782568468052908,0.08203125,,
1.193724999998696,1200,,,,-0.0625,0.078125,-0.984375,0.007101640718692557,0.2211065816777543,15.175914072544014,0.16574157268252843,1116,0,2.5152798652783597,0.8302462409993051,33.00810587562286,0.26631446281722987,0.08790535984880751,0.08203125,,
1.2009599999999627,1200,,,,-0.03125,0.00390625,-1.015625,0.007101640718692557,0.2211065816777543,15.176008905062073,0.1655195431608407,1117,0,2.5119260609707244,0.8305569951633668,33.06454788093568,0.2662148208555677,0.08802272690793633,0.08203125,,
1.2158650000002236,1200,,,,-0.03125,0.072265625,-0.94921875,0.007101640718692557,0.2211065816777543,15.176065593131469,0.1647948179509803,1117,0,2.5009369666322363,0.830955622858771,33.22577233834632,0.266087111748606,0.08840949797127297,0.08203125,,
1.2256349999988452,1200,,,,-0.03125,0.05078125,-0.98828125,0.007101640718692557,0.2211065816777543,15.176285015854928,0.16384909152421184,1117,0,2.486620512560339,0.8310108366342781,33.419286635684955,0.2660694324676559,0.08891850628630614,0.08203125,,
1.240599999998696,1200,,,,-0.03125,0.04296875,-1.017578125,0.007101640718692557,0.22431149672747386,15.17637508408276,0.16340576089128037,1117,0,2.4799071181860124,0.8310339000713196,33.510686508259205,0.26991858780757727,0.09045157178771755,0.08203125,,
1.2488049999987707,1200,,,,-0.041015625,0.0546875,-0.93359375,0.007101640718692557,0.22431149672747386,15.176397974306374,0.16333874281364172,1118,0,2.478893765562702,0.8313137048140569,33.53567290227748,0.2698277382274679,0.09048854769157716,0.08203125,,
1.2563699999991804,1200,,,,0,-0.04296875,-0.95703125,0.007101640718692557,0.22431149672747386,15.176506591216397,0.16270040569244823,1118,0,2.4692237793850222,0.831409939989104,33.67090285337251,0.26979650583731724,0.0908429193822766,0.08203125,,
1.2643149999985472,1200,,,,-0.09375,0.09765625,-1.001953125,0.007101640718692557,0.22431149672747386,15.176676367963763,0.16324356155984107,1118,0,2.4774947029474776,0.8314489469288879,33.560069611439026,0.2697838484924544,0.09053964735448689,0.08203125,,
1.272654999998398,1200,,,,0,-0.0625,-0.94140625,0.007101640718692557,0.22431149672747386,15.17684037563641,0.1634470275622434,1118,0,2.480609447184413,0.8314645889170805,33.51856092706672,0.26977877316413745,0.09042596245131454,0.08203125,,
1.2840149999987334,1200,,,,-0.0625,0.06640625,-0.92578125,0.007101640718692557,0.22431149672747386,15.176572792769143,0.16534262717029266,1118,0,2.5093344169976355,0.8310993531076344,33.12031060818218,0.26989733043195335,0.08939083416225477,0.08203125,,
1.3052499999990688,1200,,,,-0.0625,0.068359375,-1.025390625,0.007101640718692557,0.22431149672747386,15.176227131446838,0.1703142582734992,1117,0,2.5847278672825227,0.8306480224096193,32.13676893896489,0.27004397852747625,0.08678340941296302,0.08203125,,
1.3268349999999627,1200,,,,-0.01953125,0.046875,-0.92578125,0.006497454483485974,0.22431149672747386,15.176473672298396,0.16844415125268034,1120,0,2.556388226738952,0.7619823386559395,29.806988261245422,0.29437886595001256,0.08774547401730765,0.08203125,,
1.3338549999985845,1200,,,,-0.0625,0.0703125,-0.998046875,0.006497454483485974,0.22431149672747386,15.176365646752483,0.16669193767218302,1121,0,2.5297777964787245,0.762812171493202,30.153327005833624,0.29405862296138374,0.0886684581703974,0.08203125,,
1.3420949999997391,1200,,,,-0.03125,0.041015625,-1.021484375,0.006497454483485974,0.22431149672747386,15.176524529334609,0.16586768191452003,1122,0,2.517294943199584,0.7631711755911271,30.317113918367696,0.2939202945574164,0.08910815053017382,0.08203125,,
1.3497799999983982,1200,,,,-0.0625,0.03515625,-0.9921875,0.006497454483485974,0.22431149672747386,15.176301596489393,0.16551357402400885,1122,0,2.5118839177012307,0.7633368717560481,30.38901863166597,0.29385649380652573,0.08930010465322545,0.08203125,,
1.3578399999989197,1200,,,,-0.0625,0.111328125,-0.92578125,0.006497454483485974,0.22431149672747386,15.176286987333704,0.1656035400490729,1123,0,2.513246849903141,0.7638831267750228,30.39427371825662,0.2936463561834082,0.08925167726207185,0.08203125,,
1.3770349999992177,1200,,,,-0.0625,0.06640625,-1.0078125,0.006497454483485974,0.22431149672747386,15.1761562703157,0.16364693113577938,1123,0,2.4835314000741797,0.764202218182878,30.770789455694114,0.29352374461937875,0.09031957345929831,0.08203125,,
1.3867849999982864,1200,,,,-0.0625,0.03515625,-1.025390625,0.006497454483485974,0.2280193157110108,15.17614690768471,0.1638706766759056,1123,0,2.486925463095246,0.7642303888333647,30.729927381184872,0.29836462805292724,0.09168723353180688,0.08203125,,
1.394849999998696,1200,,,,-0.0625,0.0703125,-0.984375,0.006497454483485974,0.2280193157110108,15.176074302165285,0.16425525049539005,1121,0,2.4927498860388106,0.762642948268271,30.594443210673443,0.29898567373995,0.0914730021604184,0.08203125,,
1.4037799999983982,1200,,,,0,-0.005859375,-0.97265625,0.006497454483485974,0.2280193157110108,15.175997261312169,0.16466331720142663,1120,0,2.4989300508874277,0.7619811730652558,30.49229700505857,0.29924534066077685,0.09124677804808339,0.08203125,,
1.412844999998808,1200,,,,-0.0625,0.095703125,-1.001953125,0.006497454483485974,0.2280193157110108,15.17599739241777,0.16457317818737202,1120,0,2.497562123033463,0.7617425150600029,30.499442157411234,0.29933909582695356,0.09129675438625948,0.08203125,,
1.4211349999988452,1200,,,,-0.0625,0.02734375,-1.0546875,0.006497454483485974,0.2280193157110108,15.1760629751432,0.16385833166608996,1119,0,2.486724360366482,0.7616619930531885,30.629128229593494,0.29937074160281457,0.09169464832741106,0.083984375,,
1.4298199999993666,1200,,,,-0.03125,0.0546875,-0.931640625,0.006497454483485974,0.2280193157110108,15.175986844439702,0.1631022829153418,1119,0,2.4752380998213095,0.7614590840925554,30.76306413300304,0.2994505160874738,0.09212015431059815,0.08203125,,
1.4433949999986218,1200,,,,-0.03125,0.041015625,-0.990234375,0.006497454483485974,0.2280193157110108,15.175987600656024,0.16405239860235854,1119,0,2.4896571670472727,0.7610455587117106,30.56828742466212,0.29961322696239023,0.0915866323801687,0.08203125,,
1.4611799999978394,1200,,,,-0.0625,0.01953125,-0.89453125,0.006951498963766163,0.2280193157110108,15.175839345693863,0.16350912814208055,1118,0,2.4813882602386856,0.8140034502098326,32.804356466631035,0.280120822156506,0.09189183303747779,0.08203125,,
1.468984999999404,1200,,,,0,0.064453125,-0.994140625,0.006951498963766163,0.2280193157110108,15.175847015499722,0.16452442079459337,1118,0,2.49679744029245,0.8136179368149216,32.58646150805179,0.2802535507066626,0.091324715425975,0.08203125,,
1.4765799999982119,1200,,,,-0.0625,0.05859375,-1.009765625,0.006951498963766163,0.2280193157110108,15.175755421832834,0.1646654509431942,1117,0,2.498922609939728,0.8132703535621322,32.54483953713747,0.28037332814639554,0.09124704975017632,0.08203125,,
1.4846549999983982,1200,,,,-0.0625,0.1171875,-1.0625,0.006951498963766163,0.2280193157110108,15.175767187510601,0.16395877441823187,1117,0,2.4882001889206555,0.8131365752662432,32.679708766478704,0.2804194555340855,0.09164026139308439,0.08203125,,
1.4929099999992177,1200,,,,-0.0625,0.04296875,-0.99609375,0.006951498963766163,0.2280193157110108,15.175778761153477,0.16391240629196763,1117,0,2.487498414095202,0.813082151416472,32.68674049435408,0.2804382254779273,0.09166611500894167,0.08203125,,
1.5003699999991804,1200,,,,0,0.03125,-0.97265625,0.006951498963766163,0.2280193157110108,15.175983150067193,0.16407977564789483,1117,0,2.4900719104992572,0.8130612337536521,32.65211861253574,0.2804454403247295,0.0915713778182788,0.08203125,,
1.5088699999991804,1200,,,,-0.0625,0.02734375,-0.9765625,0.006951498963766163,0.2280193157110108,15.17591807000306,0.1644570482567324,1117,0,2.4957866903787105,0.8130528097763369,32.57701521170322,0.280448345998259,0.09136170033682292,0.08203125,,
1.5175149999996647,1200,,,,-0.0625,0.068359375,-1.029296875,0.006951498963766163,0.2280193157110108,15.175922579082863,0.16319316750260685,1117,0,2.476606875454863,0.8130493358391752,32.82916412358936,0.28044954427724184,0.09206924117463411,0.08203125,,
1.5260999999986962,1200,,,,-0.0625,0.021484375,-0.931640625,0.006951498963766163,0.2280193157110108,15.175926381445393,0.16382743197655505,1117,0,2.4862330469374525,0.8130481470305672,32.70200868868997,0.28044995434008196,0.09171276843572067,0.08203125,,
1.5345399999981746,1200,,,,0,0.1015625,-0.98046875,0.006951498963766163,0.23953289580524917,15.175821395121119,0.16189178035388424,1117,0,2.4568407439887254,0.8130476566337284,33.09321772780969,0.2946111385364424,0.0974963055262439,0.08203125,,
1.5427849999992176,1200,,,,-0.03125,-0.009765625,-0.966796875,0.006951498963766163,0.23953289580524917,15.175764728937503,0.162587297707536,1117,0,2.467386577923286,0.8130474886842177,32.95176750813534,0.294611199393646,0.09707959747712323,0.08203125,,
1.5528899999987333,1200,,,,-0.03125,0.05859375,-1.021484375,0.006951498963766163,0.23953289580524917,15.17592499817419,0.16309075574209095,1117,0,2.475053077037519,0.8131564648150137,32.854102094178536,0.2945717167233503,0.09677889255286387,0.08203125,,
1.5632949999999255,1200,,,,-0.0625,0.04296875,-0.904296875,0.006951498963766163,0.23953289580524917,15.175851626320336,0.16232738466132934,1117,0,2.4634563045089615,0.8131963566554815,33.010382817306564,0.29455726632913287,0.09723448123144002,0.08203125,,
1.5720750000001862,1200,,,,0,0.0390625,-0.994140625,0.006951498963766163,0.23953289580524917,15.176050209448272,0.16038816322231217,1117,0,2.434058818062994,0.8132104218290589,33.40964547751585,0.294552171707903,0.09840883631393414,0.08203125,,
1.580344999998808,1200,,,,-0.0625,0.04296875,-0.990234375,0.006951498963766163,0.23953289580524917,15.176047444966313,0.1600578662496249,1117,0,2.42904577214438,0.813214597647425,33.47876795790114,0.2945506591964799,0.09861193171085769,0.08203125,,
1.5879150000000373,1200,,,,-0.03125,0.015625,-0.97265625,0.006951498963766163,0.23953289580524917,15.175956563921892,0.1598040839808677,1116,0,2.4251798372309743,0.8126331067944109,33.508158624733596,0.2947614289923939,0.09876912719130282,0.08203125,,
1.5985249999994413,1200,,,,-0.0625,0.07421875,-0.89453125,0.006951498963766163,0.23953289580524917,15.176025013416398,0.15974854794497334,1116,0,2.424347959469864,0.812369423580505,33.5087799755505,0.2948571042340711,0.09880301830007447,0.08203125,,
1.607119999998249,1200,,,,0,0.01171875,-0.96875,0.006951498963766163,0.23953289580524917,15.176110696015755,0.1599631687905697,1116,0,2.4276187568511385,0.8122523884212034,33.45881169062868,0.2948995893638868,0.09866989828170016,0.08203125,,
1.6161849999986588,1200,,,,-0.09375,0.111328125,-1.001953125,0.007226792861011576,0.23953289580524917,15.175879803745412,0.15928221177235055,1116,0,2.4172477007319144,0.844384430107493,34.931646841646526,0.28367753746330426,0.09909323555576097,0.08203125,,
1.6246949999984355,1200,,,,-0.09375,0.048828125,-1.005859375,0.007226792861011576,0.23953289580524917,15.175957695941667,0.15994783320606806,1116,0,2.4273615502928227,0.8443353297915791,34.784077785599074,0.283694034056797,0.09868035347942021,0.08203125,,
1.6329699999988079,1200,,,,0,0.07421875,-0.92578125,0.007226792861011576,0.23953289580524917,15.175959793122479,0.16031900633531385,1116,0,2.4329947942180707,0.8443000258082517,34.70208928579305,0.2837058965809499,0.09845187354058091,0.08203125,,
1.6405249999985099,1200,,,,-0.03125,0.015625,-0.9921875,0.007226792861011576,0.23953289580524917,15.175832088376476,0.16087276896735353,1116,0,2.441378129440739,0.8442865281435461,34.58237451881131,0.28371043220592956,0.09811380421439281,0.08203125,,
1.6520299999993295,1200,,,,-0.0625,0.052734375,-1.02734375,0.007226792861011576,0.23953289580524917,15.175753450375886,0.159845609373871,1116,0,2.4257775579829586,0.84428027919499,34.804521808545864,0.28371253209140523,0.09874479010533081,0.08203125,,
1.6598249999983237,1200,,,,-0.0625,0.05859375,-0.955078125,0.007226792861011576,0.23953289580524917,15.175637519450868,0.15958215313172577,1116,0,2.4217609105005713,0.8442786966018507,34.86218201562023,0.2837130639081011,0.09890856474173512,0.08203125,,
1.6679150000000373,1200,,,,0,0.017578125,-0.94921875,0.007226792861011576,0.23953289580524917,15.17565540159525,0.15964496878157747,1116,0,2.4227170328276513,0.8442780506566554,34.84839703592063,0.28371328097295356,0.0988695305970919,0.08203125,,
1.6757849999992176,1200,,,,-0.0625,0.01953125,-0.96875,0.007226792861011576,0.23953289580524917,15.175737265561304,0.16002161382418298,1116,0,2.4284459682069137,0.8442777982364008,34.76617595324916,0.28371336579690454,0.09863628795583727,0.08203125,,
1.6859549999991432,1200,,,,-0.03125,0.037109375,-1.037109375,0.007226792861011576,0.2444173467496712,15.17575339773791,0.16087046488663226,1116,0,2.4413305040989868,0.8442776864940748,34.582686984680485,0.2894987640436551,0.10011645139373598,0.08203125,,
1.694144999999553,1200,,,,-0.0625,0.072265625,-0.921875,0.007226792861011576,0.2444173467496712,15.175831331374596,0.16033472606457866,1116,0,2.433212759318196,0.8442776537445356,34.6980612571302,0.28949877527331525,0.10045046238297661,0.08203125,,
1.701699999999255,1200,,,,0,-0.015625,-0.9609375,0.007226792861011576,0.2444173467496712,15.175839535523266,0.16004282739057513,1116,0,2.428784267290816,0.8443306891808875,34.76351113401665,0.2894805908177853,0.10063361741975799,0.08203125,,
1.7096599999982864,1200,,,,-0.03125,0.046875,-1.01171875,0.007226792861011576,0.2444173467496712,15.175847395873003,0.1616712234664321,1116,0,2.453497815630656,0.8443517290202728,34.41420341363693,0.28947337744339807,0.09961995694169602,0.08203125,,
1.7174500000001862,1200,,,,-0.0625,0.064453125,-1.0078125,0.007226792861011576,0.2444173467496712,15.175790157798188,0.16194733833237843,1116,0,2.4576788231461215,0.8443600347939636,34.35599586251397,0.2894705299609694,0.09945048329658791,0.08203125,,
1.7258199999993666,1200,,,,-0.0625,0.05078125,-0.8828125,0.007226792861011576,0.2444173467496712,15.176001283629281,0.16178372754115436,1116,0,2.4552300568348886,0.8443633984095473,34.39039840926523,0.2894693768228923,0.09954967196220993,0.08203125,,
1.7339099999992178,1200,,,,-0.03125,0.041015625,-0.94140625,0.007226792861011576,0.2444173467496712,15.175903350421912,0.16014581834039676,1116,0,2.4303574611080863,0.8443646859297783,34.74240721547202,0.28946893542868773,0.10056847630892644,0.08203125,,
1.7419899999983608,1200,,,,-0.03125,0.033203125,-1.005859375,0.007226792861011576,0.2444173467496712,15.175810211368109,0.15890504079805115,1116,0,2.4115127407809305,0.8443120083469633,35.01171667347468,0.2894869957235404,0.10135436674927974,0.08203125,,
1.7529550000000744,1200,,,,-0.0625,0.03125,-1.00390625,0.007226792861011576,0.2444173467496712,15.17608229254312,0.15910805109689785,1116,0,2.4146368768526774,0.8442911465261534,34.965553397272394,0.28949414873687757,0.10122323115857212,0.08203125,,
1.7623199999993666,1200,,,,-0.041015625,0.0390625,-0.9609375,0.006964087692022376,0.2444173467496712,15.17617398243431,0.16066644075164116,1116,0,2.43830185798538,0.8135904190777626,33.3670917902668,0.30041817236088897,0.10024080732629975,0.08203125,,
1.7696049999995158,1200,,,,-0.03125,-0.009765625,-0.98046875,0.006964087692022376,0.2444173467496712,15.175975556431187,0.16015923472203164,1116,0,2.430572631278277,0.8135882781100123,33.47311113604259,0.3004189629150746,0.10055957333030949,0.08203125,,
1.7783700000001117,1200,,,,-0.0625,0.078125,-1.0390625,0.006964087692022376,0.2444173467496712,15.176042575621299,0.16008657520040925,1116,0,2.4294806810268117,0.8135873966014056,33.4881196197677,0.30041928841409604,0.1006047706649674,0.08203125,,
1.7857449999991803,1200,,,,-0.0625,0.01953125,-0.9765625,0.006964087692022376,0.2444173467496712,15.176139928360444,0.16109554753532151,1116,0,2.4448085712318806,0.8135870489690414,33.27814940370135,0.30041941677831663,0.09997402235321644,0.08203125,,
1.7937399999992922,1200,,,,-0.0625,0.12109375,-0.9765625,0.006964087692022376,0.2444173467496712,15.176133048285907,0.16204170616529745,1116,0,2.4591664921358047,0.8135869142642445,33.08384840416551,0.30041946651846835,0.09939032087957285,0.08203125,,
1.8020649999994784,1200,,,,-0.03125,0.046875,-0.99609375,0.006964087692022376,0.2444173467496712,15.17612663547483,0.16229938441002653,1116,0,2.463076010666172,0.8135868614880171,33.03133390787934,0.3004194860062537,0.0992325635470605,0.08203125,,
1.8099949999991805,1200,,,,-0.0625,0.1015625,-1.05078125,0.006964087692022376,0.2444173467496712,15.176252182717946,0.16233532560630257,1116,0,2.4636418395648776,0.8135868402230806,33.02374668092072,0.300419493858398,0.09920977263190156,0.08203125,,
1.8180149999987334,1200,,,,-0.0625,0.015625,-1.0390625,0.006964087692022376,0.2444173467496712,15.176042164025795,0.16194042420039292,1116,0,2.457614705725386,0.8137929498477351,33.11312175793386,0.3003434065082561,0.09945307788900509,0.08203125,,
1.8261149999992923,1200,,,,-0.03125,0.052734375,-0.931640625,0.006964087692022376,0.2444173467496712,15.175974944859068,0.1613569121272454,1116,0,2.448748455622902,0.8138732701276138,33.23629539239808,0.3003137659396862,0.09981317035174908,0.08203125,,
1.834984999999404,1200,,,,0,-0.0078125,-0.9609375,0.006964087692022376,0.23413659163576314,15.175976347881864,0.16097344781582196,1116,0,2.4429292366899094,0.8139069016152508,33.316843132061756,0.2876699917043386,0.09584255987414958,0.08203125,,
1.8421749999998138,1200,,,,-0.0625,0.05859375,-1.00390625,0.006964087692022376,0.23413659163576314,15.175977466605245,0.16086361917094416,1116,0,2.441262659734816,0.8139182257237496,33.340051406519365,0.2876659893290447,0.09590798872137601,0.08203125,,
1.849,1200,,,,-0.03125,0.009765625,-0.970703125,0.006964087692022376,0.23413659163576314,15.175807101888724,0.16225694472524585,1116,0,2.4623800940921523,0.813874885661333,33.05236618887622,0.28768130797586905,0.09508547936913302,0.08203125,,
1.8566649999991058,1200,,,,-0.0625,0.09375,-0.96484375,0.006964087692022376,0.23413659163576314,15.175815763338305,0.162485698039553,1116,0,2.4658530176256765,0.8137577657146002,33.00106534728304,0.28772271245873327,0.09495156035748184,0.08203125,,
1.8642399999983608,1200,,,,0.0625,0.00390625,-0.98046875,0.006964087692022376,0.23413659163576314,15.17570806951922,0.16232077027612243,1116,0,2.463332623329927,0.8137089611663995,33.032849622493515,0.28773996946051006,0.09504871141569907,0.08203125,,
1.8721049999985844,1200,,,,-0.03125,0.017578125,-0.970703125,0.006964087692022376,0.23413659163576314,15.175722529328286,0.1645024324367972,1116,0,2.4964432700604076,0.8136861916277515,32.5938186293359,0.28774802134392974,0.09378806818634322,0.08203125,,
1.8803699999991805,1200,,,,-0.0625,0.0625,-1.02734375,0.006964087692022376,0.23413659163576314,15.17579957851708,0.16609222234363127,1116,0,2.5205822778374447,0.8136774337279549,32.28132804401277,0.2877511184782893,0.0928898825062924,0.08203125,,
1.888554999999702,1200,,,,-0.0625,0.05859375,-0.9765625,0.006964087692022376,0.23413659163576314,15.175592360303217,0.1687646943405526,1116,0,2.5611042061233977,0.8136736571708985,31.770423679968545,0.28775245403647953,0.09142017379689629,0.08203125,,
1.8958399999989197,1200,,,,-0.0625,0.107421875,-0.962890625,0.006964087692022376,0.23413659163576314,15.175433424772065,0.17100772239222395,1117,0,2.5951163062850977,0.8146441088172275,31.391429618944073,0.28740966650541844,0.0902220031790903,0.08203125,,
1.9178199999984353,1200,,,,-0.08203125,0.08984375,-1.01171875,0.0072867559967987675,0.23413659163576314,15.175803770945112,0.16910142824192767,1118,0,2.56625009238605,0.8530786937204484,33.24222749183702,0.27446071899257757,0.09123685658324415,0.08203125,,
1.9267199999997393,1200,,,,0,0,-0.96875,0.0072867559967987675,0.23413659163576314,15.175614882959326,0.16879970974199793,1118,0,2.561639387399878,0.8531211832719224,33.303718996055096,0.2744470495244224,0.09140107416657779,0.08203125,,
1.934949999999255,1200,,,,-0.0625,0.06640625,-0.92578125,0.0072867559967987675,0.23413659163576314,15.175563111263301,0.16777284736473458,1122,0,2.5460474335398744,0.8562891080998094,33.63209564832323,0.2734317059752582,0.09196081288644077,0.08203125,,
1.9430599999995901,1200,,,,0,0.0546875,-1,0.0072867559967987675,0.23413659163576314,15.1755192344597,0.1669025757238236,1124,0,2.532833248177752,0.8573683258531978,33.850168639014505,0.27308752210173554,0.09244058676354348,0.08203125,,
1.9513699999991805,1200,,,,-0.03125,0.029296875,-0.974609375,0.0072867559967987675,0.23413659163576314,15.175639660698563,0.1656611891974214,1124,0,2.5140145130228766,0.8577928949474185,34.12044323944652,0.2729523559997724,0.09313255369963436,0.08203125,,
1.959309999998659,1200,,,,-0.09375,0.080078125,-1.01953125,0.0072867559967987675,0.23413659163576314,15.175788270656083,0.16617057604140112,1124,0,2.52176947881726,0.8579626032206848,34.02224550766946,0.2728983649833262,0.0928461517210431,0.08203125,,
1.968179999999702,1200,,,,-0.09375,0.0859375,-0.958984375,0.0072867559967987675,0.23413659163576314,15.1758001362887,0.16550943652222627,1124,0,2.5117381293310674,0.8574237831116434,34.136671060529494,0.2730698590912269,0.0932169595634235,0.083984375,,
1.9763599999984727,1200,,,,0,0.06640625,-0.9140625,0.0072867559967987675,0.23413659163576314,15.175945747235536,0.16560370520071377,1123,0,2.5131928456672195,0.8566608694907529,34.08655531419519,0.27331304600728057,0.09316300260818346,0.08203125,,
1.9842999999998137,1200,,,,0,0.00390625,-0.970703125,0.0072867559967987675,0.22984821723206408,15.175853438872682,0.16445075775565873,1122,0,2.495680597611432,0.8563784323364455,34.31442441617204,0.26839561641571513,0.09209841093128959,0.08203125,,
1.9925199999995529,1200,,,,-0.125,0.109375,-0.96484375,0.0072867559967987675,0.22984821723206408,15.17598869955555,0.1637565892813831,1122,0,2.485168148412029,0.8562632462534004,34.45494208512751,0.268431721480246,0.09248799417412956,0.083984375,,
2.000064999998547,1200,,,,-0.0625,0.015625,-1.009765625,0.0072867559967987675,0.22984821723206408,15.175989283657149,0.16489291437299447,1122,0,2.5024131014755597,0.8562165037550834,34.21563383160883,0.26844637568188134,0.09185062893753754,0.083984375,,
2.0083349999981,1200,,,,-0.09375,0.10546875,-0.927734375,0.0072867559967987675,0.22984821723206408,15.175920590896352,0.16569810521036768,1121,0,2.514621286734529,0.8555271935126708,34.02210893647739,0.268662666686655,0.09140470513177891,0.083984375,,
2.016949999999255,1200,,,,0.0625,0.00390625,-0.98046875,0.0072867559967987675,0.22984821723206408,15.175924738677105,0.16419239593007964,1121,0,2.491771443297962,0.8552665188948639,34.323634344363604,0.2687445517323224,0.09224289725700144,0.083984375,,
2.0253949999986216,1200,,,,-0.0625,-0.001953125,-0.94921875,0.0072867559967987675,0.22984821723206408,15.175928499648055,0.16370393493616725,1121,0,2.4843592117023117,0.855172090301269,34.42223999947637,0.26877422666014594,0.09251810935769206,0.083984375,,
2.0333849999988454,1200,,,,-0.03125,0.060546875,-1.03125,0.0072867559967987675,0.22984821723206408,15.175996287812874,0.1640897584728075,1121,0,2.4902255654514374,0.8551357049379611,34.339688613024855,0.26878566279575383,0.09230015964051688,0.083984375,,
2.0424649999989195,1200,,,,-0.0625,0.041015625,-0.927734375,0.0072867559967987675,0.22984821723206408,15.175886069272481,0.16211327007513882,1120,0,2.4602125169775064,0.8545175261954637,34.73348421319639,0.26898010887548285,0.09342616365290428,0.083984375,,
2.051019999998622,1200,,,,0.0625,0.00390625,-0.9375,0.0072867559967987675,0.22984821723206408,15.175946803477116,0.1618671584935212,1119,0,2.4564873865276766,0.8536994582311876,34.75285331865348,0.26923786236001057,0.09356783938425259,0.083984375,,
2.0614749999986963,1200,,,,-0.03125,-0.013671875,-0.951171875,0.007496062576806845,0.22984821723206408,15.175949452813304,0.1608554453209013,1118,0,2.4411341073997725,0.8779328640783993,35.96413902116786,0.2618061433129569,0.09415632534702977,0.083984375,,
2.0685349999982865,1200,,,,-0.03125,0.041015625,-1.021484375,0.007496062576806845,0.22984821723206408,15.175952531919156,0.16098866699408956,1118,0,2.4431563684792432,0.8778067212833622,35.92920750421546,0.2618437654430621,0.094078389822889,0.083984375,,
2.0774749999996276,1200,,,,-0.0625,0.05859375,-0.955078125,0.007496062576806845,0.22984821723206408,15.175954874723026,0.16193369582310269,1118,0,2.457498460508531,0.8777700844371155,35.7180319150832,0.2618546944208722,0.09352934332439074,0.083984375,,
2.085814999998547,1200,,,,0.03125,-0.01953125,-0.947265625,0.007496062576806845,0.22984821723206408,15.175957310096516,0.16293818696738468,1119,0,2.4727429696015544,0.8782816583825314,35.51851806595383,0.26170217155093406,0.09295273308131201,0.083984375,,
2.093054999998771,1200,,,,-0.0625,0.00390625,-0.953125,0.007496062576806845,0.22984821723206408,15.175959174514162,0.16427930583175968,1119,0,2.493096038520311,0.8784468400404235,35.23517852773111,0.2616529615172697,0.09219388811370555,0.083984375,,
2.1011199999991805,1200,,,,-0.09375,0.087890625,-1.0390625,0.007496062576806845,0.22984821723206408,15.176155432218444,0.16379661566002943,1119,0,2.485802898527952,0.8785217761408672,35.34157018889599,0.26163064305785505,0.09246437735195177,0.083984375,,
2.1107099999990315,1200,,,,-0.0625,-0.04296875,-0.94140625,0.007496062576806845,0.22984821723206408,15.176287865645222,0.16261221101374274,1119,0,2.467849724813604,0.8785528471264874,35.59993294133192,0.26162139020303266,0.09313703947245996,0.083984375,,
2.119414999999106,1200,,,,-0.0625,0.103515625,-0.955078125,0.007496062576806845,0.22984821723206408,15.17619605637798,0.16189838922083657,1119,0,2.4570016960272074,0.8786843773697602,35.762465235190064,0.26158222810343806,0.0935482533869276,0.0859375,,
2.127604999999516,1200,,,,-0.03125,0.015625,-0.970703125,0.007496062576806845,0.22984821723206408,15.176332221962177,0.16267821299653065,1119,0,2.468858605710474,0.8787886575948668,35.59493668702724,0.2615511878147466,0.09309897970682678,0.083984375,,
2.1352449999991805,1200,,,,-0.0625,0.1015625,-0.99609375,0.007496062576806845,0.23892006389739295,15.176404594448758,0.16231675396880552,1120,0,2.4633847306881886,0.8788214797350917,35.67536441981509,0.27186416059085405,0.09698853001765849,0.083984375,,
2.143285000000149,1200,,,,-0.0625,0.0703125,-1.041015625,0.007496062576806845,0.23892006389739295,15.176384708795457,0.1632062587985155,1120,0,2.4768809704095047,0.878836786755112,35.48159145531379,0.27185942543386965,0.09646005066520905,0.0859375,,
2.1516699999989943,1200,,,,-0.0625,0.064453125,-0.93359375,0.007496062576806845,0.23892006389739295,15.176365951042893,0.16245566734149466,1120,0,2.4654866583954105,0.8788427771624812,35.64581354232313,0.2718575723735182,0.09690584334895046,0.0859375,,
2.159249999999069,1200,,,,0,-0.01171875,-0.90625,0.007496062576806845,0.23892006389739295,15.176481049492889,0.16270123304277473,1120,0,2.469232180002797,0.8792200390121374,35.60702173463257,0.27174092183548915,0.09675884909985352,0.083984375,,
2.1674199999999253,1200,,,,0,0.00390625,-0.96875,0.007496062576806845,0.23892006389739295,15.176587259925087,0.16292769653166084,1120,0,2.4726864034713447,0.8795487910303164,35.57057578330754,0.2716393522837073,0.09662368166136184,0.083984375,,
2.176314999998547,1200,,,,-0.0625,0.076171875,-1.0390625,0.007496062576806845,0.23892006389739295,15.176406670202315,0.162933206458683,1121,0,2.4727406012970077,0.8796888291455488,35.57545941875716,0.27159610987610083,0.09662156385189537,0.083984375,,
2.184644999999553,1200,,,,-0.0625,0.041015625,-0.970703125,0.007496062576806845,0.23892006389739295,15.176585379201038,0.16185802679351555,1121,0,2.456452162940798,0.8797359107435376,35.813272654589035,0.27158157462898364,0.09726224980150412,0.083984375,,
2.193164999998175,1200,,,,0,0.0703125,-0.9140625,0.007496062576806845,0.23892006389739295,15.176482516973174,0.16145540385946988,1121,0,2.450325113944088,0.8797549739511392,35.903601891222905,0.27157568979048746,0.0975054544957191,0.083984375,,
2.2020149999987333,1200,,,,0,0.01171875,-1.015625,0.007496062576806845,0.23892006389739295,15.176382369395808,0.16178175013592647,1120,0,2.4552617004528723,0.8791710312514727,35.80763024525287,0.27175606952983616,0.09730940854627604,0.083984375,,
2.213149999999441,1200,,,,-0.09375,0.09765625,-1.01953125,0.006689456524988998,0.23892006389739295,15.176363532122142,0.163021043643516,1120,0,2.4740666217199485,0.7843929823808151,31.704602272816416,0.30459230164478907,0.09656977779009762,0.083984375,,
2.2296599999992175,1200,,,,-0.03125,0.048828125,-0.927734375,0.006689456524988998,0.23892006389739295,15.176389962637025,0.16226196353422664,1120,0,2.4625508346986122,0.7842929244324702,31.848801388437476,0.3046311606983835,0.09702137333811996,0.083984375,,
2.23839999999851,1200,,,,-0.03125,0.009765625,-0.98828125,0.006689456524988998,0.23892006389739295,15.176441422557327,0.1608838725264602,1118,0,2.441644667232003,0.7831868198534465,32.07619971751724,0.30506139511145086,0.09785210235699336,0.083984375,,
2.246204999999143,1200,,,,-0.0625,0.08984375,-1.05859375,0.006689456524988998,0.23892006389739295,15.17648510893293,0.16120105916510527,1117,0,2.4464654739634364,0.7828088945443615,31.99754514729199,0.30520867297561527,0.09765928292882327,0.0859375,,
2.2542349999984728,1200,,,,-0.03125,0.037109375,-0.986328125,0.006689456524988998,0.23892006389739295,15.176558701551008,0.16150051805281235,1117,0,2.4510220925594046,0.7826602170363632,31.931993571673374,0.3052666517305459,0.09747772760706046,0.083984375,,
2.263219999998808,1200,,,,0,0.0625,-0.99609375,0.006689456524988998,0.23892006389739295,15.176527790257904,0.16014430433719853,1117,0,2.430434485225013,0.7825970511853866,32.1998826112333,0.30529129075493544,0.09830343724540816,0.083984375,,
2.2715899999979885,1200,,,,0,-0.005859375,-0.939453125,0.006689456524988998,0.23892006389739295,15.176436327168116,0.1590057522742304,1117,0,2.413140675043324,0.782575849019935,32.429764957896005,0.3052995619486678,0.09900793035743909,0.083984375,,
2.2804999999990687,1200,,,,-0.0625,0.078125,-1.0390625,0.006689456524988998,0.24258927679766562,15.176633490671955,0.15802766120882591,1118,0,2.398327895554429,0.7830927896484359,32.65161494806389,0.30978356588696776,0.10114933710579449,0.083984375,,
2.288514999997802,1200,,,,-0.0625,0.046875,-0.97265625,0.006689456524988998,0.24258927679766562,15.176667523691819,0.15911426212945728,1118,0,2.4148242546163217,0.7832651110156765,32.43569835437673,0.30971541229902977,0.10045835689032753,0.083984375,,
2.2963650000002236,1200,,,,-0.0625,0.078125,-0.96484375,0.006689456524988998,0.24258927679766562,15.176930212837103,0.15952073522274693,1118,0,2.4210350659760955,0.7833341685935804,32.35534171322551,0.3096881082478721,0.10020064566882272,0.083984375,,
2.304589999999851,1200,,,,-0.03125,0.01171875,-0.986328125,0.006689456524988998,0.24258927679766562,15.176884574942147,0.15926696880299435,1118,0,2.417176402123957,0.7833612336506574,32.40811191778651,0.3096774085528071,0.10036060114789472,0.083984375,,
2.313379999999888,1200,,,,-0.0625,0.0546875,-0.9921875,0.006689456524988998,0.24258927679766562,15.1768356456089,0.15923488191858368,1118,0,2.4166816319262847,0.7829523117177252,32.39782606754249,0.3098391475024157,0.10038114809698907,0.083984375,,
2.3218949999986216,1200,,,,-0.0625,0.03125,-0.9921875,0.006689456524988998,0.24258927679766562,15.176794970110347,0.15899717837337268,1117,0,2.41306757699874,0.7826186261079059,32.43252006565395,0.3099712538201434,0.10053148909297714,0.083984375,,
2.331089999999851,1200,,,,-0.03125,0.0625,-0.93359375,0.006689456524988998,0.24258927679766562,15.176994356713866,0.15870773892182352,1117,0,2.408706457983333,0.7824694042686025,32.48504614064587,0.31003036728882843,0.10071350786378976,0.083984375,,
2.339519999999553,1200,,,,-0.03125,0.0234375,-1,0.006689456524988998,0.24258927679766562,15.177042917103563,0.15943993273573123,1117,0,2.4198267018302984,0.7824270715993414,32.33401263848905,0.3100471412649288,0.10025068184187609,0.083984375,,
2.3475,1200,,,,-0.0625,0.05859375,-1.044921875,0.006689456524988998,0.24258927679766562,15.176992156881193,0.15940328187457664,1117,0,2.419262358791572,0.7822465787453464,32.334094559966644,0.31011868046359137,0.10027406738921842,0.083984375,,
2.3563749999990686,1200,,,,-0.0625,0.015625,-0.95703125,0.0061888416248546945,0.24258927679766562,15.176716773896503,0.15984243897379957,1116,0,2.425883424754192,0.723311813377549,29.816429181910927,0.3353868584903654,0.10000038514721558,0.083984375,,
2.366759999998845,1200,,,,0,0.056640625,-0.98046875,0.0061888416248546945,0.24258927679766562,15.176747017764267,0.15999861595221282,1116,0,2.428258517499156,0.7231794193217576,29.78181334936917,0.335448258504343,0.09990257423147282,0.083984375,,
2.384279999998398,1200,,,,-0.03125,0.017578125,-1.001953125,0.0061888416248546945,0.24258927679766562,15.176725563433605,0.16001405205232797,1116,0,2.428489354291161,0.7231035920875293,29.77586007572152,0.3354834348109572,0.09989307812653504,0.083984375,,
2.393259999998845,1200,,,,-0.03125,0.060546875,-0.927734375,0.0061888416248546945,0.24258927679766562,15.176612189416243,0.15946247760806076,1115,0,2.4201001814210095,0.7226621948864625,29.86083801134783,0.3356883458332545,0.10023935317224121,0.083984375,,
2.401574999999255,1200,,,,-0.0625,0.044921875,-0.9765625,0.0061888416248546945,0.24258927679766562,15.176503907121731,0.15990235422236224,1115,0,2.4267587036136433,0.7223578577852418,29.766365181243255,0.3358297749282432,0.09996431719248816,0.08203125,,
2.409404999998398,1200,,,,-0.0625,0.1171875,-1.0390625,0.0061888416248546945,0.24258927679766562,15.176479146373339,0.15984262356353307,1114,0,2.4258482432135633,0.7222565849082005,29.773362242619704,0.3358768640766341,0.10000183543068769,0.083984375,,
2.417199999999255,1200,,,,-0.0625,0.0625,-0.951171875,0.0061888416248546945,0.24258927679766562,15.176455891212548,0.16084102653551788,1114,0,2.440996744713634,0.7222169259679483,29.58696800936026,0.3358953080094825,0.0993812373257077,0.083984375,,
2.4257899999991057,1200,,,,-0.0625,0.12109375,-0.93359375,0.0061888416248546945,0.24258927679766562,15.17643306612705,0.1609503824560537,1114,0,2.4426527063118484,0.7222162202881841,29.56688105607348,0.3358956362138555,0.09931386323189194,0.083984375,,
2.4330649999994787,1200,,,,-0.03125,-0.0078125,-0.951171875,0.0061888416248546945,0.2357257124184575,15.17641230867977,0.1625083026598195,1114,0,2.4662930047491423,0.7222459379782997,29.284676905279657,0.32637873060012973,0.0955789567438011,0.083984375,,
2.44064999999851,1200,,,,-0.09375,0.1171875,-0.994140625,0.0061888416248546945,0.2357257124184575,15.176489436845632,0.1630604541432483,1114,0,2.4746852598722593,0.7222579431405813,29.185850615114727,0.32637330562742667,0.09525482542803257,0.083984375,,
2.4491949999993667,1200,,,,-0.0625,-0.00390625,-0.94140625,0.0061888416248546945,0.2357257124184575,15.176464514958235,0.16294810740016866,1114,0,2.472976169738263,0.7222628401022783,29.20621916784268,0.32637109280753923,0.09532065666585313,0.083984375,,
2.4575049999980254,1200,,,,-0.03125,0.041015625,-0.9296875,0.0061888416248546945,0.2357257124184575,15.176506239829521,0.16336853423404893,1114,0,2.4793635791948465,0.7222646520072475,29.13105032549511,0.3263702740586177,0.09507508878347222,0.083984375,,
2.465449999999255,1200,,,,0.0625,-0.0546875,-0.953125,0.0061888416248546945,0.2357257124184575,15.176611097735469,0.16250985793296072,1114,0,2.466348913396786,0.7222503317714934,29.28419121270121,0.32637674508266856,0.09557679010379905,0.083984375,,
2.4742549999989567,1200,,,,-0.09375,0.09765625,-1.015625,0.0061888416248546945,0.2357257124184575,15.17650408659368,0.16253832457633718,1114,0,2.466763547160871,0.7222120765451175,29.277718060020376,0.3263940331018979,0.09556072477630323,0.083984375,,
2.482614999999292,1200,,,,-0.0625,0.048828125,-0.990234375,0.0061888416248546945,0.2357257124184575,15.176676594868075,0.16213436672387796,1114,0,2.460660848682036,0.7221991362045486,29.34980400047282,0.32639988141953813,0.09579772545441013,0.083984375,,
2.4904599999990316,1200,,,,-0.03125,0.03125,-0.919921875,0.0061888416248546945,0.2357257124184575,15.176708866898245,0.1623913123146063,1114,0,2.4645656695123277,0.7221940654829618,29.303096866794583,0.3264021731621648,0.09564594497703174,0.083984375,,
2.49855999999959,1200,,,,0,-0.046875,-1.00390625,0.0061888416248546945,0.2357257124184575,15.176674004348698,0.1626362353833437,1114,0,2.4682771257075284,0.7221920645427446,29.25895382738797,0.3264030775077916,0.0955021257391781,0.083984375,,
2.5168999999985098,1200,,,,-0.0625,0.072265625,-0.990234375,0.006541416403448673,0.2357257124184575,15.176500190690039,0.16294634884364864,1114,0,2.472955294297879,0.7634017277378674,30.87001732292181,0.3087833100888654,0.09532146131472412,0.083984375,,
2.523939999998547,1200,,,,0,0.025390625,-0.970703125,0.006541416403448673,0.2357257124184575,15.176473034376528,0.16271524712052807,1114,0,2.4694435602066074,0.7634088756868239,30.91420626041572,0.3087804188893923,0.0954570155872424,0.083984375,,
2.5324249999988826,1200,,,,-0.0625,0.0234375,-0.96875,0.006541416403448673,0.2357257124184575,15.176514916180734,0.16167453761767953,1114,0,2.4536560317213367,0.7634113288119995,31.113217131597548,0.3087794266628026,0.0960712134752998,0.083984375,,
2.540369999998249,1200,,,,-0.0625,0.05859375,-1.03515625,0.006541416403448673,0.2357257124184575,15.176292187621412,0.16259844569736423,1115,0,2.467641521156293,0.7635732927251789,30.94344483097294,0.30871393049533835,0.09552672476835315,0.083984375,,
2.549074999999255,1200,,,,-0.0625,0.078125,-0.95703125,0.006541416403448673,0.2357257124184575,15.176203312312726,0.16357150544079563,1115,0,2.482394422670582,0.7639794265207842,30.775908112897238,0.30854981722736813,0.0949590082324072,0.083984375,,
2.5578150000004096,1200,,,,0,-0.03125,-0.94921875,0.006541416403448673,0.2357257124184575,15.176259734619059,0.16484326204308183,1115,0,2.501704160267681,0.7641189532176749,30.543937422877153,0.3084934766057376,0.09422605444811467,0.083984375,,
2.566479999999516,1200,,,,-0.0625,0.041015625,-0.98828125,0.006541416403448673,0.2357257124184575,15.176245531132334,0.16545513046754698,1116,0,2.510987684361027,0.7641757831913173,30.433274840445012,0.3084705346641975,0.09387768561614543,0.083984375,,
2.5757099999990314,1200,,,,-0.03125,0.046875,-1.0078125,0.006541416403448673,0.2357257124184575,15.176011593451248,0.1641252614563918,1116,0,2.490766870640419,0.7641963585383703,30.681167617340364,0.30846222935334977,0.09463981362408612,0.083984375,,
2.5831399999987332,1200,,,,-0.0625,0.01953125,-0.8828125,0.006541416403448673,0.2294284162808123,15.176075650019257,0.1640720518470928,1116,0,2.4899698708853624,0.7642511078702692,30.693186966094622,0.300200305787136,0.09214104112803345,0.083984375,,
2.591484999998473,1200,,,,0,0.00390625,-0.912109375,0.006541416403448673,0.2294284162808123,15.176071955666222,0.16391378964170014,1116,0,2.487567466128378,0.7642731072715804,30.723713735534837,0.30019166459992436,0.09223002768961763,0.083984375,,
2.600469999998808,1200,,,,-0.0625,0.05859375,-1.005859375,0.006541416403448673,0.2294284162808123,15.176067918711166,0.16592380206820512,1116,0,2.518070889517869,0.7642823263486204,30.351898730498263,0.3001880435688115,0.09111277098506967,0.083984375,,
2.609294999998063,1200,,,,-0.0625,0.080078125,-1.029296875,0.006541416403448673,0.2294284162808123,15.175967032143037,0.16821979012705185,1116,0,2.5528979891221595,0.7642853722725307,29.93795190912968,0.30018684722256095,0.08986979395902286,0.083984375,,
2.6173899999996646,1200,,,,-0.0625,0,-0.8984375,0.006541416403448673,0.2294284162808123,15.175913832078766,0.17139526162777996,1116,0,2.6010797216897847,0.7646450631407951,29.3972175002789,0.3000456386109791,0.08820506898257033,0.083984375,,
2.624829999999143,1200,,,,0,0.060546875,-0.9609375,0.006541416403448673,0.2294284162808123,15.175917635188986,0.17036257894863693,1117,0,2.585408466242895,0.7653947148394682,29.6044019671575,0.29975176445911567,0.08873971725412376,0.083984375,,
2.633574999999255,1200,,,,-0.03125,0.0078125,-0.98828125,0.006541416403448673,0.2294284162808123,15.175849098847927,0.16758125364196375,1118,0,2.5431878170662015,0.7657584528809943,30.11018092106018,0.29960938128418874,0.09021292676113825,0.083984375,,
2.641809999998659,1200,,,,-0.125,0.12109375,-1.046875,0.006541416403448673,0.2294284162808123,15.176052438041019,0.1669329672951288,1118,0,2.533383465308661,0.765881864412579,30.231580607528198,0.2995611032737807,0.0905620564050138,0.083984375,,
2.6510499999988824,1200,,,,-0.0625,0.07421875,-1.060546875,0.006541416403448673,0.2294284162808123,15.17604986923937,0.1663205700166829,1118,0,2.524089264853498,0.765930423055156,30.344823129684826,0.2995421116263595,0.09089552397194188,0.083984375,,
2.672769999998622,1200,,,,0.03125,-0.01171875,-0.978515625,0.006135546821539446,0.2294284162808123,15.176231979275535,0.16351186489213174,1122,0,2.4814939929669504,0.7210231183147378,29.05600901546654,0.31819841895924234,0.09245576129986946,0.083984375,,
2.681179999999702,1200,,,,-0.0625,0.068359375,-1.00390625,0.006135546821539446,0.2294284162808123,15.17613644969208,0.16215725458910246,1123,0,2.460920621951676,0.7214628110882745,29.316785135316792,0.3180044941398104,0.09322869426761927,0.083984375,,
2.6897899999981747,1200,,,,-0.0625,0.01953125,-0.9765625,0.006135546821539446,0.2294284162808123,15.176327443634507,0.16177115539795536,1123,0,2.4550920252544524,0.7215923866818723,29.39166350015269,0.31794739040388487,0.09345002709502659,0.083984375,,
2.6978149999994785,1200,,,,-0.0625,0.091796875,-0.93359375,0.006135546821539446,0.2294284162808123,15.176377400547281,0.1620489419286871,1122,0,2.4593159000691256,0.720631374989401,29.302106938321575,0.3183713952007525,0.09328952668275091,0.083984375,,
2.705219999999739,1200,,,,0.0625,-0.05078125,-0.953125,0.006135546821539446,0.2294284162808123,15.176423963949809,0.16146300130907723,1121,0,2.450430962358339,0.7202598405711597,29.39319048915251,0.31853562194843127,0.0936277821351091,0.083984375,,
2.7131349999997765,1200,,,,-0.09375,0.078125,-0.96875,0.006135546821539446,0.2294284162808123,15.17659861047595,0.16016088682570856,1121,0,2.4306974924516442,0.7201121086918658,29.625739563566512,0.31860096992062126,0.09438789359568012,0.083984375,,
2.720614999998361,1200,,,,-0.03125,-0.013671875,-1.009765625,0.006135546821539446,0.2294284162808123,15.176745776924774,0.15990950993177752,1121,0,2.4269059795472145,0.7200575036632865,29.6697733546986,0.3186251307896899,0.09453535415641298,0.083984375,,
2.7296749999988825,1200,,,,-0.125,0.09765625,-0.92578125,0.006135546821539446,0.22685240743254037,15.176704809652746,0.15960405972850025,1121,0,2.4222637009216337,0.7200304961286031,29.72552062992327,0.31505944352671245,0.09365305988205436,0.0859375,,
2.7392299999995156,1200,,,,0.03125,0.017578125,-0.966796875,0.006135546821539446,0.22685240743254037,15.17688565416508,0.16110268468395667,1119,0,2.4450370240274224,0.7189608626694748,29.40490698522082,0.315528172966531,0.0927807657729751,0.083984375,,
2.747599999998696,1200,,,,-0.09375,0.076171875,-1.01171875,0.006135546821539446,0.22685240743254037,15.176910328254936,0.1607307199676873,1118,0,2.4393957239454456,0.7185766243053171,29.457156838132885,0.31569689266172496,0.09299532880447638,0.0859375,,
2.755804999998771,1200,,,,-0.03125,0.033203125,-1.00390625,0.006135546821539446,0.22685240743254037,15.176865121936942,0.15976802898458978,1118,0,2.424777826696831,0.7184461414981983,29.62935958866409,0.3157542289244924,0.09355595590445145,0.0859375,,
2.7638499999996275,1200,,,,-0.125,0.10546875,-0.90625,0.006135546821539446,0.22685240743254037,15.17682296057764,0.15950375354083654,1118,0,2.420760229036885,0.7183956384837513,29.676447500526297,0.31577642635934705,0.0937112253875697,0.0859375,,
2.771194999999367,1200,,,,0.03125,-0.015625,-0.953125,0.006135546821539446,0.22685240743254037,15.17688003988849,0.1605161283974984,1118,0,2.4361340251561714,0.7183155568715918,29.485880064646413,0.31581163078317287,0.0931198386829303,0.0859375,,
2.779804999999702,1200,,,,-0.0625,0.03515625,-0.97265625,0.006135546821539446,0.22685240743254037,15.17670459743739,0.160854987610245,1118,0,2.4412486299851395,0.7182529376450218,29.421539814623227,0.3158391640921577,0.09292474541354737,0.0859375,,
2.7885949999997393,1200,,,,-0.0625,0.09375,-1.04296875,0.006135546821539446,0.22685240743254037,15.17666574478122,0.15977864898082508,1118,0,2.424907148734711,0.7182270268592076,29.618743432463805,0.3158505583179756,0.09355096649820567,0.0859375,,
2.796644999998622,1200,,,,-0.0625,0.056640625,-0.962890625,0.006135546821539446,0.22685240743254037,15.176633302686357,0.16046631401496778,1118,0,2.4353384052388862,0.7182183193460895,29.491520266795874,0.31585438761723716,0.09315026073770148,0.0859375,,
2.8040199999995528,1200,,,,0,0.01171875,-0.88671875,0.006135546821539446,0.22685240743254037,15.176537239341426,0.16101593534658018,1118,0,2.4436643389147656,0.7182148644368637,29.39089681833405,0.3158559070068959,0.09283288372300993,0.0859375,,
2.8128099999995904,1200,,,,0,-0.013671875,-0.958984375,0.005240327597447226,0.22685240743254037,15.176411252327888,0.16133140109460792,1117,0,2.4484316909260313,0.6131482760038903,25.042490598215917,0.3699796873131892,0.09265212841071405,0.0859375,,0.338214999999851,6523,
2.8271399999996647,1200,,,,-0.09375,0.083984375,-1.021484375,0.005240327597447226,0.22685240743254037,15.176148476297053,0.1628539688422552,1117,0,2.471496011104319,0.6130312925847442,24.80405753561497,0.3700502897267365,0.09178748677452962,0.0859375,,
2.846429999999702,1500,,,,-0.03125,0.009765625,-0.98046875,0.005240327597447226,0.22685240743254037,15.176128042947141,0.16035666750652874,1117,0,2.4335933186193817,0.6129775561864578,25.188167287302143,0.37008273001684844,0.09321705713805853,0.0859375,,
2.8557799999993296,1500,,,,-0.09375,0.080078125,-1.01171875,0.005240327597447226,0.22685240743254037,15.176238276751915,0.16096073743674275,1118,0,2.4427785045417103,0.613355667547028,25.108935026513983,0.3698545875344779,0.09286654807661335,0.0859375,,
2.8638499999996276,1500,,,,-0.5625,-0.20703125,-1.12109375,0.005240327597447226,0.22685240743254037,15.167547695935053,0.49269558437919003,1118,0,7.4729837756479585,0.6134726268949228,8.209205925135715,0.36978407428013294,0.03035633613601292,0.08984375,,
2.8741049999985844,1500,,,,0.15625,-0.32421875,-1.552734375,0.005240327597447226,0.22685240743254037,15.154102172694094,0.8780993277413882,1118,0,13.306806930366994,0.6135210560489442,4.610580579243616,0.3697548848501835,0.01704784691170716,0.103515625,,
2.8828349999981002,1500,,,,0,0.16796875,-0.98046875,0.005240327597447226,0.2257347299660747,15.142629826714646,1.1871298729952742,1443,0,17.976268223002208,0.7918776341885734,4.405128051968521,0.2850626412720724,0.012557374376358456,0.10546875,,
2.8902649999996646,1500,,,,-0.15625,0.279296875,-1.12109375,0.005240327597447226,0.2257347299660747,15.135238038681234,1.3906336702138373,1540,0,21.047571623291365,0.845029483963265,4.014855010770699,0.26713237141425916,0.01072497739911598,0.109375,,
2.8985799999991433,1500,,,,-0.09375,0.25390625,-0.833984375,0.005240327597447226,0.2257347299660747,15.129390299483752,1.549291380385454,1612,0,23.43983398147748,0.8845058921809865,3.7735160278009507,0.25520997877070684,0.009630389453460026,0.11328125,,
2.906444999998435,1500,,,,-0.125,0.11328125,-1.08984375,0.005240327597447226,0.2257347299660747,15.12492470438126,1.685293778935692,1708,0,25.4899415111645,0.9372146995519293,3.6768020795239282,0.24085700968411577,0.008855835540744718,0.115234375,,
2.914614999999292,1500,,,,0,0.193359375,-1.017578125,0.005240327597447226,0.2257347299660747,15.121426528015753,1.7796214901791085,1745,0,26.9104156114213,0.9578490221075512,3.559398843699098,0.2356683827576412,0.008388377690839844,0.115234375,,
2.922829999999143,1500,,,,0.09375,-0.140625,-1.021484375,0.005240327597447226,0.2257347299660747,15.118713215886027,1.8522412194012332,1965,0,28.003503802770275,1.0781536221088093,3.8500668691399675,0.20937158243233459,0.008060945928621392,0.119140625,,
2.9340499999998135,1500,,,,-0.5,-0.33984375,-1.10546875,0.005240327597447226,0.2257347299660747,15.116250357764514,1.9088302879792622,2057,0,28.854356523578264,1.1289668744307364,3.9126392352856803,0.19994805434827115,0.007823246024620792,0.123046875,,
2.9407899999981746,1500,,,,-0.3125,-0.181640625,-0.927734375,0.005240327597447226,0.2257347299660747,15.114579689101218,1.9493576685951397,2220,0,29.4637218245418,1.2183729028435581,4.1351629305321325,0.18527556665059838,0.007661446551468899,0.126953125,,
2.948234999999404,1500,,,,0.0625,0.1171875,-1.134765625,0.005240327597447226,0.2257347299660747,15.113944569870386,1.9693055554825447,2267,0,29.76397500670099,1.2440414444486707,4.17968851327348,0.18145274096243222,0.0075841593710266626,0.12890625,,
2.9560750000001863,1500,,,,-0.125,-0.18359375,-0.69921875,0.005240327597447226,0.2257347299660747,15.113662659325602,1.9806376591644579,2315,0,29.934689430967936,1.2701875789040695,4.24319611477258,0.17771763298208354,0.007540907697961561,0.130859375,,
2.964790000000037,1500,,,,-0.03125,-0.125,-0.908203125,0.005800152281881807,0.2257347299660747,15.11350968004582,1.9813523803626365,2362,0,29.945188380192533,1.4347903417898367,4.791388598306128,0.15732941837654185,0.0075382638138749725,0.134765625,,
2.974655000000261,1500,,,,-0.03125,0.2890625,-1.0703125,0.005800152281881807,0.2257347299660747,15.113731153169395,1.9740922764574411,2406,0,29.835899937925916,1.461678945695772,4.899061026269759,0.15443523396899106,0.007565876358203357,0.13671875,,
2.9830449999989943,1500,,,,0,0.11328125,-1.12109375,0.005800152281881807,0.2257347299660747,15.114298778370669,1.960134316262305,2485,0,29.626055701725782,1.5090804623833618,5.093760970332121,0.14958429029659637,0.0076194661968763235,0.138671875,,
2.9910849999999627,1500,,,,-0.0625,-0.173828125,-0.833984375,0.005800152281881807,0.2257347299660747,15.114830361957864,1.9411878327303622,2546,0,29.34072479241606,1.5465432329723363,5.270978286712549,0.14596082744627192,0.007693563521798964,0.142578125,,
2.998449999999255,1500,,,,-0.03125,0.228515625,-1.029296875,0.005800152281881807,0.2257347299660747,15.115878091568025,1.9217194665219497,2571,0,29.04847718213893,1.56174839920637,5.376352052515317,0.14453975434249572,0.007770966049293368,0.142578125,,
3.0064999999990687,1500,,,,-0.1875,0.0859375,-1.0078125,0.005800152281881807,0.2257347299660747,15.116727931995918,1.89937031580278,2595,0,28.71226430609979,1.5764023964574398,5.490345100099056,0.14319613473904608,0.007861961967176458,0.14453125,,
3.013854999999516,1500,,,,-0.03125,-0.091796875,-0.8671875,0.005800152281881807,0.2257347299660747,15.117386847164767,1.8778733021855245,2618,0,28.388537159101315,1.5900073839759123,5.600878182150921,0.14197086896641384,0.007951615424949944,0.14453125,,
3.0229599999981,1500,,,,0,0.1328125,-1.06640625,0.005800152281881807,0.2257347299660747,15.11830693490202,1.8451767619300692,2652,0,27.895948636007418,1.6106493618472264,5.7737751917432165,0.14015137950769332,0.008092025580901083,0.146484375,,
3.0320849999990314,1500,,,,-0.0625,-0.02734375,-0.958984375,0.005800152281881807,0.2539418651803597,15.119517973079212,1.814509915836176,2664,0,27.43451528481551,1.618033252705974,5.897801495335786,0.15694477524220918,0.009256291301086402,0.146484375,,
3.0412499999981373,1500,,,,-0.125,0.0546875,-0.96875,0.005800152281881807,0.2539418651803597,15.120634675686095,1.7812445193193156,2685,0,26.93354764469545,1.6310535761864837,6.055843803806213,0.15569192139849472,0.009428459575037582,0.146484375,,
3.0497999999988825,1500,,,,-0.03125,0.072265625,-0.990234375,0.005800152281881807,0.2539418651803597,15.12169451838866,1.7489784821596854,2693,0,26.447518326453835,1.6357631933090349,6.184940201640321,0.15524366009645507,0.009601727543803505,0.146484375,,
3.0581899999994784,1500,,,,-0.03125,-0.01953125,-0.904296875,0.005800152281881807,0.2539418651803597,15.122493723138577,1.7180468361283174,2706,0,25.981152495408573,1.6438959799551462,6.327263504748906,0.15447562879695623,0.0097740800846012,0.146484375,,
3.0667399999983607,1500,,,,-0.0625,0.15234375,-1.125,0.005800152281881807,0.2539418651803597,15.123665027525051,1.685852001428648,2716,0,25.496260955589555,1.6497048119653177,6.470379381662441,0.15393169937949994,0.009959964938493774,0.146484375,,
3.07468499999959,1500,,,,-0.125,0.015625,-0.9765625,0.005800152281881807,0.2539418651803597,15.124594092994165,1.6599763224160495,2727,0,25.10646808052396,1.6562724849579897,6.596995163341288,0.15332130883451875,0.010114599328184759,0.146484375,,
3.0827999999998137,1500,,,,0,-0.078125,-0.880859375,0.005800152281881807,0.2539418651803597,15.125354258755165,1.6322652350602251,2731,0,24.688589924536178,1.6588794109785039,6.719214892584308,0.1530803646725412,0.010285798660699758,0.1484375,,
3.0905549999987705,1500,,,,-0.0625,0.15625,-1.03515625,0.005800152281881807,0.2539418651803597,15.126076042580292,1.6043491052117893,2738,0,24.267506564279174,1.6632593916023433,6.853853679597213,0.1526772471344463,0.010464275120631975,0.1484375,,
3.097285000000149,1500,,,,-0.1875,-0.06640625,-0.921875,0.005800152281881807,0.2539418651803597,15.126999518422585,1.5811169637300544,2743,0,23.91755554891431,1.666260554668711,6.966684163274986,0.15240225453866604,0.01061738373141928,0.1484375,,
3.105729999999516,1500,,,,0,0.08203125,-1.005859375,0.005800152281881807,0.2539418651803597,15.12784296173996,1.5529854179534377,2748,0,23.4933195246717,1.6692857717585263,7.105363590724215,0.15212605862736256,0.010809109581712393,0.146484375,,
3.1152050000000746,1500,,,,-0.0625,0.13671875,-1.02734375,0.028169115108560242,0.2539418651803597,15.128883240035465,1.5237843028391713,2750,0,23.053154800652663,8.113141895386551,35.19319574931609,0.031300064568667414,0.01101549299331345,0.146484375,,
3.1277099999990314,1500,,,,-0.09375,-0.021484375,-0.90234375,0.028169115108560242,0.2539418651803597,15.129733015421607,1.4942595852397482,2756,0,22.607748580412014,8.130238693022326,35.96217758749579,0.031234244745889456,0.011232514563629838,0.1484375,,
3.1357299999995156,1500,,,,-0.01953125,0.109375,-0.9765625,0.028169115108560242,0.2539418651803597,15.131058055814677,1.4582233681918577,2762,0,22.06446244245662,8.147837453477182,36.927423338440576,0.031166780956336727,0.011509089144710943,0.146484375,,
3.143969999998808,1500,,,,-0.0625,-0.0234375,-0.93359375,0.028169115108560242,0.2539418651803597,15.131748440169481,1.4387108563572275,2764,0,21.770210756538376,8.154194292027766,37.455743461641816,0.031142483988716694,0.011664648910396603,0.146484375,,
3.1622099999981,1500,,,,-0.125,-0.03125,-0.986328125,0.028169115108560242,0.2539418651803597,15.133545722247803,1.3867133718297642,2771,0,20.985890216238154,8.173990364716488,38.949933886491685,0.031067061967251,0.012100600096719668,0.146484375,,
3.17619000000041,1500,,,,-0.0625,0.14453125,-1.01171875,0.028169115108560242,0.9091809161918964,15.134762325784012,1.3516712114922573,2773,0,20.457222528539848,8.181390083507162,39.99267286697064,0.11112792653961229,0.044443028124834597,0.146484375,,
3.1836199999991805,1500,,,,-0.125,-0.03515625,-1.05859375,0.028169115108560242,0.9091809161918964,15.135276814025051,1.3344105241664692,2774,0,20.19667266680778,8.182770809434283,40.51544006494821,0.1111091752861587,0.04501637131972188,0.146484375,,
3.190559999998659,1500,,,,-0.09375,-0.072265625,-0.9921875,0.028169115108560242,0.9091809161918964,15.135734964361427,1.3181954869160173,2774,0,19.951857521178198,8.18332463595533,41.01535221604814,0.11110165570081379,0.04556873540354991,0.1484375,,
3.1983349999990316,1500,,,,0,0.052734375,-0.951171875,0.028169115108560242,0.9091809161918964,15.136125780185424,1.304107859191022,2775,0,19.73914058764365,8.18484048252271,41.465029575027565,0.11108107948264756,0.04605980245973968,0.146484375,,
3.2194149999991057,1500,,,,-0.125,0.0390625,-1.072265625,0.028169115108560242,0.9091809161918964,15.137379006602401,1.268350610310557,2778,0,19.19950390152637,8.196100033003523,42.689124026542835,0.11092847970752745,0.0473543962831048,0.146484375,,
3.23525,1500,,,,-0.0625,0.0703125,-1.10546875,0.028169115108560242,0.9091809161918964,15.13873353240261,1.2373326130093996,2781,0,18.73164871930074,8.203494103525076,43.79483208582889,0.11082849633563063,0.04853715387343845,0.1484375,,
3.2557799999993295,1500,,,,-0.03125,-0.080078125,-0.92578125,0.028169115108560242,0.9091809161918964,15.139968161690803,1.210303428996918,2781,0,18.32395538099854,8.204817825987417,44.77645604013857,0.1108106158447802,0.04961706669154483,0.1484375,,
3.2782399999992924,1500,,,,0,-0.03125,-0.8359375,0.03759706403634508,0.9091809161918964,15.140889345990182,1.1775189622692512,2785,0,17.828684310523922,10.963838342952203,61.49549878159245,0.08292542153144186,0.050995401587498226,0.15234375,,
3.2861949999984352,1500,,,,-0.09375,0.0546875,-1.0703125,0.03759706403634508,0.9091809161918964,15.141388622922035,1.1612321007627684,2784,0,17.582666519061235,10.960393347431424,62.33635458847693,0.08295148608010164,0.05170893249930324,0.15234375,,
3.2942599999988453,1500,,,,-0.0625,-0.140625,-0.90234375,0.03759706403634508,0.9091809161918964,15.141693125948615,1.1523401295363342,2782,0,17.44838061815505,10.95498089813947,62.78508669590121,0.08299246932929902,0.0521068938194696,0.154296875,,
3.3109249999998136,1500,,,,-0.15625,-0.001953125,-1.05078125,0.03759706403634508,0.9091809161918964,15.14238901528637,1.130928290969352,2782,0,17.124956130250904,10.954130767456057,63.96589097303319,0.08299891022782094,0.05309099242513363,0.154296875,,
3.318609999998473,1500,,,,-0.0625,-0.044921875,-0.87890625,0.03759706403634508,0.9091809161918964,15.14266087728967,1.1247770371904995,2782,0,17.032117236738365,10.952333999424923,64.30400781765805,0.08301252648427586,0.053380381520084216,0.154296875,,
3.3270349999982862,1500,,,,0.0625,0.26953125,-0.98828125,0.03759706403634508,1.317426768095936,15.142329469228098,1.1247582026838272,2782,0,17.031459278255348,10.951607879270743,64.30222860147421,0.12029528290449185,0.07735254781003646,0.15625,,
3.335009999998845,1500,,,,-0.21875,-0.11328125,-1.03515625,0.03759706403634508,1.317426768095936,15.142410747404114,1.121573077752637,2786,0,16.98332022656064,10.96851471033306,64.58404224857708,0.1201098601668313,0.07757180283485318,0.15625,,
3.3432799999993295,1500,,,,0.125,0.158203125,-0.810546875,0.03759706403634508,1.317426768095936,15.142684895575453,1.1124578000517298,2788,0,16.845597925808427,10.975253781229018,65.15205829776038,0.12003610981179604,0.078205996242945,0.158203125,,
3.351489999999292,1500,,,,-0.125,0.1484375,-1.18359375,0.03759706403634508,1.317426768095936,15.14301257241608,1.1040626164125003,2792,0,16.718834081069083,10.99182906716721,65.74518901179465,0.11985509964225274,0.07879896180007387,0.16015625,,
3.3602849999982864,1500,,,,-0.03125,-0.10546875,-0.890625,0.03759706403634508,1.317426768095936,15.143379312012756,1.094157977226394,2793,0,16.5692492764039,10.995746417566274,66.36236943592371,0.1198124000014477,0.0795103475190074,0.162109375,,
3.3704599999999627,1500,,,,-0.09375,0.1171875,-1.08984375,0.03759706403634508,1.317426768095936,15.143502630624338,1.0854797031006749,2792,0,16.437964739394396,10.991294977383713,66.86530328808001,0.11986092364973781,0.08014537012229121,0.162109375,,
3.3790799999982117,1500,,,,0,-0.09765625,-0.873046875,0.03759706403634508,1.317426768095936,15.143800265213404,1.0742696851826463,2791,0,16.268525543379678,10.987829130039055,67.54041170320102,0.11989873090529699,0.08098009648035069,0.1640625,,
3.386544999998994,1500,,,,-0.09375,0.072265625,-1.0859375,0.03759706403634508,1.317426768095936,15.143908057398203,1.066515603929405,2790,0,16.151214247687427,10.98633913086189,68.02175342596884,0.11991499191893074,0.08156828012386552,0.162109375,,
3.395019999999553,1500,,,,0,0.07421875,-1.046875,0.03759706403634508,1.317426768095936,15.144107504586962,1.0617207704136884,2792,0,16.078813486997788,10.994399213083666,68.37817493171583,0.1198270812768158,0.0819355712510304,0.162109375,,
3.402959999999031,1500,,,,0.03125,-0.009765625,-0.84765625,0.03759706403634508,1.317426768095936,15.144297276356047,1.0571596575143536,2793,0,16.009940121968118,10.997590990949275,68.69226809823527,0.11979230444013995,0.08228805092707513,0.1640625,,
3.4110849999999626,1500,,,,-0.09375,0.16796875,-1.044921875,0.03672407740090704,1.317426768095936,15.144675750928869,1.0518267057234896,2791,0,15.929574404349928,10.734994959214966,67.39034381410424,0.12272262568368057,0.08270319938592854,0.1640625,,
3.4203600000003354,1500,,,,0.0625,0.0859375,-0.75390625,0.03672407740090704,1.317426768095936,15.144970887340579,1.0453539663076488,2791,0,15.831855386695345,10.73213969626289,67.78826255122242,0.12275527577736303,0.08321366863943597,0.1640625,,
3.4316949999993667,1500,,,,-0.09375,-0.1484375,-1.068359375,0.03672407740090704,1.317426768095936,15.1453148764861,1.0393821662987934,2789,0,15.741770185599465,10.727157521286795,68.14454406849347,0.12281228885486727,0.08368987430023053,0.166015625,,
3.4461749999988824,1500,,,,-0.15625,-0.177734375,-1.017578125,0.03672407740090704,1.317426768095936,15.145638572484188,1.0319349736815846,2789,0,15.629314141687264,10.72504732883439,68.62135620032119,0.12283645262375875,0.08429203969878829,0.16796875,,
3.4547399999992923,1500,,,,0.0625,0.1484375,-0.96484375,0.03672407740090704,1.317426768095936,15.14590591384117,1.0278523616918784,2789,0,15.567755163504636,10.72571297940969,68.89697883066593,0.1228288292465983,0.08462535248398363,0.16796875,,
3.461969999997877,1500,,,,-0.09375,0.06640625,-0.91015625,0.03672407740090704,1.317426768095936,15.145997421512925,1.0266662832203612,2789,0,15.54988487840985,10.72672639673989,68.98267402373732,0.12281722488012127,0.08472260588405446,0.16796875,,
3.4702549999980254,1500,,,,-0.03125,-0.01953125,-0.955078125,0.03672407740090704,1.317426768095936,15.146095190335242,1.0247635859732467,2789,0,15.521166820740087,10.727192577533216,69.11331281614122,0.12281188750681367,0.08487936398799159,0.169921875,,
3.477419999998994,1500,,,,0.125,0.26953125,-0.89453125,0.03672407740090704,1.5126099877872723,15.145929920379029,1.0243356278273703,2789,0,15.514515634020805,10.727375910346764,69.14412388630024,0.1410046595205385,0.09749643646433698,0.169921875,,
3.4871649999981744,1500,,,,-0.125,-0.15234375,-1.0390625,0.03672407740090704,1.5126099877872723,15.146228541612134,1.0202906145869253,2791,0,15.453554827395473,10.732537807993793,69.45028459709192,0.14093684223135486,0.09788103803183038,0.169921875,,
3.4952799999993296,1500,,,,0.0625,0.21484375,-0.900390625,0.03672407740090704,1.5126099877872723,15.146255134476808,1.0179216273797773,2793,0,15.41770067519594,10.740420022294739,69.66291698459271,0.14083341104420757,0.09810866222229657,0.171875,,
3.5030649999985473,1500,,,,-0.1875,-0.14453125,-1.14453125,0.03672407740090704,1.5126099877872723,15.146331649146445,1.0134538626407554,2792,0,15.350108314665388,10.737838019076856,69.95284853343998,0.14086727561916723,0.0985406719470595,0.173828125,,
3.5110099999997764,1500,,,,-0.03125,-0.04296875,-0.841796875,0.03672407740090704,1.5126099877872723,15.146413806851557,1.0082297573970618,2792,0,15.271065117917452,10.736651040684988,70.30715249906005,0.14088284904254178,0.09905071952136041,0.173828125,,
3.5190999999996273,1500,,,,-0.125,0.083984375,-1.146484375,0.03672407740090704,1.5126099877872723,15.14668595568068,1.0040571634665518,2790,0,15.208138536579401,10.729446063514098,70.55068598768402,0.1409774538995971,0.09946056081413675,0.17578125,,
3.526949999999255,1500,,,,-0.125,-0.05859375,-0.8671875,0.03672407740090704,1.5126099877872723,15.146750467037213,0.9995234088830327,2789,0,15.139531660313702,10.726572818423067,70.85141772609369,0.14101521645285803,0.09991128006636962,0.17578125,,
3.536444999999367,1500,,,,0.125,0.119140625,-0.873046875,0.03672407740090704,1.5126099877872723,15.146811372214927,0.9951433255323288,2789,0,15.073248240156857,10.727130869819002,71.16668351046391,0.14100788049887886,0.10035063203945029,0.177734375,,
3.54527499999851,1500,,,,-0.25,0.1796875,-1.15625,0.03672407740090704,1.5126099877872723,15.147191158364143,0.9920892081436603,2789,0,15.027364881902136,10.726907500003794,71.38249176954837,0.14101081675093566,0.10065703466140957,0.177734375,,
3.552739999999292,1500,,,,0.03125,0.03515625,-0.87109375,0.03672407740090704,1.5126099877872723,15.147329946438024,0.988974899647675,2789,0,14.980329113708768,10.725569013737047,71.59768608769674,0.14102841404963767,0.1009730811857168,0.177734375,,
3.561519999999553,1500,,,,-0.03125,0.138671875,-1.080078125,0.03558279451168833,1.5126099877872723,15.147559836809663,0.9863490969703521,2789,0,14.940781966341586,10.390920170320552,69.54736501562697,0.14557035979428656,0.10124034948069396,0.177734375,,
3.569239999998361,1500,,,,-0.09375,-0.01953125,-0.923828125,0.03558279451168833,1.5126099877872723,15.14764668569146,0.9833334061599676,2788,0,14.895187010748726,10.389582073791992,69.75126976448578,0.14558910811271925,0.10155025154741168,0.177734375,,
3.578074999999255,1500,,,,0.1875,0,-0.81640625,0.03558279451168833,1.5126099877872723,15.147593124883208,0.9810783851451805,2786,0,14.860976201796657,10.37981067314549,69.84608906035793,0.14572616355139087,0.10178402597834732,0.1796875,,
3.588879999998957,1500,,,,-0.125,0.115234375,-1.14453125,0.03558279451168833,1.5126099877872723,15.147613114379212,0.9798056865961509,2784,0,14.841717467827182,10.372129726064589,69.88496950267752,0.14583407918493024,0.10191610176289909,0.1796875,,
3.5973399999979883,1500,,,,0.01953125,-0.0234375,-0.86328125,0.03558279451168833,1.5126099877872723,15.147570856813463,0.9787753182880062,2786,0,14.826068486667724,10.380051898703455,70.012167474052,0.14572277697149166,0.10202367466112004,0.1796875,,
3.6047299999985842,1500,,,,-0.125,0.125,-1.14453125,0.03558279451168833,1.5126099877872723,15.147590801665292,0.9770701720335874,2787,0,14.800259150477492,10.38514774729805,70.16868854599075,0.14565127281706847,0.10220158798628007,0.181640625,,
3.6131899999994785,1500,,,,-0.09375,-0.109375,-0.94921875,0.03558279451168833,1.5126099877872723,15.14771466031322,0.9732675579733366,2784,0,14.742779256319958,10.373968313674844,70.36643588913341,0.14580823288166084,0.10260005671175224,0.181640625,,
3.6223649999992924,1500,,,,0.0625,0.12109375,-0.85546875,0.03558279451168833,1.5126099877872723,15.147871298325395,0.972995914667257,2785,0,14.738816889176007,10.37645728010063,70.40224027561509,0.1457732583439695,0.10262763959691454,0.181640625,,
3.6309649999979885,1500,,,,-0.125,0.083984375,-1.125,0.03558279451168833,1.5995243571654294,15.147987702686857,0.9734427407434125,2787,0,14.745698666051004,10.384296122931472,70.42254394387713,0.15403300697802963,0.10847396202717824,0.181640625,,
3.6392599999997763,1500,,,,-0.0625,-0.076171875,-0.87890625,0.03558279451168833,1.5995243571654294,15.147922482285324,0.9755397604605125,2786,0,14.777400669843036,10.380418298212659,70.24522465169728,0.15409054926436264,0.10824125249778581,0.181640625,,
3.646864999998361,1500,,,,-0.0625,0.07421875,-1.08984375,0.03558279451168833,1.5995243571654294,15.147733324434197,0.9795797769476894,2784,0,14.838413231212332,10.37243772604454,69.90260726953139,0.15420910680901215,0.10779618630655594,0.181640625,,
3.6557299999985844,1500,,,,-0.1875,-0.125,-0.8828125,0.03558279451168833,1.5995243571654294,15.147673791926772,0.9862105296605355,2790,0,14.938795393461113,10.396962406611324,69.59706008934427,0.15384535353790524,0.10707184314644003,0.18359375,,
3.664604999999516,1500,,,,0.09375,0.025390625,-0.85546875,0.03558279451168833,1.5995243571654294,15.147624499614198,0.9829871886764565,2792,0,14.889920822002376,10.405081012883524,69.8800291638103,0.15372531508259332,0.10742329501187553,0.18359375,,
3.6732599999997766,1500,,,,-0.09375,0.140625,-1.041015625,0.03558279451168833,1.5995243571654294,15.14771901796401,0.9795250919722924,2792,0,14.83757086424164,10.403253819558369,70.11426543296302,0.15375231489193167,0.10780230617265411,0.18359375,,
3.6811249999990685,1500,,,,0,-0.01171875,-0.8359375,0.03558279451168833,1.5995243571654294,15.147732702697082,0.9764336764604219,2792,0,14.790756332934276,10.402642644355609,70.33205341360575,0.1537613481352566,0.10814351349996897,0.18359375,,
3.6890249999994413,1500,,,,-0.09375,0.013671875,-1.142578125,0.03558279451168833,1.5995243571654294,15.147745870900842,0.9741073679860843,2794,0,14.755530861225296,10.412270969815426,70.56520749908685,0.153619163562143,0.10840168152598782,0.18359375,,
3.6995799999982117,1500,,,,-0.0625,0.078125,-0.85546875,0.03558279451168833,1.5995243571654294,15.147761207922354,0.969025588351826,2794,0,14.678568216719924,10.412828212354341,70.93899117826354,0.15361094263205718,0.10897005304260249,0.18359375,,
3.707269999998622,1500,,,,-0.125,-0.013671875,-0.9921875,0.03558279451168833,1.5995243571654294,15.147970756445812,0.9667295219271224,2792,0,14.64399052754489,10.403096876472004,71.04004101139031,0.15375463442842366,0.10922735535486544,0.185546875,,
3.715304999999702,1500,,,,0.125,0.22265625,-0.8828125,0.03469671546337741,1.5995243571654294,15.14797217643625,0.9636138207583369,2790,0,14.596795345676714,10.138743204196794,69.45869256980227,0.15776357334934057,0.10958051539985296,0.185546875,,
3.7231299999980254,1500,,,,-0.125,-0.09765625,-0.951171875,0.03469671546337741,1.5995243571654294,15.14758097683967,0.9622380930714058,2789,0,14.575579433798907,10.135048552020027,69.53444697037665,0.15782108481824947,0.10974001853101886,0.185546875,,
3.7313549999995157,1500,,,,-0.0625,0.1640625,-0.98828125,0.03469671546337741,1.5995243571654294,15.147666267338145,0.9606260806819171,2789,0,14.551243277870729,10.132805468274414,69.63532445151408,0.1578560214319227,0.10992355269037096,0.185546875,,
3.7419799999985845,1500,,,,0.09375,0.19140625,-0.892578125,0.03469671546337741,1.5995243571654294,15.147685003402469,0.9593411376275092,2788,0,14.531797363587284,10.130991896093315,69.71602784304449,0.15788427960170745,0.11007064832691658,0.185546875,,
3.7512299999995156,1500,,,,-0.08203125,0.033203125,-1.021484375,0.03469671546337741,1.5995243571654294,15.147613895900916,0.9584400662477726,2788,0,14.518080065882954,10.130292213917896,69.77707911753272,0.15789518440226832,0.11017464774314496,0.185546875,,
3.758449999999255,1500,,,,0.0625,0.16796875,-0.97265625,0.03469671546337741,1.5995243571654294,15.147689859705801,0.9596355506141787,2787,0,14.536261699051588,10.126621310881584,69.66455007852734,0.15795242145044533,0.11003684374159207,0.185546875,,
3.7674149999981745,1500,,,,-0.09375,-0.134765625,-1.0390625,0.03469671546337741,1.5995243571654294,15.147566310581377,0.9639537098468458,2784,0,14.601552740236018,10.117196542718712,69.28849775572004,0.1580995634918843,0.10954481250187743,0.185546875,,
3.7754950000001117,1500,,,,-0.03125,0.189453125,-0.947265625,0.03469671546337741,1.6457249925894675,15.147399024221667,0.9675084637549891,2786,0,14.655236759808526,10.122179404351812,69.06868561899685,0.16258603279466907,0.11229603585134909,0.185546875,,
3.7834449999993667,1500,,,,-0.125,-0.0703125,-1.0859375,0.03469671546337741,1.6457249925894675,15.147232781537223,0.9672210894579232,2788,0,14.6507229932312,10.128508477419139,69.13316484175303,0.16248443650499045,0.11233063333118856,0.185546875,,
3.791269999999553,1500,,,,-0.09375,-0.095703125,-0.939453125,0.03469671546337741,1.6457249925894675,15.14726986988198,0.9653804487083335,2790,0,14.622878183692885,10.13734145805434,69.32521307165975,0.16234285876618104,0.11254453274627864,0.1875,,
3.800454999998212,1500,,,,-0.0625,0.166015625,-1.013671875,0.03469671546337741,1.6457249925894675,15.147011812414945,0.9672398937565356,2793,0,14.650794096169221,10.147993595218653,69.26582633409662,0.16217245085421322,0.11233008817042751,0.1875,,
3.808535000000149,1500,,,,-0.1875,-0.1875,-0.99609375,0.03469671546337741,1.6457249925894675,15.146798202478042,0.9713362576447534,2792,0,14.7126342812953,10.146161356160299,68.96223451336296,0.16220173667849824,0.11185794203297343,0.1875,,
3.8162849999992177,1500,,,,0.125,0.21875,-0.8984375,0.03469671546337741,1.6457249925894675,15.146791822722316,0.9756315867701801,2792,0,14.777688540480161,10.142779458334978,68.63576418295128,0.16225581945756187,0.11136552161600735,0.189453125,,
3.824299999997951,1500,,,,-0.125,-0.046875,-1.017578125,0.03469671546337741,1.6457249925894675,15.147047112134949,0.9733516352085412,2793,0,14.743403075177364,10.149981387051197,68.84422365240863,0.16214069069023077,0.11162449973034257,0.19140625,,
3.832370000000112,1500,,,,0.125,-0.10546875,-0.82421875,0.03469671546337741,1.6457249925894675,15.147223724811223,0.9728861611833275,2795,0,14.736524342216613,10.157079988671327,68.92452896490474,0.16202737346018958,0.11167660395164275,0.19140625,,
3.840319999999367,1500,,,,-0.125,0.05859375,-1.080078125,0.03469671546337741,1.6457249925894675,15.147261853945421,0.9700977991998384,2797,0,14.694325388416118,10.160973919344952,69.14896499675369,0.1619652806564395,0.11199731522801523,0.19140625,,
3.8485,1500,,,,0.0625,0.23046875,-0.7734375,0.03469671546337741,1.6457249925894675,15.147494247189215,0.9670202928295741,2797,0,14.647934322551205,10.163043989763397,69.38209692896355,0.16193229058607875,0.11235201881372407,0.193359375,,
3.867754999998957,1500,,,,0.03125,0.294921875,-0.9921875,0.0344379341058837,1.6457249925894675,15.147767739152997,0.9625412064579881,2796,0,14.580350634789717,10.083750443032942,69.15986244509389,0.16320564475358773,0.11287279941420987,0.1953125,,
3.8751699999989944,1500,,,,-0.125,-0.1875,-0.994140625,0.0344379341058837,1.6457249925894675,15.1479520008719,0.9608013821336499,2796,0,14.554173218931908,10.083504653944193,69.28256591606097,0.16320962295046268,0.1130758146020089,0.197265625,,
3.8836849999986587,1500,,,,-0.03125,0.205078125,-0.984375,0.0344379341058837,1.6457249925894675,15.148053936033602,0.9618142665478316,2794,0,14.569614386113154,10.076983573896445,69.1643807917195,0.16331524017291998,0.11295597460410961,0.197265625,,
3.8948149999994786,1500,,,,-0.1875,-0.18359375,-1.0390625,0.0344379341058837,1.6457249925894675,15.148050910236643,0.9602278183782463,2792,0,14.54557987821914,10.06749680435207,69.21344414344975,0.16346913483777203,0.11314261833272189,0.19921875,,
3.9030699999984355,1500,,,,0.041015625,0.107421875,-0.94140625,0.0344379341058837,1.6457249925894675,15.147783999780868,0.9646095299829787,2793,0,14.611696804312308,10.073476191414581,68.94117997604239,0.16337210326581061,0.1126306557431283,0.19921875,,
3.9117699999986217,1500,,,,-0.1875,-0.03515625,-1.0546875,0.0344379341058837,1.6457249925894675,15.147729575872345,0.96859261992259,2794,0,14.671979075773098,10.077829636783957,68.6875954820903,0.16330152938710046,0.11216789392147838,0.201171875,,
3.9205149999996647,1500,,,,0.0625,0.01953125,-0.89453125,0.0344379341058837,1.6457249925894675,15.14763389010847,0.9700087057795338,2795,0,14.693336745366322,10.081361194384032,68.61178892917759,0.16324432394171556,0.1120048509817528,0.19921875,,
3.9282099999999627,1500,,,,-0.25,0.04296875,-1.2421875,0.0344379341058837,1.6761445325439626,15.147717875091322,0.9658404168767758,2795,0,14.63027814720999,10.079355500526518,68.89380638637182,0.16629481244672892,0.11456682611762956,0.201171875,,
3.936469999998808,1500,,,,0.03125,0.046875,-0.869140625,0.0344379341058837,1.6761445325439626,15.147926624930358,0.9621447784658718,2793,0,14.5744985067609,10.072234928546393,69.10862095099895,0.16641237465515119,0.1150052972159847,0.19921875,,
3.9455,1500,,,,-0.125,0.017578125,-1.037109375,0.0344379341058837,1.6761445325439626,15.148076337159765,0.9605764823180963,2793,0,14.55088588183492,10.073440766740411,69.22905483930654,0.1663924543119474,0.11519192344408616,0.19921875,,
3.953599999998696,1500,,,,0,0.189453125,-0.88671875,0.0344379341058837,1.6761445325439626,15.1476836436603,0.9561988474858478,2794,0,14.484197642148208,10.077808448180697,69.57795452096592,0.16632034049491679,0.11572229086866885,0.19921875,,
3.961724999998696,1500,,,,-0.09375,-0.12109375,-1,0.0344379341058837,1.6761445325439626,15.147831793689738,0.953989840398633,2793,0,14.450877635247412,10.07103059745805,69.69148069521816,0.16643227486241827,0.11598911670635466,0.19921875,,
3.9695449999999255,1500,,,,0.125,0.2734375,-0.90234375,0.0344379341058837,1.6761445325439626,15.148035986523508,0.952982571065129,2791,0,14.43581428102427,10.064171020186608,69.71668396576602,0.16654571242698177,0.11611014799125238,0.201171875,,
3.9770899999979883,1500,,,,-0.1875,-0.15625,-1.037109375,0.0344379341058837,1.6761445325439626,15.148034286310434,0.9540275114471247,2790,0,14.451641453484465,10.061482234644135,69.6217261342184,0.16659021935879273,0.11598298628837238,0.201171875,,
3.985114999999292,1500,,,,0,-0.00390625,-0.86328125,0.0344379341058837,1.6761445325439626,15.148232111360699,0.952350493976444,2790,0,14.426426334124193,10.060387916508336,69.73582842697188,0.16660834020063342,0.11618570626733934,0.201171875,,
3.99468499999959,1500,,,,0,0.177734375,-1.03125,0.0344379341058837,1.6761445325439626,15.14800092849352,0.9521465149434806,2792,0,14.423116292425712,10.067772721006003,69.80303366404308,0.16648613144064667,0.11621237037547762,0.201171875,,
4.003314999999478,1500,,,,-0.09375,-0.048828125,-0.892578125,0.0344379341058837,1.6761445325439626,15.148148323849332,0.9508721455510784,2794,0,14.403952297824587,10.074389730425308,69.94184319776477,0.16637678086662638,0.11636698719122451,0.203125,,
4.011459999999963,1500,,,,0.125,0.27734375,-0.8828125,0.034632887589735296,1.6761445325439626,15.147815376736718,0.9512921680991474,2791,0,14.409998131701476,10.12249063482032,70.24630081353867,0.16558617765258274,0.1163181644594738,0.203125,,
4.019454999999144,1500,,,,-0.15625,0.03125,-1.130859375,0.034632887589735296,1.6761445325439626,15.147824471897014,0.952757427355335,2790,0,14.432202273874784,10.118946271752185,70.11366719873052,0.1656441775190613,0.11613920735978904,0.203125,,
4.0276949999984355,1500,,,,0.09375,0.0703125,-0.83203125,0.034632887589735296,1.6761445325439626,15.147833089158748,0.9554198585387228,2790,0,14.472540547212235,10.119144088334263,69.91961124809878,0.165640939383034,0.11581550088431632,0.205078125,,
4.035624999998137,1500,,,,-0.15625,0.046875,-1.16015625,0.034632887589735296,1.6761445325439626,15.147770059008684,0.9570469560011418,2791,0,14.497127225179495,10.123148195718004,69.82864976266127,0.16557542180929008,0.11561908138825824,0.205078125,,
4.045114999999292,1500,,,,0,-0.0703125,-0.71875,0.034632887589735296,1.6761445325439626,15.147663832721241,0.9569632273111632,2794,0,14.495757267585503,10.131433525457018,69.89240602222479,0.16544001678857717,0.1156300082571092,0.205078125,,
4.053394999998622,1500,,,,-0.125,0.111328125,-1.076171875,0.034632887589735296,1.6761445325439626,15.148016247850514,0.9530729367274798,2793,0,14.437164330934468,10.129452242879328,70.1623394365262,0.16547237623063352,0.11609929028462278,0.205078125,,
4.061424999999813,1500,,,,0.03125,0.1015625,-0.869140625,0.034632887589735296,1.6761445325439626,15.148015491746342,0.9525390573586725,2791,0,14.429076397362628,10.123312917814552,70.15911926050173,0.1655727276388304,0.11616436744699273,0.205078125,,
4.070794999999926,1500,,,,0,-0.0703125,-1.04296875,0.034632887589735296,1.6761445325439626,15.148087804916072,0.9503005372053812,2791,0,14.395235978646028,10.120723339594704,70.30606066206792,0.1656150925484231,0.11643744743263429,0.205078125,,
4.078724999999627,1500,,,,-0.09375,0.19140625,-1.00390625,0.034632887589735296,1.696541420097223,15.148083447692253,0.9501098296495984,2790,0,14.392342984004788,10.119841495497484,70.31406565799861,0.16764505855670245,0.11787805654594999,0.205078125,,
4.0870699999993665,1500,,,,0,-0.115234375,-0.96875,0.034632887589735296,1.696541420097223,15.148079466958597,0.9528556535027262,2793,0,14.433933159800063,10.12899234360845,70.17485969672286,0.16749360277360328,0.11753840074736242,0.205078125,,
4.0954599999981,1500,,,,-0.1875,-0.015625,-1.015625,0.034632887589735296,1.696541420097223,15.148075043488062,0.9534638331586447,2793,0,14.44314169593893,10.129532551938754,70.13385844429497,0.1674846703338262,0.11746346160781974,0.205078125,,
4.10452499999851,1500,,,,0.03125,0.14453125,-0.943359375,0.034632887589735296,1.696541420097223,15.147776816292401,0.95211956154404,2791,0,14.422494620695295,10.12293854551826,70.18854096844338,0.16759376859482517,0.11763162093073705,0.205078125,,
4.113614999998361,1500,,,,-0.15625,-0.154296875,-0.986328125,0.034632887589735296,1.696541420097223,15.147862681916857,0.9503716825821084,2790,0,14.396099744536052,10.120019708868575,70.29695465057864,0.16764210633013651,0.11784729546217089,0.205078125,,
4.122479999999515,1500,,,,0.0625,0.234375,-0.943359375,0.034632887589735296,1.696541420097223,15.147724732971515,0.9518157166296753,2790,0,14.41784247202234,10.117858121561175,70.17595136855438,0.16767792152391325,0.11766957666442414,0.205078125,,
4.130604999998584,1500,,,,-0.125,-0.103515625,-0.98828125,0.034632887589735296,1.696541420097223,15.147934935891477,0.9494165450974199,2789,0,14.381700052194594,10.116053749301985,70.33976311971763,0.16770782976655155,0.11796529019101168,0.20703125,,
4.1385300000002605,1500,,,,0.125,0.26953125,-0.8671875,0.034632887589735296,1.696541420097223,15.147938103608833,0.9499073935333905,2789,0,14.389138401404196,10.114816305693514,70.29480170061078,0.16772834709239942,0.11790430898431432,0.20703125,,
4.146489999999292,1500,,,,-0.0625,0.099609375,-1.056640625,0.034632887589735296,1.696541420097223,15.148336183240673,0.948878792463344,2789,0,14.37393494538219,10.115923874293447,70.37685861757234,0.1677099829120372,0.11802901756155913,0.20703125,,
4.154549999998882,1500,,,,0,-0.03125,-0.87890625,0.034632887589735296,1.696541420097223,15.148122538425408,0.9488659014405026,2789,0,14.37353694755422,10.116358148342947,70.3818286706692,0.1677027834740228,0.11803228574063006,0.20703125,,
4.162194999998436,1500,,,,0.0625,0.21875,-1.02734375,0.03491966261375361,1.696541420097223,15.148116605198465,0.9491683170277847,2789,0,14.378112344296866,10.198701711367672,70.9321325856313,0.1663487636084331,0.11799472555729214,0.20703125,,
4.170819999999367,1500,,,,-0.1875,-0.1015625,-1.09765625,0.03491966261375361,1.696541420097223,15.148110897499182,0.9510650772337222,2789,0,14.40683926067505,10.198126218931469,70.78670091619821,0.16635815086773675,0.11775944670446262,0.208984375,,
4.179294999999925,1500,,,,0.09375,0.0546875,-0.916015625,0.03491966261375361,1.696541420097223,15.148104808770823,0.9541428259110053,2789,0,14.453455529436681,10.197887548862381,70.55674352816749,0.16636204429283785,0.11737964091991399,0.208984375,,
4.188159999999217,1500,,,,-0.21875,-0.03125,-1.048828125,0.03491966261375361,1.696541420097223,15.147734285700281,0.9579951819602335,2789,0,14.511456463314708,10.198368223079878,70.27804720264699,0.1663542032398662,0.11691048547650047,0.208984375,,
4.198279999998398,1500,,,,0.1875,-0.11328125,-0.765625,0.03491966261375361,1.696541420097223,15.147552198297628,0.9589143496943728,2789,0,14.525205165692137,10.199600775335673,70.22001175877818,0.1663341004679067,0.116799824907422,0.2109375,,
4.205459999999031,1500,,,,-0.09375,0.146484375,-1.091796875,0.03491966261375361,1.696541420097223,15.147425479197373,0.960186394511636,2791,0,14.544351857004216,10.207085407019965,70.17903243384802,0.16621213132305326,0.1166460655501956,0.2109375,,
4.214024999999441,1500,,,,0,0.044921875,-0.869140625,0.03491966261375361,1.696541420097223,15.147357910707177,0.9580937579126279,2794,0,14.51258906311701,10.215779241726665,70.39253435274024,0.1660706814383427,0.11690136148131519,0.208984375,,
4.222649999999441,1500,,,,-0.0625,-0.0234375,-1.08203125,0.03491966261375361,1.696541420097223,15.147319346860476,0.956716690418235,2793,0,14.491693234236456,10.213583347365581,70.47888181372836,0.16610638621114465,0.11706992362280784,0.208984375,,
4.230459999999032,1500,,,,-0.0625,0.1328125,-1.0546875,0.03491966261375361,1.706037114023572,15.14735229515005,0.9531746754783859,2791,0,14.438072608286433,10.2072623643055,70.69684881933101,0.1671395378245135,0.11816238637312486,0.208984375,,
4.23834499999974,1500,,,,-0.0625,0.01171875,-0.87109375,0.03491966261375361,1.706037114023572,15.147514418876812,0.9543312223065723,2793,0,14.455745950273135,10.214377400033621,70.65963551912466,0.16702311332435754,0.11801792310768557,0.208984375,,
4.245479999999516,1500,,,,-0.09375,-0.083984375,-1.044921875,0.03491966261375361,1.706037114023572,15.147710381990414,0.9537972196809132,2794,0,14.447844046874161,10.217020900212342,70.7165779687581,0.16697989861096546,0.11808247019337662,0.208984375,,
4.253989999999292,1500,,,,0.03125,0.103515625,-0.86328125,0.03491966261375361,1.706037114023572,15.147724612192642,0.9525860465372251,2792,0,14.42951110236321,10.210722695030862,70.76277652510757,0.16708289559698158,0.11823249602297085,0.20703125,,
4.262754999999888,1500,,,,-0.125,-0.0625,-1.03125,0.03491966261375361,1.706037114023572,15.147887102715245,0.9515283768805914,2790,0,14.413644428017083,10.204091899536879,70.79466924896717,0.16719146895384213,0.11836264745836214,0.208984375,,
4.27071499999892,1500,,,,0.125,0.328125,-0.92578125,0.03491966261375361,1.706037114023572,15.147763321778019,0.9498082252519664,2789,0,14.387470197194812,10.20027654937494,70.89694303147007,0.16725400588556746,0.11857797727054235,0.208984375,,
4.279789999998175,1500,,,,-0.09375,-0.068359375,-0.9765625,0.03491966261375361,1.706037114023572,15.14770230865641,0.947204550430337,2789,0,14.347972555323473,10.198647489405857,71.08075688102632,0.1672807218600082,0.11890440321413825,0.208984375,,
4.287729999999516,1500,,,,0,0.16015625,-0.947265625,0.03491966261375361,1.706037114023572,15.147520786197052,0.9472737893376503,2790,0,14.348849414211704,10.201321700813889,71.09505024639864,0.16723687028588263,0.11889713696025278,0.208984375,,
4.296344999998808,1500,,,,0,0.16015625,-1.0546875,0.03491966261375361,1.706037114023572,15.147547056475048,0.9477047767057427,2790,0,14.355402700796416,10.202439532145357,71.07038196552537,0.16721854696107455,0.11884286004243709,0.20703125,,
