Time (s),ESC signal (µs),Servo 1 (µs),Servo 2 (µs),Servo 3 (µs),AccX (g),AccY (g),AccZ (g),Torque (N·m),Thrust (N),Voltage (V),Current (A),Motor Electrical Speed (RPM),Motor Optical Speed (RPM),Electrical Power (W),Mechanical Power (W),Motor Efficiency (%),Propeller Mech. Efficiency (N/W),Overall Efficiency (N/W),Vibration (g),App message,90% settling time (s),Max acceleration (RPM/s),
0,1000,,,,-0.0625,0.046875,-0.95703125,-0.0008179100154416965,0.014649325314087887,15.179856773703394,0.06477028489531952,0,0,0.9832036479029147,0,0,0,0,0.05859375,,
0,1200,,,,-0.0625,0.046875,-0.95703125,-0.0008179100154416965,0.013412807768860663,15.179652852050753,0.06497706125660485,0,0,0.9863292332216983,0,0,0,0,0.05859375,,
0.007560000000521541,1200,,,,-0.0625,0.048828125,-0.95703125,-0.0008179100154416965,0.013412807768860663,15.179768438177664,0.06521007265521422,0,0,0.9898738027428933,0,0,0,0,0.05859375,,
0.016419999999925494,1200,,,,-0.0625,0.048828125,-0.953125,-0.0008179100154416965,0.013412807768860663,15.1798788680292,0.06575469953308388,0,0,0.9981483739158695,0,0,0,0,0.05859375,,
0.023294999998994172,1200,,,,-0.0625,0.05078125,-0.953125,-0.0008179100154416965,0.013412807768860663,15.179948516676857,0.06584010773917362,0,0,0.999449445813113,0,0,0,0,0.05859375,,
0.031979999999515715,1200,,,,-0.0625,0.048828125,-0.955078125,-0.0008179100154416965,0.013412807768860663,15.179951119886525,0.06537989971725018,0,0,0.9924636819309406,0,0,0,0,0.05859375,,
0.03973000000044703,1200,,,,-0.0625,0.05078125,-0.955078125,-0.0008179100154416965,0.013412807768860663,15.179823776627376,0.06569621277957513,0,0,0.9972569327857659,0,0,0,0,0.05859375,,
0.04795500000007451,1200,,,,0,0,-0.94921875,-0.0008179100154416965,0.013412807768860663,15.179174256660582,0.08935861695783749,0,0,1.3563900181372006,0,0,0,0,0.05859375,,
0.0568999999994412,1200,,,,-0.03125,0.017578125,-0.9609375,-0.0008179100154416965,0.013412807768860663,15.178122088876151,0.12507896732575244,0,0,1.8984638368208215,0,0,0,0,0.05859375,,
0.06570999999903142,1200,,,,-0.1875,0.20703125,-1.0859375,-0.0008179100154416965,0.013412807768860663,15.176926555445174,0.15785869155438084,0,0,2.3958097678595114,0,0,0,0,0.05859375,,
0.07293500000052154,1200,,,,0,-0.060546875,-1.025390625,-0.0008179100154416965,0.013412807768860663,15.175704850745163,0.1876814858308434,0,0,2.8481988349181897,0,0,0,0,0.060546875,,
0.08005000000074505,1200,,,,0,-0.015625,-0.984375,-0.0008179100154416965,0.013412807768860663,15.17484886186817,0.21395080012842002,0,0,3.246671055824539,0,0,0,0,0.060546875,,
0.09100000000093132,1200,,,,-0.125,0.1015625,-0.96875,-0.0008179100154416965,0.013412807768860663,15.173917761658613,0.24038105015876912,0,0,3.6475222865702968,0,0,0,0,0.0625,,
0.10046499999985099,1200,,,,0,0.0390625,-1.0234375,-0.0008179100154416965,0.013412807768860663,15.172720159996631,0.2704233836956319,0,0,4.103058325533218,0,0,0,0,0.0625,,
0.11828500000108033,1200,,,,0,0.083984375,-0.9921875,-0.0007802301498221079,0.013412807768860663,15.171433352536134,0.3013391375710807,1,0,4.5717466421703685,0.00006176770416883348,0.001351074523664115,0,0.0029338475682661918,0.0625,,
0.12587000000011175,1200,,,,-0.125,0.1171875,-0.94140625,-0.0007802301498221079,0.013412807768860663,15.171276114930963,0.30862322455122027,1,0,4.6822081551469035,0.00007355429789537764,0.0015709318222967786,0,0.002864632951894006,0.064453125,,
0.13415500000026076,1200,,,,0.125,0.01953125,-1.01953125,-0.0007802301498221079,0.013412807768860663,15.171059482609026,0.311264779857365,1,0,4.7222164900572885,0.00007853861044677103,0.0016631725930425995,0,0.0028403627400610644,0.064453125,,
0.14301999999955298,1200,,,,-0.125,0.052734375,-0.9140625,-0.0007802301498221079,0.012920447151836384,15.170890656176079,0.31374495676747394,1,0,4.759790433046038,0.00008074848790466844,0.0016964714947122846,0,0.002714499164108769,0.06640625,,
0.15083500000089406,1200,,,,-0.03125,0,-1.001953125,-0.0007802301498221079,0.012920447151836384,15.170814147630635,0.31305672139556945,1,0,4.749325337958767,0.00008149288449659548,0.0017158833875891234,0,0.0027204805382714673,0.06640625,,
0.15904000000096857,1200,,,,-0.0625,0.025390625,-0.96875,-0.0007802301498221079,0.012920447151836384,15.170872206904457,0.30943493232333535,1,0,4.69439781462945,0.00008178487004129398,0.0017421802171606038,0,0.0027523119390460635,0.068359375,,
0.16720000000018626,1200,,,,0.0625,0.01953125,-1.05859375,-0.0007802301498221079,0.012920447151836384,15.17099225760762,0.30769325523835156,1,0,4.668011992939117,0.00008190015369677688,0.0017544974995921153,0,0.0027678693138278106,0.068359375,,
0.18457999999914318,1200,,,,-0.03125,0.0546875,-0.96484375,-0.0007802301498221079,0.012920447151836384,15.171469028709398,0.295436575851749,1,0,4.482206860482765,0.00008196607386827082,0.001828699040888142,0,0.0028826084011760143,0.0703125,,
0.1921499999994412,1200,,,,0.0625,-0.0625,-0.96875,-0.0007802301498221079,0.012920447151836384,15.171549254287653,0.29012090007418234,1,0,4.401583525173724,0.00008197159241008523,0.0018623205021844934,0,0.0029354088313765293,0.0703125,,
0.2008850000007078,1200,,,,-0.0625,0.06640625,-0.96484375,-0.0007802301498221079,0.012920447151836384,15.171684655297769,0.28477927964132566,1,0,4.320581427081053,0.00008197435007813498,0.0018972990432335431,0,0.0029904417657429325,0.0703125,,
0.2091150000002235,1200,,,,-0.0625,0.0390625,-0.974609375,-0.0007802301498221079,0.012920447151836384,15.171895114975474,0.2773545184684932,1,0,4.207993663868507,0.00008197527442738263,0.0019480845499187573,0,0.003070453090929399,0.0703125,,
0.21719999999925493,1200,,,,0,0.00390625,-0.9921875,-0.0007802301498221079,0.012920447151836384,15.172292858768165,0.2717441514980482,118,0,4.122981849185851,0.009625927783557581,0.23347004997022663,0,0.0031337628018876036,0.0703125,,
0.22524500000011177,1200,,,,-0.0625,0.041015625,-0.9609375,-0.0007802301498221079,0.012920447151836384,15.172278434949584,0.26497970969638585,281,0,4.020345935125676,0.022980046886694937,0.5715937697280913,0.5622463355075705,0.0032137650242857747,0.0703125,,
0.2342250000005588,1200,,,,-0.0625,0.03515625,-0.94140625,-0.0007802301498221079,0.012920447151836384,15.172552855618596,0.2573292034444753,348,0,3.9043409405555325,0.028472557375567472,0.729253869195046,0.45378597297773904,0.0033092517658045474,0.0703125,,
0.2433199999993667,1200,,,,-0.03125,0.021484375,-0.966796875,-0.0007802301498221079,0.012920447151836384,15.172721119063873,0.24975672478018865,372,0,3.7894891327005915,0.030359232373552404,0.801143143849493,0.4255854361815846,0.0034095485431907247,0.0703125,,
0.25392999999877064,1200,,,,0,0.0625,-0.984375,0.0021182927405360265,0.012920447151836384,15.173085738571297,0.23912035820962232,382,0,3.6281936969524806,0.08480202549902491,2.3373070067966544,0.15236012436972923,0.0035611238624577786,0.0703125,,
0.262160000000149,1200,,,,-0.03125,0.013671875,-0.962890625,0.0021182927405360265,0.012920447151836384,15.173240104148888,0.2321001964436553,385,0,3.521712008859706,0.08541865119841589,2.4254865526631626,0.15126025722209013,0.0036687971984455062,0.0703125,,
0.270535000000149,1200,,,,-0.03125,0.01953125,-0.970703125,0.0021182927405360265,0.012920447151836384,15.173475412444168,0.2260040415131691,386,0,3.4292667670130825,0.08563863338450736,2.4972870063153256,0.1508717110632196,0.003767699636587384,0.0703125,,
0.278089999999851,1200,,,,-0.0625,0.0859375,-1.00390625,0.0021182927405360265,0.012920447151836384,15.173730693026398,0.21949784730753907,386,0,3.3306012227436272,0.08572458625754666,2.5738471982824134,0.15072043757690284,0.003879313759812108,0.0703125,,
0.28608499999996273,1200,,,,-0.0625,0.0234375,-0.95703125,0.0021182927405360265,0.012920447151836384,15.17403592612842,0.2131525219344577,387,0,3.234384025578337,0.085758274565892,2.6514561625241035,0.15066123026891143,0.0039947164744996815,0.0703125,,
0.29420000000018626,1200,,,,-0.03125,0.01953125,-0.951171875,0.0021182927405360265,0.023755284634548048,15.174133217419685,0.20798362328082687,387,0,3.1559712067048973,0.08577176936737056,2.717761467061152,0.27695924672838884,0.007527091687046976,0.0703125,,
0.30200999999977646,1200,,,,-0.03125,0.037109375,-0.96484375,0.0021182927405360265,0.023755284634548048,15.17422340459763,0.20287772443615143,443,0,3.0785119144105573,0.09824589184901746,3.191343564048821,0.24179417772556586,0.007716482929089613,0.0703125,,
0.3103649999992922,1200,,,,-0.0625,0.00390625,-1.0078125,0.0021182927405360265,0.023755284634548048,15.174510685895163,0.19744580756590918,494,0,2.996143516794089,0.10962850241545855,3.6589870211812285,0.2166889459505957,0.007928620408666705,0.0703125,,
0.3206499999994412,1200,,,,-0.03125,0.044921875,-0.9609375,0.0021182927405360265,0.023755284634548048,15.174813401337936,0.19099696809603214,515,0,2.8983433510785828,0.1143092238526953,3.9439503884229774,0.2078159909926457,0.008196159583959509,0.0703125,,
0.33070999999996276,1200,,,,-0.0625,0.03125,-0.9453125,0.0021182927405360265,0.023755284634548048,15.175045908391645,0.18381552476900515,523,0,2.7894090270447545,0.11605325497477949,4.160496142716379,0.20469296306864043,0.008516242832882647,0.068359375,,
0.3522849999992177,1200,,,,-0.01953125,0.00390625,-0.94921875,0.0021182927405360265,0.023755284634548048,15.175376492363783,0.17239047019234163,527,0,2.6160902888644006,0.11683722368598247,4.4661005846514366,0.2033194891586429,0.009080452894024467,0.068359375,,
0.3606949999993667,1200,,,,-0.0625,0.056640625,-0.962890625,0.0021182927405360265,0.023755284634548048,15.175606569344414,0.16922683943868902,527,0,2.568119936295161,0.11688328049053832,4.551317048656118,0.20323937294411437,0.00925006823038727,0.068359375,,
0.3682250000005588,1200,,,,-0.0625,0.03125,-1.00390625,0.0021182927405360265,0.023755284634548048,15.175739935592242,0.16517244331072642,527,0,2.5066140442099365,0.11689997992321302,4.6636609330918715,0.20321033972933064,0.009477041225960063,0.068359375,,
0.3771450000004843,1200,,,,-0.03125,0.05078125,-0.978515625,0.0021182927405360265,0.023755284634548048,15.175536303819865,0.16174634515507944,530,0,2.454587532911086,0.11767703165741246,4.794167251303934,0.2018684895426805,0.009677913016357094,0.068359375,,
0.3852050000010058,1200,,,,0,0.00390625,-0.9765625,0.0021182927405360265,0.023755284634548048,15.175695216983543,0.1574065406245525,538,0,2.388753685677947,0.11943150356500869,4.999741257588602,0.19890300235245403,0.009944635471198074,0.068359375,,
0.3974000000003725,1200,,,,-0.0625,0.033203125,-0.98046875,0.0021182927405360265,0.023755284634548048,15.175711597329881,0.15397232164656297,542,0,2.3366395472795523,0.12012452567763798,5.140909551817427,0.19775549164953132,0.01016643095945427,0.068359375,,
0.40565000000037255,1200,,,,-0.08203125,0.029296875,-0.955078125,0.00440547015993349,0.023755284634548048,15.17611470525472,0.15913321753615392,543,0,2.415023962744924,0.25042215272868434,10.369344428535348,0.09486095529370084,0.009836459182602774,0.068359375,,
0.4131550000002608,1200,,,,0.1875,-0.125,-1.02734375,0.00440547015993349,0.023755284634548048,15.17540547695198,0.18165516627607148,543,0,2.756690805222518,0.25055524233100435,9.088986035587684,0.0948105671768996,0.008617319210969887,0.0703125,,
0.421375,1200,,,,-0.0625,0.072265625,-0.953125,0.00440547015993349,0.023755284634548048,15.174647687956217,0.2033706059655874,543,0,3.0860772956139555,0.25061603313786507,8.12086053366355,0.09478756940295258,0.007697566314463321,0.0703125,,
0.4300750000001863,1200,,,,-0.0625,-0.017578125,-1.00390625,0.00440547015993349,0.023755284634548048,15.17347178388336,0.24843921895594825,543,0,3.7696854788381007,0.2506413855402588,6.648867311272662,0.09477798163038165,0.006301662238906452,0.0703125,,
0.43826500000059604,1200,,,,-0.0625,0.01953125,-0.96484375,0.00440547015993349,0.023755284634548048,15.172614970928898,0.2822252326399844,543,0,4.282094789927318,0.25064991793325153,5.853441603461233,0.09477475528587292,0.005547584955481861,0.072265625,,
0.44635500000044703,1200,,,,-0.09375,0.095703125,-1.001953125,0.00440547015993349,0.044800210857007375,15.171802162787166,0.3151660257163891,585,0,4.7816365906009475,0.2696606500531741,5.6395053229941015,0.1661355145742372,0.009369221187797745,0.072265625,,
0.4537550000008196,1200,,,,-0.0625,0.09765625,-1.0625,0.00440547015993349,0.044800210857007375,15.170853508407962,0.3363641485110833,621,0,5.102931222542025,0.2864941727248002,5.614305978869987,0.15637389909511856,0.008779309166289362,0.072265625,,
0.46238499999884514,1200,,,,0,0.0546875,-0.9375,0.00440547015993349,0.044800210857007375,15.170206692856276,0.3560247975665822,636,0,5.400969766867366,0.2934328966393042,5.432966843091573,0.15267617015714846,0.008294845701939947,0.072265625,,
0.4701000000005588,1200,,,,-0.03125,0.111328125,-1.015625,0.00440547015993349,0.044800210857007375,15.169906587215351,0.3632770569902731,642,0,5.51087901982095,0.2960597729890432,5.372278577051075,0.15132150648060308,0.008129412875128394,0.072265625,,
0.4782099999999627,1200,,,,-0.03125,0.00390625,-0.921875,0.00440547015993349,0.044800210857007375,15.169813083436733,0.36867896915760834,644,0,5.592791049915054,0.29711535812655177,5.312470204497707,0.15078389464446804,0.008010349476168578,0.072265625,,
0.4862649999996647,1200,,,,-0.0625,0.08203125,-1.046875,0.00440547015993349,0.044800210857007375,15.169592735327187,0.3706256818337967,645,0,5.622240650671648,0.29753210610706726,5.29205568729121,0.15057269429903464,0.00796839083215967,0.072265625,,
0.49441999999899416,1200,,,,-0.03125,0.05078125,-0.99609375,0.00440547015993349,0.044800210857007375,15.169314852100646,0.3705543352022879,755,0,5.621055380494347,0.34834679992586637,6.197177866894291,0.1286080735248366,0.007970071067520311,0.072265625,,
0.5020400000000372,1200,,,,-0.0625,0.12109375,-0.98046875,0.00440547015993349,0.044800210857007375,15.169315803762435,0.3696438205179083,852,0,5.607243848345432,0.3930192843437846,7.009134879335692,0.11398985403937435,0.007989702618377633,0.072265625,,
0.5101899999994784,1200,,,,-0.09375,0.05078125,-0.9765625,0.00440547015993349,0.044800210857007375,15.169448770194158,0.367040596255897,891,0,5.567803521485348,0.4109286844881105,7.38044514147089,0.10902186327735801,0.008046298811394806,0.072265625,,
0.5181500000003725,1200,,,,0,0.11328125,-0.94921875,0.00440547015993349,0.044800210857007375,15.169507591272703,0.3648386037783899,906,0,5.534421969605619,0.4178397676543292,7.5498357362169894,0.10721863816004638,0.008094831059692368,0.072265625,,
0.5264399999994784,1200,,,,-0.0625,-0.005859375,-0.9453125,0.00440547015993349,0.044800210857007375,15.16982951524621,0.3618264800065687,912,0,5.488846015801289,0.4206390057075204,7.663523525647921,0.10650512731612424,0.008162045487892452,0.072265625,,
0.5340450000008569,1200,,,,-0.03125,0.0546875,-1.015625,0.00440547015993349,0.044800210857007375,15.169999972369343,0.3585987535717818,950,0,5.439943081775611,0.4381820558077222,8.05490148004818,0.10224108966403239,0.00823541904456553,0.07421875,,
0.5420799999991431,1200,,,,-0.0625,0.00390625,-0.95703125,0.00440547015993349,0.044800210857007375,15.17019904715584,0.3552363229103928,1001,0,5.389005727330385,0.4619176524689741,8.5714819363868,0.0969874405482187,0.008313260947154453,0.072265625,,
0.5522999999998137,1200,,,,-0.0625,0.09765625,-0.984375,0.00440547015993349,0.044800210857007375,15.170285584385962,0.3493439344574285,1021,0,5.299647252892202,0.47098758331686713,8.887149669439468,0.09511972808605243,0.00845343260017133,0.07421875,,
0.5607800000002607,1200,,,,0,0.03125,-0.986328125,0.010824501805677457,0.044800210857007375,15.170556216018195,0.34158939381361664,1030,0,5.182101101645049,1.1673608772842505,22.526786999845946,0.038377344768680814,0.008645182712237248,0.072265625,,
0.5695450000008568,1200,,,,-0.03125,0.021484375,-0.94921875,0.010824501805677457,0.044800210857007375,15.171010982032701,0.33328206108189035,1033,0,5.056225808787852,1.1704887703394156,23.149456029140858,0.03827478912421886,0.008860405478557433,0.072265625,,
0.5770200000004843,1200,,,,-0.03125,0.013671875,-0.98828125,0.010824501805677457,0.044800210857007375,15.171432228901722,0.3279444178941769,1058,0,4.9753865109281294,1.1996040081521482,24.11077019880349,0.037345832918661996,0.009004367953847701,0.072265625,,
0.5850900000007823,1200,,,,-0.0625,0,-0.94921875,0.010824501805677457,0.044800210857007375,15.171723950578809,0.32150874549864805,1069,0,4.877841934402386,1.2118503828854126,24.843986319820832,0.036968433966524966,0.00918443267729546,0.072265625,,
0.5926150000002235,1200,,,,-0.03125,0.0234375,-0.97265625,0.010824501805677457,0.07805499140858851,15.17173595646394,0.3159591043463996,1073,0,4.793648104184413,1.2163179726954536,25.373534858216228,0.06417317935014369,0.01628300403203433,0.072265625,,
0.601414999999106,1200,,,,-0.0625,0.1171875,-1.03125,0.010824501805677457,0.07805499140858851,15.171750502615025,0.308753754578312,1075,0,4.684334931207781,1.218519484206948,26.01264645038463,0.06405723701610667,0.01666298259088474,0.072265625,,
0.6085750000001863,1200,,,,-0.0625,0.06640625,-0.962890625,0.010824501805677457,0.07805499140858851,15.171762535264367,0.3038363582150378,1076,0,4.609733076418074,1.219257468733268,26.449632734064384,0.0640184648527786,0.01693264883554603,0.072265625,,
0.6155,1200,,,,-0.03125,0.037109375,-1,0.010824501805677457,0.07805499140858851,15.171944866422685,0.29936560451034144,1086,0,4.541958446534198,1.2308163128271459,27.098801702299514,0.0634172545449115,0.01718531605416809,0.072265625,,
0.6223699999991804,1200,,,,-0.0625,0.078125,-1.046875,0.010824501805677457,0.07805499140858851,15.171947274788785,0.29537007981673985,1090,0,4.481339277529732,1.2358727096169475,27.578200021896198,0.06315779189976714,0.017417782179530737,0.07421875,,
0.630105000000447,1200,,,,-0.0625,0.04296875,-0.98046875,0.010824501805677457,0.07805499140858851,15.17204061133654,0.29014377937069,1092,0,4.4020732037387775,1.238152180466047,28.12656953124853,0.06304151673763415,0.01773141603876435,0.07421875,,
0.6379799999995157,1200,,,,0,0.017578125,-0.966796875,0.010824501805677457,0.07805499140858851,15.172231626701581,0.28296087552345917,1093,0,4.293147944736196,1.2391400442976217,28.86320388322336,0.06299125895235853,0.018181295500028432,0.072265625,,
0.6463999999994412,1200,,,,-0.0625,0.0625,-0.9921875,0.010824501805677457,0.07805499140858851,15.172220386259804,0.27817553600477524,1094,0,4.220540538330399,1.23953715500143,29.369156479936997,0.06297107843330317,0.018494074562180666,0.072265625,,
0.6545599999995902,1200,,,,-0.03125,0.056640625,-1.017578125,0.010824501805677457,0.07805499140858851,15.172308231385388,0.2739930311675302,1097,0,4.157106722125352,1.243518706672286,29.913081135346165,0.06276945492638974,0.018776277980345504,0.07421875,,
0.6645950000006705,1200,,,,-0.03125,0.044921875,-0.96484375,0.010824501805677457,0.07805499140858851,15.17243776147379,0.268138639538533,1100,0,4.068316819844647,1.2471833089071727,30.65600257147126,0.06258501925990587,0.01918606511367252,0.072265625,,
0.6735950000006705,1200,,,,-0.03125,0.04296875,-1.0078125,0.010824501805677457,0.07805499140858851,15.172892142371033,0.2631270907854801,1101,0,3.9923989682239602,1.248555316298699,31.27331026373162,0.06251624608830306,0.019550899604432997,0.072265625,,
0.6819749999996275,1200,,,,-0.0625,0.033203125,-0.951171875,0.010824501805677457,0.07805499140858851,15.173140495335161,0.25729049488677136,1102,0,3.903904827031295,1.248995009650256,31.993479989624852,0.06249423801176396,0.01999408153296223,0.072265625,,
0.6901450000004843,1200,,,,0,0.025390625,-0.97265625,0.010824501805677457,0.07805499140858851,15.173377680524013,0.25385508287183306,1103,0,3.8518390485350453,1.2503094152184469,32.460063867257695,0.06242854005458417,0.020264343973114572,0.072265625,,
0.6981799999997019,1200,,,,-0.125,0.046875,-0.9453125,0.010824501805677457,0.07805499140858851,15.173571701543999,0.2504649078211337,1106,0,3.80044723754458,1.2531764125682265,32.97444574912419,0.06228571701938172,0.02053836996800904,0.072265625,,
0.708085000000894,1200,,,,-0.03125,0.0546875,-1.03515625,0.008161425573230888,0.07805499140858851,15.1738890896338,0.2447516836077269,1107,0,3.7138349015647907,0.9457219796637103,25.464836341142654,0.08253481793491162,0.021017356311585297,0.07421875,,
0.7163650000002235,1200,,,,-0.09375,0.08984375,-0.947265625,0.008161425573230888,0.07805499140858851,15.174016017667784,0.24029558240831475,1107,0,3.646249016438577,0.9460915555684849,25.946981440465816,0.08250257699603612,0.021406928341067517,0.07421875,,
0.7324050000011921,1200,,,,-0.0625,0.046875,-0.986328125,0.008161425573230888,0.07805499140858851,15.174335711652555,0.23392692305901672,1109,0,3.549685662491437,0.9478239060443402,26.701629275508466,0.08235178592861639,0.021989268580419497,0.07421875,,
0.7404900000002235,1200,,,,-0.03125,0.01953125,-0.97265625,0.008161425573230888,0.1799009428532124,15.1742211353402,0.22874375241696784,1110,0,3.4710082825025794,0.948488850104451,27.32603246399042,0.18967112036520098,0.05182959192580916,0.07421875,,
0.7483099999995902,1200,,,,-0.0625,0.109375,-0.91015625,0.008161425573230888,0.1799009428532124,15.174177601055304,0.22466441057122016,1110,0,3.4090976666441013,0.9487514179413579,27.829986427913166,0.18961862870631518,0.052770838633762585,0.07421875,,
0.7563449999997393,1200,,,,-0.03125,0.041015625,-1.025390625,0.008161425573230888,0.1799009428532124,15.174168906163413,0.22216761571008803,1110,0,3.37120892626448,0.9488548777442055,28.145834283714915,0.18959795335711022,0.053363925757207345,0.07421875,,
0.764429999999702,1200,,,,-0.0625,0.14453125,-1.0625,0.008161425573230888,0.1799009428532124,15.174258472028058,0.21990989621929233,1110,0,3.3369696057884073,0.9488955056412732,28.435845025237587,0.18958983553371717,0.05391147181597065,0.076171875,,
0.7723300000000745,1200,,,,-0.0625,0.02734375,-0.974609375,0.008161425573230888,0.1799009428532124,15.174443218102184,0.21731579846736196,1111,0,3.297646244239522,0.9498693030104978,28.804463325008633,0.18939546975887922,0.05455434862592418,0.076171875,,
0.7798050000006334,1200,,,,-0.03125,0.0546875,-0.96484375,0.008161425573230888,0.1799009428532124,15.174647259930707,0.214484235364854,1112,0,3.2547226144776147,0.9502470428998894,29.195945567619585,0.18932018173316786,0.05527381720733416,0.076171875,,
0.7923150000004098,1200,,,,-0.0625,0.0234375,-0.98046875,0.008161425573230888,0.1799009428532124,15.174750688503302,0.2098899442254206,1112,0,3.1850275756446207,0.9504315487591936,29.84060659402093,0.18928342928859684,0.056483323481681974,0.076171875,,
0.8001700000008568,1200,,,,-0.0625,0.0703125,-1.025390625,0.008161425573230888,0.1799009428532124,15.174854276878248,0.20838139915349022,1112,0,3.1621573661662143,0.9504704700490967,30.057658743323167,0.1892756782269307,0.05689183744556126,0.076171875,,
0.8080449999999255,1200,,,,-0.0625,0.10546875,-0.9921875,0.008161425573230888,0.1799009428532124,15.174974400288196,0.20639321823595838,1113,0,3.1320118031237634,0.9509028362576769,30.360767967390107,0.18918961642939364,0.05743942046252356,0.076171875,,
0.8150050000008195,1200,,,,0,0.00390625,-0.95703125,0.008161425573230888,0.1799009428532124,15.175018487891675,0.20583538189148604,1113,0,3.1235557256655437,0.9510639835767551,30.44811961451751,0.1891575603322104,0.05759492022985454,0.076171875,,
0.8230949999997392,1200,,,,-0.0625,0.08984375,-1.01953125,0.008161425573230888,0.1799009428532124,15.174869415054582,0.20297014736084665,1113,0,3.080045481355233,0.9511400981212195,30.880716011463367,0.18914242308632503,0.05840853453048857,0.076171875,,
0.8316249999990687,1200,,,,0,0.0078125,-1,0.008161425573230888,0.1799009428532124,15.175055255977485,0.20016833294283345,1113,0,3.037565512904396,0.9511697838423383,31.31355619496972,0.18913652000853717,0.05922537047808343,0.076171875,,
0.8392499999990687,1200,,,,-0.0625,0.099609375,-0.955078125,0.008161425573230888,0.1799009428532124,15.174906281702354,0.19920356583278748,1113,0,3.022895442493475,0.95118150838139,31.465908314605667,0.18913418865695453,0.059512790394370615,0.076171875,,
0.8464249999998137,1200,,,,0,-0.00390625,-0.94921875,0.008161425573230888,0.1799009428532124,15.17495397746605,0.1991400758664273,1113,0,3.021941486342132,0.9513541054091413,31.481552826514026,0.1890998754620855,0.05953157718846869,0.076171875,,
0.8546950000002981,1200,,,,-0.0625,0.04296875,-0.99609375,0.007025419785001986,0.1799009428532124,15.174808708523969,0.1953352704105476,1113,0,2.964175362507862,0.8190018237168655,27.630005770776766,0.21965878175554027,0.06069173407507372,0.076171875,,
0.8648400000007823,1200,,,,-0.03125,0.0234375,-0.966796875,0.007025419785001986,0.1799009428532124,15.174768842238802,0.19395528698413447,1113,0,2.943226645714329,0.8190288996847631,27.827585105529064,0.2196515201386113,0.06112371370216036,0.076171875,,
0.8731900000004098,1200,,,,-0.03125,0.0703125,-0.9453125,0.007025419785001986,0.1799009428532124,15.174784077291072,0.1917845904306931,1113,0,2.9102897491374713,0.8190410360565271,28.142937874116075,0.21964826539020482,0.06181547487033895,0.076171875,,
0.8805599999995902,1200,,,,0,-0.046875,-0.953125,0.007025419785001986,0.1799009428532124,15.175036156947463,0.1903948461445702,1114,0,2.889248674340302,0.8195052612764934,28.3639573344655,0.21952384121731164,0.06226564866185806,0.076171875,,
0.9023700000001118,1200,,,,-0.041015625,0.0546875,-0.96875,0.007025419785001986,0.22357865511323874,15.175204204077684,0.18634650851401716,1115,0,2.827846319417111,0.8204724590294755,29.014039885965058,0.2724998903408733,0.07906322687271203,0.076171875,,
0.9089950000001118,1200,,,,0,-0.0390625,-0.9609375,0.007025419785001986,0.22357865511323874,15.17534885095753,0.18501020212726962,1115,0,2.8075943582674814,0.8205325713901065,29.22546731061403,0.2724799269509346,0.07963353197903036,0.076171875,,
0.916320000000298,1200,,,,-0.0625,0.01953125,-0.9453125,0.007025419785001986,0.22357865511323874,15.175464362727526,0.18480870790432516,1115,0,2.804557960723807,0.8205601018635417,29.258090342756525,0.27247078502291067,0.07971974843962112,0.076171875,,
0.9248800000008196,1200,,,,-0.0625,0.0625,-0.998046875,0.007025419785001986,0.22357865511323874,15.175490917195571,0.1826554012468441,1115,0,2.771885382598195,0.8201573346670267,29.58842886563591,0.27260459141538834,0.08065941561539959,0.076171875,,
0.9325400000000372,1200,,,,-0.0625,0.01953125,-0.9765625,0.007025419785001986,0.22357865511323874,15.175516033537873,0.1821148893787509,1115,0,2.7636874237132103,0.8199999505491484,29.670502659357194,0.2726569129223845,0.08089867659955731,0.076171875,,
0.9404749999996275,1200,,,,0,0.046875,-0.982421875,0.007025419785001986,0.22357865511323874,15.175539624187985,0.18013029690328483,1115,0,2.733574458172545,0.8199386587090526,29.995109745691718,0.2726772945006042,0.08178985373703923,0.076171875,,
0.948535000000149,1200,,,,-0.0625,0.03125,-0.986328125,0.007025419785001986,0.22357865511323874,15.17556221776194,0.1782271995695107,1114,0,2.7046979559645834,0.8199142479044276,30.31444772220488,0.2726854127546518,0.08266307689558752,0.076171875,,
0.9563650000002235,1200,,,,-0.0625,0.033203125,-1,0.007025419785001986,0.22357865511323874,15.175714164393867,0.17790823296812378,1114,0,2.6998844910166397,0.8199046195420968,30.36813694327205,0.2726886149734145,0.08281045202383837,0.076171875,,
0.9644400000004097,1200,,,,-0.125,0.1171875,-0.921875,0.007025419785001986,0.22357865511323874,15.175728165007037,0.17824250592963914,1114,0,2.7049598174378584,0.8199008131264358,30.311016372252325,0.27268988093900204,0.08265507445689628,0.076171875,,
0.9726599999992177,1200,,,,0,0.015625,-0.953125,0.007025419785001986,0.22357865511323874,15.17564287990651,0.17770525404867882,1114,0,2.6967914733258103,0.8198993045029561,30.40276983269373,0.27269038269129625,0.08290542940552649,0.076171875,,
0.9805,1200,,,,-0.0625,0.015625,-0.9609375,0.007025419785001986,0.22357865511323874,15.175595357967044,0.17635590627823472,1114,0,2.67630587266605,0.8198987174606559,30.635463824764514,0.27269057793588697,0.08354002335708992,0.076171875,,
0.9897000000001863,1200,,,,-0.03125,0.052734375,-1.03515625,0.007025419785001986,0.22357865511323874,15.1753955482733,0.17513309191183077,1114,0,2.6577139433541355,0.8198984683023247,30.849763585451257,0.27269066080362236,0.08412442417752229,0.076171875,,
1.000739999999292,1200,,,,-0.0625,0.05078125,-0.9375,0.007025419785001986,0.22357865511323874,15.17542486804027,0.1751775123972159,1115,0,2.658393177954143,0.8202411628429017,30.854772335601094,0.2725767313826703,0.08410292990794585,0.076171875,,
1.008920000000857,1200,,,,0.03125,-0.021484375,-0.962890625,0.005434027228935961,0.22357865511323874,15.17546602477033,0.17392106954004757,1115,0,2.6393332817967097,0.6347244413794937,24.04866584137525,0.3522452272789727,0.08471027765051291,0.076171875,,
1.0182999999998137,1200,,,,-0.09375,0.10546875,-1.01171875,0.005434027228935961,0.22357865511323874,15.175312784026499,0.1730554070868656,1116,0,2.6261699315102214,0.6347881989627233,24.171634567367015,0.35220984806991973,0.08513487738573955,0.078125,,
1.0366849999995902,1200,,,,0.03125,0.01171875,-0.966796875,0.005434027228935961,0.22357865511323874,15.175464638488023,0.17081211547762903,1116,0,2.592153218256092,0.6348021061943686,24.489374382793653,0.352202131863724,0.08625209865628793,0.078125,,
1.0447050000000746,1200,,,,-0.0625,-0.02734375,-0.94140625,0.005434027228935961,0.2183429057614877,15.175489981261768,0.17023737650711815,1115,0,2.583435601620059,0.6347436013929786,24.569747393545796,0.3439859894330917,0.08451648867289978,0.078125,,
1.0525800000000745,1200,,,,-0.0625,0.05859375,-0.978515625,0.005434027228935961,0.2183429057614877,15.175317616143667,0.16902351430896698,1115,0,2.564985514235378,0.6347193673736173,24.7455341892185,0.34399912305332836,0.08512442060577317,0.078125,,
1.0606100000003353,1200,,,,-0.0625,0.068359375,-0.939453125,0.005434027228935961,0.2183429057614877,15.175545031160965,0.16831071813393517,1115,0,2.5542068822685735,0.634709949691819,24.849590457922808,0.3440042272340354,0.08548364162559995,0.078125,,
1.0687750000003726,1200,,,,0,0.0078125,-0.96484375,0.005434027228935961,0.2183429057614877,15.175697445584488,0.16868808517465536,1115,0,2.559959343285556,0.6347061962509964,24.79360455140622,0.3440062615603383,0.08529155212334642,0.078125,,
1.0767999999988824,1200,,,,-0.03125,0.03515625,-0.9765625,0.005434027228935961,0.2183429057614877,15.175712403401723,0.1676585895056874,1115,0,2.5443385362982984,0.6344106951854154,24.93420927029645,0.3441664956447084,0.0858151942622973,0.078125,,
1.0850599999995902,1200,,,,-0.125,0.11328125,-1.03125,0.005434027228935961,0.2183429057614877,15.175726558977123,0.16828553852115338,1114,0,2.553855316427235,0.6341478872777514,24.83100288409857,0.3443091274793688,0.0854954093746167,0.078125,,
1.0927250000005588,1200,,,,-0.0625,0.044921875,-0.978515625,0.005434027228935961,0.2183429057614877,15.175739949400269,0.16824063762692032,1114,0,2.5531761655474288,0.6340450876881184,24.833581647985195,0.34436495132801787,0.0855181513550878,0.078125,,
1.1018050000006332,1200,,,,-0.03125,0.060546875,-0.951171875,0.005434027228935961,0.2183429057614877,15.175754192625636,0.1670024846436037,1114,0,2.5343886565090674,0.6340019516543559,25.01597180156443,0.3443883811268195,0.0861521003105494,0.078125,,
1.1103600000012666,1200,,,,-0.03125,0.03515625,-1.041015625,0.005434027228935961,0.2183429057614877,15.175621584033706,0.16630871446530374,1114,0,2.523838116852562,0.6339864659291804,25.119933869602335,0.34439679314207594,0.08651224668632063,0.078125,,
1.1183899999996647,1200,,,,-0.0625,0.046875,-1.01171875,0.005434027228935961,0.2183429057614877,15.175640036007849,0.16636024629531632,1114,0,2.5246232140793285,0.6341403695603146,25.118218276051575,0.34431320925503794,0.08648534345395865,0.078125,,
1.126640000000596,1200,,,,-0.0625,0.037109375,-0.95703125,0.005434027228935961,0.2183429057614877,15.175724267308473,0.16684171024956923,1114,0,2.5319437910336364,0.6342020660464577,25.048031014446497,0.3442797137552896,0.08623528947787255,0.078125,,
1.1349850000012667,1200,,,,-0.03125,0.01171875,-0.962890625,0.005434027228935961,0.2183429057614877,15.175836305562603,0.16750889207360872,1115,0,2.542087525835239,0.6342260191829417,24.949023695577036,0.34426671116832086,0.08589118334536812,0.078125,,
1.1436149999992922,1200,,,,-0.0625,0.072265625,-0.986328125,0.005434027228935961,0.2183429057614877,15.175845171876423,0.16726573168692202,1115,0,2.538398846641353,0.6342359219590752,24.98566853661534,0.3442613358875257,0.08601599628458115,0.078125,,
1.1510149999996648,1200,,,,-0.0625,0.00390625,-0.9921875,0.005434027228935961,0.2183429057614877,15.175723793844623,0.16727063824347235,1114,0,2.53845300480304,0.6340016321392647,24.97590583476086,0.3443885546867591,0.08601416112425886,0.078125,,
1.1579199999999255,1200,,,,-0.0625,0.09375,-0.93359375,0.0053456602890353325,0.2183429057614877,15.175563513805315,0.16727479542245915,1114,0,2.5384892821923195,0.6233866128902167,24.55738605096021,0.350252798579009,0.08601293190133932,0.078125,,
1.1649199999999256,1200,,,,0,0.029296875,-0.970703125,0.0053456602890353325,0.2183429057614877,15.175496279655665,0.16783895771006133,1113,0,2.54703947831032,0.6232533037530342,24.46971509709359,0.3503277149863399,0.08572419376331541,0.078125,,
1.173929999999702,1200,,,,-0.0625,0.056640625,-1,0.0053456602890353325,0.2183429057614877,15.175342540250734,0.1672451025915145,1113,0,2.5380017200056084,0.6231942712065082,24.554525172076364,0.35036090004289416,0.08602945539414576,0.076171875,,
1.1826849999995903,1200,,,,-0.03125,0.009765625,-0.966796875,0.0053456602890353325,0.2183429057614877,15.17578957173356,0.16698780579417302,1113,0,2.53417180177788,0.6231643475836904,24.590453857410207,0.35037772396336336,0.08615947253785498,0.078125,,
1.1913349999999627,1200,,,,-0.0625,0.09765625,-0.9140625,0.0053456602890353325,0.21619018791040906,15.175873765076744,0.1660619597725172,1114,0,2.5201353386889735,0.6233414638520441,24.734443991262754,0.34682465461935613,0.08578514994471514,0.078125,,
1.1996550000002608,1200,,,,0,-0.001953125,-0.96875,0.0053456602890353325,0.21619018791040906,15.175880072246322,0.16547900206375765,1114,0,2.5112894897945877,0.6235803173733216,24.831080602512607,0.34669180839616126,0.08608732238515937,0.078125,,
1.207699999999255,1200,,,,-0.03125,0.068359375,-1.013671875,0.0053456602890353325,0.21619018791040906,15.17595149899481,0.16557171742116442,1114,0,2.512708353188865,0.6236728561863459,24.82074194543294,0.3466403672469819,0.08603871103307442,0.078125,,
1.2157400000002234,1200,,,,-0.0625,-0.015625,-0.9453125,0.0053456602890353325,0.21619018791040906,15.175888904510703,0.16481251777573383,1114,0,2.501176459837232,0.6237091957824453,24.936633052393038,0.3466201707018248,0.08643540005349243,0.078125,,
1.223824999999255,1200,,,,-0.03125,0.05859375,-0.900390625,0.0053456602890353325,0.21619018791040906,15.175991956363706,0.1649371964255981,1114,0,2.5030855662600575,0.6237236049906892,24.918189509702426,0.34661216311291654,0.08636947566815542,0.078125,,
1.2313099999995902,1200,,,,0,-0.03515625,-0.96875,0.0053456602890353325,0.21619018791040906,15.176122079499262,0.164844309787729,1114,0,2.5016973694493703,0.6236120396644679,24.92755707704671,0.34667417265825945,0.08641740226076708,0.078125,,
1.239644999999553,1200,,,,-0.0625,0.080078125,-1.009765625,0.0053456602890353325,0.21619018791040906,15.176214873034596,0.16593380806311525,1114,0,2.5182471258667176,0.6235673610008108,24.761960595356364,0.3466990118973337,0.08584947271050763,0.078125,,
1.2478150000004098,1200,,,,-0.0625,0.041015625,-0.96484375,0.0053456602890353325,0.21619018791040906,15.17630345545832,0.16665088217843824,1114,0,2.5291443590598095,0.6235497868173744,24.654574760974672,0.34670878329355753,0.08547957617997581,0.078125,,
1.2558549999995157,1200,,,,-0.0625,0.05078125,-0.9453125,0.0053456602890353325,0.21619018791040906,15.176353711163445,0.1660511071436244,1114,0,2.520050336141943,0.6235429803323168,24.743274822316703,0.34671256790540833,0.0857880435203466,0.078125,,
1.2637000000001863,1200,,,,0,0.015625,-0.98046875,0.0053456602890353325,0.21619018791040906,15.176140366029061,0.16526469270696362,1114,0,2.5080801740695393,0.6235402761964997,24.86125773183562,0.34671407150976064,0.08619747891058244,0.078125,,
1.2717950000008569,1200,,,,-0.0625,0.0859375,-1.0546875,0.0053456602890353325,0.21619018791040906,15.176330590360296,0.16504746319307753,1114,0,2.5048148645184676,0.6237360613886261,24.90148354770862,0.3466052410519667,0.0863098470760513,0.078125,,
1.2805400000000373,1200,,,,-0.0625,0.0625,-1.01953125,0.0053456602890353325,0.21619018791040906,15.176240108116945,0.16399249735485313,1114,0,2.488789515786984,0.6238169794652538,25.06507583338142,0.34656028134362554,0.08686559732715976,0.078125,,
1.2881949999993667,1200,,,,-0.03125,0.068359375,-0.978515625,0.0053456602890353325,0.21619018791040906,15.176228519087543,0.1654158321342192,1114,0,2.510388469143935,0.623844516108176,24.85051711223453,0.3465449840917111,0.08611822057330108,0.078125,,
1.2958899999996647,1200,,,,0,-0.0625,-0.97265625,0.0053456602890353325,0.21619018791040906,15.176159947635714,0.16550148418693864,1114,0,2.5116769955920835,0.6238549202801662,24.838182671379023,0.34653920468130717,0.08607404068668713,0.078125,,
1.3034950000001118,1200,,,,-0.09375,0.1171875,-1.02734375,0.0053456602890353325,0.21619018791040906,15.175957092990178,0.16495740328144143,1114,0,2.5033864743702323,0.6238009220420023,24.91828283121685,0.34656920224278276,0.08635909402074853,0.078125,,
1.3250200000004844,1200,,,,0,0.046875,-0.990234375,0.005758259839935313,0.21619018791040906,15.17605641310946,0.16525809138568937,1114,0,2.5079661175920203,0.6718208966665161,26.787478983629697,0.32179735549030314,0.08620139897184109,0.078125,,
1.3350449999999254,1200,,,,-0.0625,0.08984375,-1.01171875,0.005758259839935313,0.21619018791040906,15.176185845737137,0.16474832681164625,1114,0,2.500251225467782,0.6718100692943987,26.86970263033096,0.32180254180690293,0.08646738604036129,0.080078125,,
1.3544900000002236,1200,,,,0,0.046875,-0.947265625,0.005758259839935313,0.22350974981572225,15.176301706069951,0.1653720088125195,1114,0,2.509735499477655,0.6719553455037022,26.773950706899374,0.3326258974071824,0.0890570938101807,0.080078125,,
1.3632999999988824,1200,,,,-0.0625,-0.0078125,-0.943359375,0.005758259839935313,0.22350974981572225,15.176430647826885,0.16689975075360114,1114,0,2.5329424924516206,0.671993471896694,26.53015115421256,0.3326070254594416,0.08824114660392009,0.080078125,,
1.3700250000003726,1200,,,,-0.03125,0.064453125,-1.01171875,0.005758259839935313,0.22350974981572225,15.17641253256317,0.16673697585547156,1114,0,2.5304691300146613,0.6720054290828451,26.556555111144608,0.3326011072868399,0.08832739635690684,0.080078125,,
1.3773500000005587,1200,,,,-0.125,0.0546875,-0.8984375,0.005758259839935313,0.22350974981572225,15.17657388732372,0.16588749696836494,1114,0,2.51760385472358,0.6720109728510647,26.69248267912459,0.3325983634872252,0.08877876056487943,0.080078125,,
1.3844550000000746,1200,,,,0,0.125,-1,0.005758259839935313,0.22350974981572225,15.176549136833271,0.1670764918660625,1115,0,2.535644588415022,0.6722894866583203,26.51355358435917,0.3324605757658044,0.08814711290253555,0.080078125,,
1.398574999999255,1200,,,,-0.0625,0.078125,-0.94140625,0.005758259839935313,0.22350974981572225,15.17642168245237,0.16683888569019303,1115,0,2.532017282264838,0.6724644758468231,26.55844731222835,0.33237406263618635,0.0882733903047444,0.080078125,,
1.4066150000002235,1200,,,,-0.0625,0.05078125,-1.00390625,0.005758259839935313,0.22350974981572225,15.176466553031545,0.16643761625718667,1115,0,2.525934916293493,0.6724888743021616,26.623365074226,0.3323620038289216,0.0884859496473868,0.080078125,,
1.414554999999702,1200,,,,-0.03125,0.041015625,-0.978515625,0.005758259839935313,0.22350974981572225,15.176444132596586,0.16460391952198047,1115,0,2.498102188631761,0.6724983596363756,26.920370299371566,0.3323573159889571,0.08947182018127971,0.080078125,,
1.4375399999991059,1200,,,,-0.08203125,0.0859375,-1.017578125,0.005758259839935313,0.22350974981572225,15.176386151189217,0.16561400213497357,1115,0,2.5134220484442342,0.6721217102372821,26.741299204139395,0.3325435652670937,0.08892646977218609,0.080078125,,
1.4594000000003726,1200,,,,0,0.001953125,-1.001953125,0.0055483395529303745,0.22350974981572225,15.17633533513977,0.1674218018553314,1115,0,2.540849407369835,0.6476494981963427,25.489487740509514,0.34510912219986406,0.08796654739451433,0.080078125,,
1.4667200000006706,1200,,,,-0.0625,0.076171875,-1.0078125,0.0055483395529303745,0.22350974981572225,15.176321860630187,0.16820580865349977,1115,0,2.552745490953087,0.6478327927132288,25.377884125508942,0.3450114787793115,0.08755661330431855,0.080078125,,
1.4770850000008942,1200,,,,-0.0625,0.0390625,-0.97265625,0.0055483395529303745,0.22350974981572225,15.176206571400316,0.16816418024421514,1115,0,2.552094337296405,0.6479274994247418,25.388070102108077,0.3449610489046443,0.08757895292087842,0.080078125,,
1.484589999999851,1200,,,,0,0.015625,-0.982421875,0.0055483395529303745,0.22350974981572225,15.176255017818066,0.1679166504283958,1115,0,2.548345908639144,0.6479683918854603,25.42701874532745,0.34493927885178616,0.08770777509364101,0.080078125,,
1.4924500000001863,1200,,,,-0.0625,0.07421875,-0.98828125,0.0055483395529303745,0.2382491618415164,15.17604917819683,0.16851971609702385,1115,0,2.5574634989842018,0.6479802947114948,25.33683452252069,0.367679640547702,0.09315838209857014,0.080078125,,
1.5006950000012294,1200,,,,-0.0625,0.0078125,-1.03125,0.0055483395529303745,0.2382491618415164,15.17630933204811,0.16718035220386152,1115,0,2.537180739286553,0.6480260010632802,25.54118400116434,0.3676537074910535,0.09390310991739251,0.080078125,,
1.5085949999997392,1200,,,,-0.03125,0.052734375,-0.974609375,0.0055483395529303745,0.2382491618415164,15.176195560728925,0.16718955476408873,1115,0,2.5373013788110086,0.6480439751076406,25.540678002205517,0.36764351030644643,0.09389864516337475,0.080078125,,
1.516855000000447,1200,,,,0,0.02734375,-0.984375,0.0055483395529303745,0.2382491618415164,15.176185887950938,0.16741261081105208,1115,0,2.540684901655711,0.6480510444262314,25.506942793414094,0.3676394998367087,0.09377359690934299,0.080078125,,
1.5257750000003725,1200,,,,-0.0625,0.04296875,-0.970703125,0.0055483395529303745,0.2382491618415164,15.176175733755608,0.16717350230775369,1115,0,2.5370544490498688,0.6480539613734554,25.543557475329422,0.36763784505935615,0.09390778425379917,0.080078125,,
1.535,1200,,,,-0.0625,0.07421875,-1.01171875,0.0055483395529303745,0.2382491618415164,15.176277544773454,0.16645742553524204,1115,0,2.526204089311293,0.6479243676102021,25.648140241386542,0.36771137767247786,0.09431112982897163,0.080078125,,
1.5430149999996647,1200,,,,-0.03125,0.091796875,-0.953125,0.0055483395529303745,0.2382491618415164,15.176198913166717,0.16501906582582382,1115,0,2.5043621674376544,0.64763730123239,25.860369145211216,0.36787436639018734,0.09513366913910927,0.080078125,,
1.5515049999998882,1200,,,,0,-0.015625,-0.9765625,0.0055483395529303745,0.2382491618415164,15.176189134358452,0.16556027351471847,1114,0,2.5125740239954837,0.6475233101668927,25.771312764636644,0.3679391275969819,0.0948227433564937,0.080078125,,
1.5596900000004097,1200,,,,-0.0625,0.08203125,-1.017578125,0.0055483395529303745,0.2382491618415164,15.176396241340816,0.16565846563198378,1114,0,2.5140985151635253,0.64747591395239,25.753800419800815,0.36796606129666043,0.09476524503894385,0.080078125,,
1.5678950000004843,1200,,,,0,0.00390625,-1.0390625,0.0055483395529303745,0.2382491618415164,15.176376613369287,0.16681704790660234,1114,0,2.531678344561064,0.6474595660855024,25.574321772608805,0.3679753521628463,0.09410720060601672,0.080078125,,
1.575929999999702,1200,,,,-0.0625,0.046875,-0.94921875,0.0055483395529303745,0.2382491618415164,15.176357970334259,0.16652135908399895,1115,0,2.5271877551653406,0.6477268545012875,25.630341599170585,0.3678235049015446,0.09427442078830782,0.080078125,,
1.583699999999255,1200,,,,0,0.037109375,-0.986328125,0.0055483395529303745,0.2382491618415164,15.17627591618681,0.16677306887171225,1115,0,2.530994108586331,0.6479654521296749,25.601223247872017,0.3676880627793663,0.0941326418079214,0.080078125,,
1.592109999999404,1200,,,,-0.0625,0.044921875,-0.982421875,0.0055483395529303745,0.2382491618415164,15.176164674684054,0.16584716532773564,1115,0,2.5169238918432675,0.6480607794809179,25.74812776743563,0.3676339772210079,0.0946588661713703,0.080078125,,
1.5998650000002235,1200,,,,0,0,-1.04296875,0.0055483395529303745,0.2382491618415164,15.176090839712295,0.1648525944198879,1115,0,2.501817948078467,0.6480986059412993,25.905106582158567,0.36761252015884677,0.09523041515650842,0.080078125,,
1.6081650000000371,1200,,,,-0.09375,0.076171875,-0.93359375,0.0053549887052703506,0.2382491618415164,15.176020900606888,0.16454946232670062,1115,0,2.497206079453634,0.62552771796252,25.04910279969284,0.38087706587574693,0.09540628777166965,0.080078125,,
1.615980000000447,1200,,,,0,-0.03125,-0.984375,0.0053549887052703506,0.2382491618415164,15.175912980848883,0.16296101287082976,1115,0,2.473082150598707,0.6251218980632163,25.27703731604229,0.3811243256390022,0.09633693801228511,0.080078125,,
1.623949999999255,1200,,,,-0.125,0.10546875,-0.94921875,0.0053549887052703506,0.2382491618415164,15.176048342741227,0.16275100285986976,1114,0,2.4699170872309995,0.6249792065984201,25.303651277585125,0.38121134163524767,0.09646038851798674,0.08203125,,
1.6341650000000372,1200,,,,-0.03125,-0.005859375,-0.982421875,0.0053549887052703506,0.2382491618415164,15.176223705475685,0.16295584069535204,1114,0,2.473054292506521,0.6249260627045414,25.269403287994884,0.3812437599584611,0.0963380232142187,0.080078125,,
1.6415149999996648,1200,,,,-0.03125,0.04296875,-0.92578125,0.0053549887052703506,0.2445619245094855,15.17596986085628,0.16296011364220622,1114,0,2.473077773155836,0.6248995873029674,25.268092822877453,0.39136195555033326,0.0988897022018866,0.080078125,,
1.6497700000004842,1200,,,,0,-0.00390625,-0.953125,0.0053549887052703506,0.2445619245094855,15.175971449906712,0.16252816041437054,1115,0,2.4665227222543455,0.6252706799974427,25.35029068882688,0.3911296856434812,0.09915251228091726,0.080078125,,
1.6585649999994785,1200,,,,-0.09375,0.076171875,-1,0.0053549887052703506,0.2445619245094855,15.175873918276551,0.16341205684844384,1116,0,2.479920771458224,0.6257896800271584,25.234260998555463,0.3908053013895529,0.09861682974883107,0.080078125,,
1.6663050000006332,1200,,,,0,0,-0.994140625,0.0053549887052703506,0.2445619245094855,15.176022934057908,0.1633915168083921,1116,0,2.4796334063146666,0.6260008341223992,25.245700938220033,0.3906734802555669,0.0986282584702565,0.080078125,,
1.6747050000000745,1200,,,,-0.0625,0.0625,-0.9140625,0.0053549887052703506,0.2445619245094855,15.175962985704667,0.16318345081351965,1116,0,2.476466009425532,0.6260710810037867,25.280826735393674,0.39062964562646246,0.09875440388790829,0.080078125,,
1.683890000000596,1200,,,,0,0.0078125,-0.974609375,0.0053549887052703506,0.2445619245094855,15.176086484416688,0.16304242202219196,1117,0,2.474345897237549,0.6261064049881518,25.303915903074024,0.39060760688770385,0.09883902035787456,0.080078125,,
1.6921600000010804,1200,,,,-0.0625,0.078125,-1.005859375,0.0053549887052703506,0.2445619245094855,15.17608224613181,0.16240658654966375,1115,0,2.464695714791221,0.6253303927360474,25.371504846756217,0.3910923367077016,0.09922601116308663,0.080078125,,
1.6989799999995157,1200,,,,-0.0625,0.044921875,-0.96875,0.0053549887052703506,0.2445619245094855,15.176174085413386,0.1617089772953623,1115,0,2.454123590608579,0.6250260858250855,25.4684029857718,0.3912827481218545,0.09965346710547633,0.080078125,,
1.7060299999993294,1200,,,,0,0.078125,-0.90625,0.0053549887052703506,0.2445619245094855,15.176339847844524,0.16139000815929438,1114,0,2.4493096118718523,0.6249104403220782,25.513738128210694,0.39135515864231446,0.09984933032724363,0.080078125,,
1.7140949999997392,1200,,,,0,-0.04296875,-0.9609375,0.0053549887052703506,0.2445619245094855,15.17632487543284,0.16165380252772626,1114,0,2.4533106245098404,0.6248596423516121,25.470058137316226,0.39138697386359467,0.09968648978494021,0.080078125,,
1.7224150000000373,1200,,,,-0.0625,0.076171875,-0.9921875,0.0053549887052703506,0.2445619245094855,15.176101984908911,0.16127690574321782,1114,0,2.4475547693696154,0.6248359260239764,25.528986474321357,0.3914018293821682,0.09992092008322008,0.080078125,,
1.7311549999993294,1200,,,,-0.0625,0.025390625,-0.998046875,0.0053549887052703506,0.2445619245094855,15.17609659059488,0.16045407679420862,1115,0,2.4350665677836387,0.6253582518307713,25.68136165574985,0.39107491392896276,0.10043336299100937,0.080078125,,
1.738949999999255,1200,,,,0,0.0625,-0.9375,0.0053549887052703506,0.2445619245094855,15.17622385230781,0.16015180197296486,1116,0,2.430499597092186,0.6255462752353458,25.73735358704606,0.39095736669117775,0.10062207983991266,0.080078125,,
1.7465699999993667,1200,,,,-0.03125,0.03125,-0.98828125,0.0053549887052703506,0.2445619245094855,15.176213149908273,0.16174606372445346,1116,0,2.454692739240952,0.6256186584665053,25.48663824458784,0.3909121334535437,0.09963036130750512,0.078125,,
1.7550449999999256,1200,,,,-0.0625,0.099609375,-1.05078125,0.004588903516781945,0.2445619245094855,15.176202649471133,0.16234501366229281,1116,0,2.4637808264701153,0.5361429144846671,21.76098249992491,0.45615062309376025,0.0992628572647316,0.080078125,,
1.762885000000708,1200,,,,-0.0625,0.01171875,-1.04296875,0.004588903516781945,0.2445619245094855,15.176061416163128,0.1617369308633082,1115,0,2.454529596043295,0.5360061720887647,21.837429581326187,0.45626699326325126,0.0996369833566968,0.080078125,,
1.7712099999990314,1200,,,,-0.03125,0.04296875,-0.935546875,0.004588903516781945,0.2445619245094855,15.175861427521705,0.16201406389095632,1115,0,2.458702982918801,0.5356592187052708,21.786251630498835,0.4565625232785321,0.09946786017201582,0.080078125,,
1.778964999999851,1200,,,,-0.03125,-0.005859375,-0.96484375,0.004588903516781945,0.2445619245094855,15.175868049023043,0.16206261786037762,1114,0,2.459440904328336,0.5355247801574033,21.774248741449355,0.45667713908141283,0.09943801620892145,0.080078125,,
1.7915449999999256,1200,,,,-0.0625,0.07421875,-1.0078125,0.004588903516781945,0.23506432909340172,15.17550195227619,0.1621166218249501,1114,0,2.4602011110009507,0.5354663148925043,21.765144015996558,0.4389899468103633,0.09554679413902227,0.080078125,,
1.8094500000011176,1200,,,,0.0625,-0.0546875,-0.94140625,0.004588903516781945,0.23506432909340172,15.175634698898278,0.16277092556849854,1114,0,2.4701521060290954,0.5355078154172516,21.679143325230672,0.4389559261805482,0.0951618843712748,0.080078125,,
1.8179999999990686,1200,,,,-0.0625,0.025390625,-0.982421875,0.004588903516781945,0.23506432909340172,15.175581413984112,0.16182870909359817,1114,0,2.45584474996985,0.5355322426018809,21.806437178427323,0.4389359041228643,0.09571628218611439,0.080078125,,
1.8261550000011921,1200,,,,0,0.005859375,-1.025390625,0.004588903516781945,0.23506432909340172,15.175408167223562,0.16335674049970444,1114,0,2.4790052139502348,0.535540416542344,21.603037118626034,0.43892920465474466,0.09482203900605453,0.080078125,,
1.835175000000745,1200,,,,-0.0625,0.06640625,-0.93359375,0.004588903516781945,0.23506432909340172,15.17558686247818,0.16357670054275156,1114,0,2.482372427764108,0.53554389114867,21.57387365243331,0.43892635688406456,0.09469341766139659,0.080078125,,
1.8429599999999629,1200,,,,0,-0.021484375,-0.9609375,0.004588903516781945,0.23506432909340172,15.175509169193635,0.1631248454566213,1114,0,2.475502587950251,0.5355225930248019,21.632883586206294,0.4389438133052121,0.09495620414117123,0.080078125,,
1.8513000000007451,1200,,,,-0.125,0.1171875,-1.01953125,0.004588903516781945,0.23506432909340172,15.175665314210791,0.16247637350166103,1114,0,2.4656870657279146,0.5355028685093772,21.718200819262815,0.43895998119996155,0.09533421023320596,0.08203125,,
1.859070000000298,1200,,,,-0.03125,0.02734375,-0.998046875,0.004588903516781945,0.23506432909340172,15.175681717304583,0.16271579555440613,1114,0,2.4693231237116713,0.5354951794309402,21.685909563185497,0.43896628414694566,0.0951938313929825,0.08203125,,
1.8670399999991059,1200,,,,-0.0625,0.08984375,-0.90625,0.004588903516781945,0.23506432909340172,15.1756972807387,0.16336804068701033,1114,0,2.479223930813472,0.5354921391531487,21.599184022777866,0.43896877639537896,0.09481367381617418,0.08203125,,
1.8748799999998882,1200,,,,0,-0.001953125,-0.9765625,0.004588903516781945,0.23506432909340172,15.175515336775568,0.16356488723902385,1114,0,2.4821814548537726,0.5354909345151977,21.573400021504227,0.4389697638975257,0.09470070313906585,0.080078125,,
1.882265000000596,1200,,,,-0.0625,0.08984375,-0.94140625,0.004588903516781945,0.23506432909340172,15.175478829298857,0.16410267918683166,1114,0,2.4903367338309863,0.5354696019595608,21.50189549410156,0.43898725199932825,0.09439058015732382,0.080078125,,
1.8903300000000745,1200,,,,-0.0625,0.03515625,-0.998046875,0.004588903516781945,0.23506432909340172,15.17560264739444,0.16394329703547605,1114,0,2.4879383325141435,0.5354483140972549,21.52176792726879,0.4390047048513189,0.09448157376789218,0.08203125,,
1.8979849999994038,1200,,,,-0.0625,0.078125,-0.9375,0.004588903516781945,0.23506432909340172,15.17549123605611,0.16304527998576793,1114,0,2.474292217504336,0.5354399218640893,21.640124722380367,0.43901158560431003,0.09500265467047235,0.08203125,,
1.9059400000004099,1200,,,,-0.03125,0.013671875,-0.984375,0.0048763497178713425,0.23506432909340172,15.175516155651882,0.1632567231382918,1114,0,2.4775050395039333,0.5689760580304496,22.965687211856274,0.41313571243593855,0.09487945547851166,0.08203125,,
1.9143100000005215,1200,,,,-0.0625,0.08203125,-1.04296875,0.0048763497178713425,0.23506432909340172,15.175540044106704,0.16410098280390625,1114,0,2.490321035817945,0.5689746661436756,22.847442476700444,0.4131367230927712,0.09439117515874612,0.08203125,,
1.9231299999998883,1200,,,,-0.0625,0.029296875,-0.994140625,0.0048763497178713425,0.23506432909340172,15.175565101436984,0.163568869237096,1115,0,2.4822500236759835,0.5694283850609827,22.94000925086957,0.4128075369271021,0.09469808715936404,0.08203125,,
1.9317599999997765,1200,,,,-0.03125,0.064453125,-0.974609375,0.0048763497178713425,0.23506432909340172,15.17558897315497,0.1633006613902978,1115,0,2.478183716303517,0.5695927594906726,22.984283035330517,0.4126884079488567,0.09485347173696466,0.080078125,,
1.941655000001192,1200,,,,0,-0.04296875,-0.96875,0.0048763497178713425,0.23066815443127042,15.175515973877987,0.16468451210940063,1116,0,2.499172444166512,0.5696464752547014,22.793404136011176,0.40493211922031763,0.09229781441040157,0.080078125,,
1.950105000000447,1200,,,,-0.0625,0.091796875,-1.017578125,0.0048763497178713425,0.23066815443127042,15.1756109081325,0.1646478889490002,1116,0,2.4986322995354358,0.5696727129559046,22.79938160816309,0.40491346905907577,0.09231776699363006,0.080078125,,
1.9592950000008569,1200,,,,-0.0625,-0.01171875,-0.94140625,0.0048763497178713425,0.23066815443127042,15.175632344148877,0.16455855170400857,1115,0,2.497280079745648,0.5695534699658205,22.80695203494477,0.40499824264983075,0.09236775494351612,0.08203125,,
1.9683800000008196,1200,,,,0,0.0390625,-0.97265625,0.0048763497178713425,0.23066815443127042,15.175579933454278,0.16447531980697427,1115,0,2.4960083628111938,0.5692591889528961,22.806782117979495,0.4052076082523409,0.09241481633958729,0.08203125,,
1.9766699999999255,1200,,,,-0.0625,0.05859375,-0.9921875,0.0048763497178713425,0.23066815443127042,15.175603317208768,0.16463607370561342,1115,0,2.4984517462591342,0.5691513861367713,22.780163234649084,0.40528435852010586,0.09232443843538052,0.08203125,,
1.9832949999999254,1200,,,,0,0.00390625,-1.02734375,0.0048763497178713425,0.23066815443127042,15.175452448324245,0.16456868291444457,1114,0,2.4974042220515043,0.5691185548201202,22.788403647072204,0.40530773856806884,0.09236316347771167,0.08203125,,
1.990785000000149,1200,,,,-0.0625,0.02734375,-0.98828125,0.0048763497178713425,0.23066815443127042,15.175299497236711,0.16526969518962878,1114,0,2.508017122319638,0.5691034140159864,22.69136876903092,0.40531852164357396,0.09197232043532778,0.08203125,,
1.997519999999553,1200,,,,0,0.04296875,-0.94140625,0.0048763497178713425,0.23066815443127042,15.175413181183368,0.16453590340535584,1115,0,2.4969003173155504,0.5691959107944278,22.796100703226216,0.40525265564421653,0.09238180348315415,0.08203125,,
2.0049799999995157,1200,,,,-0.0625,0.02734375,-0.974609375,0.0048763497178713425,0.23066815443127042,15.175613836829953,0.1635206064625252,1115,0,2.481525578039523,0.569237891490482,22.93902978587053,0.4052227686869073,0.0929541716082189,0.08203125,,
2.012969999999739,1200,,,,-0.0625,0.109375,-1.03515625,0.0048763497178713425,0.23066815443127042,15.175535014925796,0.16370845114060842,1115,0,2.484363332523572,0.569257150003197,22.91360295617291,0.40520905961387566,0.09284799506236546,0.08203125,,
2.021325000000186,1200,,,,-0.03125,0.005859375,-0.935546875,0.0048763497178713425,0.23066815443127042,15.175690536797266,0.1641055218912101,1115,0,2.490414615600614,0.5692648400608631,22.85823559237237,0.40520358574509624,0.09262239025835467,0.08203125,,
2.037225000000559,1200,,,,0,-0.013671875,-0.970703125,0.0048763497178713425,0.23066815443127042,15.175404414135562,0.16491851944225563,1115,0,2.5027052279167075,0.5692900972698675,22.74698957430771,0.4051856084226317,0.0921675281044913,0.08203125,,
2.045254999998957,1200,,,,-0.0625,0.060546875,-0.982421875,0.0048763497178713425,0.23066815443127042,15.175433545753016,0.16535656196989695,1115,0,2.5093575175283616,0.5693136211471813,22.68762490679038,0.40516886626824117,0.0919231926180337,0.08203125,,
2.053770000000484,1200,,,,-0.0625,0.046875,-0.99609375,0.0048763497178713425,0.23066815443127042,15.175657103691204,0.16566746085917425,1115,0,2.514112579238012,0.5693229301792727,22.645084984691717,0.4051622413287234,0.09174933387477115,0.08203125,,
2.0619850000003352,1200,,,,-0.03125,0.046875,-0.947265625,0.005786481488959685,0.23066815443127042,15.175676175153312,0.1660037513828429,1115,0,2.5192191748466826,0.6755871692628348,26.817324034696206,0.3414335927708091,0.09156335293665296,0.08203125,,
2.0705049999998884,1200,,,,-0.03125,0.02734375,-0.962890625,0.005786481488959685,0.23066815443127042,15.175692056579518,0.16734532238288863,1115,0,2.5395810795917417,0.6755887168143379,26.602368486811383,0.34143281065876885,0.0908292144263227,0.08203125,,
2.079219999999739,1200,,,,-0.0625,0.060546875,-1.013671875,0.005786481488959685,0.23066815443127042,15.17563661572126,0.16687684844160883,1115,0,2.5324624115266463,0.6753656816130913,26.668339815790592,0.3415455666629762,0.0910845323434501,0.08203125,,
2.0872050000000746,1200,,,,-0.0625,0.046875,-0.9765625,0.005786481488959685,0.22888321282268698,15.175720409371635,0.16668677287960465,1114,0,2.5295918611613106,0.6752883129422534,26.695544182856253,0.33894146905258177,0.09048226962495402,0.08203125,,
2.097875,1200,,,,-0.03125,0.064453125,-0.9453125,0.005786481488959685,0.22888321282268698,15.175734175578816,0.1660808272690262,1114,0,2.520398486294963,0.6752580696622114,26.79171858474072,0.3389566494735601,0.09081231165122224,0.08203125,,
2.1059650000007824,1200,,,,-0.03125,0.00390625,-0.984375,0.005786481488959685,0.22888321282268698,15.175685370875382,0.16508282519573303,1114,0,2.505245015305664,0.6752443300812083,26.953225171823046,0.3389635464175764,0.09136160791632632,0.08203125,,
2.12269000000041,1200,,,,-0.0625,0.08984375,-0.97265625,0.005786481488959685,0.22888321282268698,15.175602751819321,0.16421518319539954,1115,0,2.492064385990619,0.6757134839150165,27.114607781147438,0.33872820103657025,0.0918448231552026,0.08203125,,
2.131339999999851,1200,,,,0,-0.00390625,-0.9609375,0.005786481488959685,0.22888321282268698,15.175696308357098,0.1639163924309197,1115,0,2.487545391493122,0.6758137127526428,27.16789470711901,0.3386779648054602,0.09201167287456104,0.08203125,,
2.138854999999516,1200,,,,-0.0625,0.10546875,-1.013671875,0.005786481488959685,0.22888321282268698,15.175711540169484,0.16408913095530697,1115,0,2.490169318254834,0.6758487639877768,27.140675095195,0.33866040010517273,0.09191471886863237,0.08203125,,
2.1461699999999255,1200,,,,-0.0625,0.0078125,-1.02734375,0.005786481488959685,0.22888321282268698,15.175809670448118,0.1647878988209969,1115,0,2.500789788500511,0.6758612598316311,27.025912491304666,0.33865413869069194,0.09152437117072794,0.08203125,,
2.1541299999989567,1200,,,,-0.03125,0.05859375,-0.939453125,0.005786481488959685,0.22888321282268698,15.175689048140686,0.16449049781028682,1115,0,2.496256646142779,0.6754854571625918,27.059936253203503,0.3388425470832809,0.09169057723946686,0.08203125,,
2.1622200000006706,1200,,,,0,0.03125,-0.99609375,0.005786481488959685,0.22888321282268698,15.17570431799618,0.1643123982261438,1114,0,2.4935563712607984,0.6753358606313659,27.083240163120948,0.3389176055432714,0.09178986906438312,0.08203125,,
2.1702750000003723,1200,,,,-0.0625,0.06640625,-1.015625,0.005786481488959685,0.22888321282268698,15.17578457455301,0.16424908620778475,1114,0,2.492608748856527,0.6752767321401512,27.091164325325074,0.338947281801475,0.09182476508906025,0.08203125,,
2.1782600000007077,1200,,,,-0.03125,0.01171875,-0.990234375,0.005786481488959685,0.22888321282268698,15.17579521396264,0.16344070896811655,1114,0,2.4803427289250037,0.6752534683123365,27.224200125157527,0.3389589592108807,0.09227886539772122,0.08203125,,
2.1865750000001865,1200,,,,-0.0625,0.08984375,-0.9296875,0.005786481488959685,0.22888321282268698,15.1756074303135,0.16406426295021875,1114,0,2.4897748478762476,0.6752442993478551,27.120697276054162,0.3389635618453059,0.09192928148419606,0.08203125,,
2.195319999999367,1200,,,,0.03125,-0.025390625,-0.958984375,0.005786481488959685,0.22888321282268698,15.175700580196681,0.16377410778832088,1114,0,2.485386822584415,0.6751959023122529,27.166632420226417,0.33898785824804517,0.09209158539944463,0.08203125,,
2.2044249999998136,1200,,,,-0.09375,0.1171875,-1.00390625,0.005786481488959685,0.22888321282268698,15.175495908657005,0.163252554164322,1114,0,2.4774384677984744,0.6751780607976517,27.25307084609997,0.3389968159692357,0.09238704242211894,0.08203125,,
2.214109999999404,1200,,,,-0.09375,0.05859375,-0.974609375,0.00534374562756437,0.22888321282268698,15.175450342586391,0.1637175328554718,1114,0,2.4844872900589685,0.6235129139679004,25.096240840624368,0.3670865633978999,0.0921249280439082,0.08203125,,
2.222504999999888,1200,,,,0,0.033203125,-0.9453125,0.00534374562756437,0.22888321282268698,15.175625198014735,0.16415172382842774,1114,0,2.491105036428244,0.6235108267407269,25.029487621875596,0.3670877922347016,0.09188019351880104,0.08203125,,
2.230405000000261,1200,,,,-0.0625,0.04296875,-0.96484375,0.00534374562756437,0.22888321282268698,15.175643930522272,0.1638783191104896,1114,0,2.4869590187532937,0.6235497807618942,25.072780695617496,0.36706485975028713,0.09203336729586543,0.08203125,,
2.2388649999992922,1200,,,,-0.0625,0.0546875,-0.9921875,0.00534374562756437,0.2343408248870474,15.17588169945678,0.16371340475760518,1114,0,2.4844952632167008,0.6235655749145268,25.098279885918974,0.3758078289026281,0.09432130073117709,0.08203125,,
2.247460000000894,1200,,,,-0.0625,0.03515625,-0.96484375,0.00534374562756437,0.2343408248870474,15.17588666367059,0.16277109205203283,1114,0,2.470195645103543,0.6235705335274229,25.24377106580498,0.375804840490818,0.09486731358771568,0.08203125,,
2.254424999999814,1200,,,,-0.03125,0.044921875,-0.97265625,0.00534374562756437,0.2343408248870474,15.176112038833365,0.16349887782315337,1114,0,2.4812772880677034,0.623573067430846,25.131131874279717,0.3758033133992525,0.09444362627827885,0.08203125,,
2.2618300000000744,1200,,,,-0.03125,-0.001953125,-0.94921875,0.00534374562756437,0.2343408248870474,15.17610702347433,0.16308698292222945,1114,0,2.4750255069632843,0.623573889059149,25.194644956376177,0.3758028182363791,0.09468218579071143,0.080078125,,
2.269394999999553,1200,,,,-0.125,0.12109375,-1.02734375,0.00534374562756437,0.2343408248870474,15.176102518263288,0.1635437605266312,1115,0,2.481956875974456,0.6239721562323122,25.140330288266217,0.3755629518824228,0.09441776654360341,0.08203125,,
2.2777400000002235,1200,,,,-0.03125,0.015625,-0.982421875,0.00534374562756437,0.2343408248870474,15.176097276527534,0.1630707543787839,1115,0,2.474777631409153,0.6241686115287468,25.221199820419482,0.37544474451076204,0.0946916692283227,0.08203125,,
2.2853450000006705,1200,,,,-0.0625,0.109375,-0.96875,0.00534374562756437,0.2343408248870474,15.175968664336727,0.16306871352956964,1116,0,2.4747256866584513,0.6242392948754516,25.224585425398942,0.37540223246247767,0.0946936568163524,0.08203125,,
2.293589999999851,1200,,,,-0.03125,0.01171875,-0.966796875,0.00534374562756437,0.2343408248870474,15.176264693091802,0.16327965194826735,1116,0,2.477975216962808,0.6242692116294937,25.192714089959495,0.37538424212105737,0.09456947885631926,0.08203125,,
2.3026300000008195,1200,,,,-0.0625,0.064453125,-1.017578125,0.00534374562756437,0.2343408248870474,15.176398146935902,0.16374763922301944,1116,0,2.4850993684693607,0.624281754367941,25.120997666682953,0.37537670009963314,0.09429837207330032,0.08203125,,
2.310480000000447,1200,,,,-0.0625,0.01953125,-0.96875,0.00534374562756437,0.2343408248870474,15.17651116170692,0.16457565149267406,1115,0,2.497684211823756,0.6238104938941178,24.975554993744574,0.3756602801344075,0.09382323985462387,0.08203125,,
2.318649999999441,1200,,,,0,0.044921875,-0.9765625,0.00534374562756437,0.2343408248870474,15.17648551270073,0.165043225898009,1114,0,2.504776126810527,0.623625950980719,24.8974726445839,0.3757714452365576,0.0935575927839295,0.080078125,,
2.327790000000037,1200,,,,-0.03125,0.029296875,-0.96875,0.00534374562756437,0.2343408248870474,15.176391412634024,0.1649388704937353,1114,0,2.5031768577706797,0.6235535478118936,24.91048708269172,0.3758150774851186,0.09361736633173835,0.080078125,,
2.3344299999987705,1200,,,,-0.0625,0.078125,-1.05078125,0.00534374562756437,0.2343408248870474,15.176569588109714,0.16591530931392415,1114,0,2.5180252375355177,0.6235268607220705,24.762534204475998,0.3758311624549275,0.09306532015398117,0.080078125,,
2.342515000000596,1200,,,,-0.0625,0.03515625,-0.9609375,0.00534374562756437,0.2343408248870474,15.17654485230088,0.16541202588112616,1114,0,2.5103830298948653,0.6236272889652272,24.841917808508477,0.3757706390236461,0.09334863329476124,0.080078125,,
2.3505599999995903,1200,,,,0.03125,0.033203125,-0.9765625,0.00534374562756437,0.2343408248870474,15.176850982718147,0.16399075020698758,1115,0,2.4888631784356057,0.6236743083941962,25.05860160566205,0.37574230929989055,0.09415576835137406,0.080078125,,
2.358340000000782,1200,,,,-0.0625,-0.05859375,-0.9453125,0.005040748106627716,0.2343408248870474,15.176682123527025,0.16415291232095894,1115,0,2.4912965699463965,0.5883280137733875,23.615334315097066,0.3983166182824518,0.09406380103999003,0.080078125,,
2.3666950000012292,1200,,,,-0.0625,0.115234375,-1.041015625,0.005040748106627716,0.2343408248870474,15.176847728335856,0.16333856041387448,1115,0,2.47896445956696,0.5883349231263197,23.733092294074016,0.398311940487566,0.09453174045423123,0.08203125,,
2.374290000000037,1200,,,,-0.0625,-0.0390625,-0.953125,0.005040748106627716,0.2343408248870474,15.176742164248246,0.16311347385884012,1115,0,2.475531136270463,0.588337567162905,23.766114614468997,0.39831015044150786,0.09466284687499266,0.08203125,,
2.382664999999106,1200,,,,-0.03125,0.060546875,-0.93359375,0.005040748106627716,0.2343408248870474,15.176504403801848,0.16397973914313665,1115,0,2.4886392332400917,0.5884636697827399,23.646001474331328,0.3982247960584649,0.09416424114713752,0.08203125,,
2.390504999999888,1200,,,,-0.03125,0.01171875,-0.9765625,0.005040748106627716,0.23657464174860057,15.17647996640795,0.1641441501137311,1115,0,2.4911304058040993,0.5885731307074054,23.62674909896669,0.4019460444350591,0.09496678343189259,0.08203125,,
2.4009000000003726,1200,,,,-0.0625,0.09375,-1.04296875,0.005040748106627716,0.23657464174860057,15.176392695223209,0.1645080743255899,1115,0,2.4966391375001193,0.5886165270076894,23.576355836393326,0.4019164105895214,0.09475724312544519,0.08203125,,
2.4101850000005216,1200,,,,-0.0625,0.041015625,-0.98828125,0.005040748106627716,0.23657464174860057,15.176365832310886,0.16425792377460424,1115,0,2.4928383420592297,0.5886370001063589,23.61312365005227,0.401902431729325,0.09490171815681242,0.08203125,,
2.418444999999367,1200,,,,0,0.052734375,-0.95703125,0.005040748106627716,0.23657464174860057,15.176490664730881,0.1644266121903668,1115,0,2.4954189449404267,0.5884474431617712,23.58110826860855,0.4020318968121736,0.09480357686161925,0.08203125,,
2.425680000000633,1200,,,,-0.09375,0.078125,-1.017578125,0.005040748106627716,0.23657464174860057,15.176470022806631,0.16509891385866793,1114,0,2.5056187169740083,0.588047573693049,23.4691563289096,0.40230527653207965,0.09441765426876586,0.08203125,,
2.4348300000000744,1200,,,,-0.03125,0.025390625,-1.005859375,0.005040748106627716,0.23657464174860057,15.176331223491855,0.16449450936232551,1114,0,2.496423158528434,0.5878403129537155,23.547302505406563,0.40244712132770594,0.09476544108333548,0.08203125,,
2.4433100000005217,1200,,,,-0.0625,0.07421875,-0.939453125,0.005040748106627716,0.23657464174860057,15.176384665028598,0.16372224052506218,1113,0,2.484711700428677,0.5877692978829736,23.655432450435523,0.40249574552582906,0.09521210919873936,0.08203125,,
2.45119000000041,1200,,,,0,-0.015625,-0.97265625,0.005040748106627716,0.23657464174860057,15.176563821048184,0.16368778734495765,1113,0,2.484218151366913,0.5877441486007603,23.65911980303987,0.4025129681202488,0.09523102535034134,0.08203125,,
2.460364999999292,1200,,,,-0.09375,0.10546875,-1.005859375,0.005040748106627716,0.23657464174860057,15.176436437259548,0.1629004322089215,1114,0,2.4722480550208052,0.5878833143225373,23.779301317625666,0.40241768389229343,0.09569211360815882,0.08203125,,
2.4685449999999256,1200,,,,-0.0625,0.0546875,-0.99609375,0.005040748106627716,0.23657464174860057,15.17641259714248,0.16267032068598183,1114,0,2.4687519040399417,0.5880184723217424,23.818451394791467,0.40232518685085716,0.09582762907907537,0.08203125,,
2.476569999999367,1200,,,,-0.0625,0.06640625,-0.962890625,0.005040748106627716,0.23657464174860057,15.176522872942193,0.1622633322640746,1114,0,2.4625931735455473,0.5880645205289322,23.87988916911759,0.4022936829037305,0.09606728561177219,0.08203125,,
2.484820000000298,1200,,,,-0.03125,0.015625,-0.966796875,0.005040748106627716,0.23657464174860057,15.176497118617188,0.1612308568739179,1114,0,2.4469196347791953,0.5880828194470542,24.033597633872496,0.4022811650424344,0.09668263656315322,0.08203125,,
2.492730000000447,1200,,,,-0.0625,0.09375,-1.0390625,0.005040748106627716,0.23657464174860057,15.176407436551795,0.1621698083037474,1114,0,2.461155084725171,0.5880899748579815,23.894876779926754,0.4022762704052747,0.09612341912822535,0.08203125,,
2.5010999999996275,1200,,,,-0.03125,0.0078125,-1.001953125,0.005040748106627716,0.23657464174860057,15.176457888798838,0.16221648829289784,1115,0,2.461871703445994,0.5884448013053627,23.902334166386076,0.40203370175724346,0.09609543885550831,0.08203125,,
2.5076850000005217,1200,,,,-0.03125,0.0625,-0.96484375,0.004783269065256516,0.23657464174860057,15.176523975214598,0.16299444788811857,1115,0,2.473689146200898,0.5584942747061931,22.5773830783844,0.4235936740319412,0.09563636648199426,0.08203125,,
2.516089999999851,1200,,,,0,-0.0390625,-0.96875,0.004783269065256516,0.23657464174860057,15.17650144246126,0.16318283722169735,1115,0,2.476544564480011,0.5585413003058587,22.55325053773596,0.4235580101579806,0.09552609920357848,0.08203125,,
2.5237600000007077,1200,,,,-0.03125,0.078125,-1.0078125,0.004783269065256516,0.23657464174860057,15.176474136170272,0.16199117347831,1115,0,2.4584548545814435,0.5585646149445268,22.720149361442047,0.4235403307316481,0.09622899574817607,0.08203125,,
2.5314050000002606,1200,,,,-0.0625,0.01953125,-0.984375,0.004783269065256516,0.23657464174860057,15.176334844794606,0.1610741653795493,1115,0,2.444515468645863,0.558572155897062,22.850015189573845,0.4235346127639746,0.09677772334967095,0.08203125,,
2.5400449999999255,1200,,,,0,0.06640625,-0.962890625,0.004783269065256516,0.23328933040492744,15.176416381670334,0.16106352353035552,1114,0,2.444367096995633,0.5580488689380818,22.829994300936985,0.418044625462384,0.09543956416843563,0.08203125,,
2.564324999999255,1200,,,,-0.0625,0.076171875,-1.00390625,0.004783269065256516,0.23328933040492744,15.176314911290905,0.16098587715466753,1113,0,2.443172367969627,0.5577324839440677,22.82820857242936,0.4182817697029153,0.09548623480823014,0.08203125,,
2.5728249999992547,1200,,,,-0.03125,0.05078125,-0.9296875,0.004783269065256516,0.23328933040492744,15.176299562019505,0.16066164447212844,1113,0,2.438249244635696,0.5576704898544658,22.87175895086921,0.41832826848307597,0.09567903319079411,0.08203125,,
2.5801300000008194,1200,,,,-0.0625,0.0546875,-0.984375,0.004783269065256516,0.23328933040492744,15.176219903969134,0.16162437069091634,1113,0,2.4528469914459703,0.5576226128142341,22.73368925003804,0.41836418582014223,0.09510961393780284,0.08203125,,
2.5883250000011175,1200,,,,-0.0625,0.080078125,-1.013671875,0.004783269065256516,0.23328933040492744,15.176012361391315,0.16158658822921032,1113,0,2.4522400604015444,0.55760356457323,22.73853908421693,0.4183784775183043,0.09513315363045137,0.08203125,,
2.5966349999997766,1200,,,,-0.0625,0.05859375,-0.962890625,0.004783269065256516,0.23328933040492744,15.176011781528217,0.16155062192645625,1113,0,2.451694141669111,0.5575960677302404,22.743296492548193,0.418384102589817,0.09515433692968907,0.08203125,,
2.604574999999255,1200,,,,0,0.0390625,-0.95703125,0.004783269065256516,0.23328933040492744,15.175945485953404,0.16098168809613259,1113,0,2.4430493227836623,0.5575931219957934,22.823653898254495,0.4183863128905084,0.09549104401179777,0.08203125,,
2.6126150000002237,1200,,,,-0.03125,0.02734375,-1.01171875,0.004783269065256516,0.23328933040492744,15.176014320320306,0.16172911502601656,1113,0,2.4544033656475572,0.5577332433334391,22.72378090494875,0.4182812001856166,0.09504930349676961,0.08203125,,
2.620424999999814,1200,,,,-0.0625,0.07421875,-1.0078125,0.004783269065256516,0.23328933040492744,15.176013657854591,0.1613727774071631,1114,0,2.4489954739370363,0.5579263806685553,22.78184613267683,0.4181364038125965,0.09525919214129397,0.08203125,,
2.629320000000298,1200,,,,-0.0625,0.005859375,-0.9453125,0.004783269065256516,0.23328933040492744,15.176012889932407,0.16027444344120978,1114,0,2.432327019590542,0.5580088004135796,22.941355990343553,0.41807464368307506,0.0959119923126946,0.08203125,,
2.6375900000007824,1200,,,,0,0.015625,-0.98046875,0.004783269065256516,0.23328933040492744,15.175618059063087,0.16062377546704698,1114,0,2.4375650676926126,0.5580368750613917,22.893209393980474,0.41805361048812845,0.09570588842814276,0.08203125,,
2.6456699999999254,1200,,,,-0.0625,0.064453125,-1.01953125,0.004783269065256516,0.23328933040492744,15.175505617909874,0.16116999968257525,1114,0,2.4458362356214534,0.5580479028982954,22.81624152798207,0.41804534914172875,0.09538223655667274,0.08203125,,
2.6547950000008567,1200,,,,-0.0625,0.02734375,-1.0390625,0.004783269065256516,0.23328933040492744,15.175459841212085,0.16103438572956363,1114,0,2.443770853693249,0.5577928632287934,22.825088628330516,0.418236492045682,0.09546284998544742,0.08203125,,
2.6621899999994785,1200,,,,-0.03125,0.046875,-0.974609375,0.004674845250433814,0.23328933040492744,15.175681840742866,0.16198065453539748,1113,0,2.458166877584475,0.5450642529770636,22.173606598778704,0.4280033576422123,0.09490378075314801,0.08203125,,
2.6706450000004844,1200,,,,0,0.03125,-0.9765625,0.004674845250433814,0.23328933040492744,15.175697711114024,0.16116592215351433,1113,0,2.445805315934668,0.5450303195451871,22.284288777780457,0.4280300050088975,0.09538344237173087,0.080078125,,
2.678609999999404,1200,,,,-0.0625,0.08203125,-0.990234375,0.004674845250433814,0.23328933040492744,15.175712719103158,0.161150613175811,1113,0,2.445575410063428,0.5450171732935345,22.285846146915546,0.4280403294361567,0.09539240926489234,0.080078125,,
2.686659999999218,1200,,,,-0.0625,0.07421875,-1.01953125,0.004674845250433814,0.2319284285941239,15.175662107256452,0.1612414567136446,1114,0,2.4469458647680877,0.5451484373463177,22.27872897376031,0.4254408757422269,0.0947828196502031,0.080078125,,
2.694734999999404,1200,,,,-0.03125,0.078125,-0.95703125,0.004674845250433814,0.2319284285941239,15.175482769030745,0.15994622231315478,1114,0,2.4272611406848412,0.5453383452337346,22.467230084681773,0.42529272078734587,0.09555149411269623,0.080078125,,
2.702480000000447,1200,,,,0.0625,-0.0625,-0.96484375,0.004674845250433814,0.2319284285941239,15.175575594085993,0.160971316184925,1114,0,2.4428323772438474,0.5454141834086984,22.327122748555837,0.42523358513456855,0.0949424245210798,0.080078125,,
2.713089999999851,1200,,,,-0.09375,0.076171875,-1,0.004674845250433814,0.2319284285941239,15.175595865938968,0.160965852881463,1114,0,2.44275273154527,0.5454428206390005,22.32902305645798,0.42521125921579406,0.09494552010894998,0.08203125,,
2.7217700000004843,1200,,,,-0.03125,0.0078125,-0.96484375,0.004674845250433814,0.2319284285941239,15.175689560873877,0.16074136890792387,1114,0,2.439361114136557,0.5454563485198297,22.360623253310365,0.42520071353737726,0.09507752962448036,0.08203125,,
2.7298850000007078,1200,,,,-0.0625,0.12109375,-0.94921875,0.004674845250433814,0.2319284285941239,15.175705535491042,0.16108251873610963,1114,0,2.4445408712544183,0.5454599650619084,22.31339109425506,0.4251978943455558,0.09487606908986129,0.08203125,,
2.737714999999851,1200,,,,-0.03125,-0.009765625,-0.9453125,0.004674845250433814,0.2319284285941239,15.175906791831979,0.16137702458653694,1114,0,2.449042683468462,0.5454612688273682,22.272428018888483,0.42519687803448136,0.09470166859879091,0.08203125,,
2.7457799999993293,1200,,,,-0.0625,0.08984375,-1.013671875,0.004674845250433814,0.2319284285941239,15.175911434212445,0.16199605973986897,1114,0,2.45843785530364,0.5454618182078442,22.187334002814346,0.425196449782942,0.09433975648145013,0.08203125,,
2.7535649999994787,1200,,,,0,0.0078125,-0.9765625,0.004674845250433814,0.2319284285941239,15.175915807938193,0.16183553567261372,1114,0,2.456002464100164,0.5454620311151197,22.209343805156458,0.42519628381828733,0.09443330451995227,0.08203125,,
2.7628449999997393,1200,,,,-0.0625,0.0625,-0.9453125,0.004674845250433814,0.2319284285941239,15.17592043809854,0.16178205741166898,1114,0,2.455191631591379,0.5454621211019028,22.21668215561452,0.42519621367217764,0.09446449132925529,0.08203125,,
2.770280000001192,1200,,,,0,-0.009765625,-0.958984375,0.004674845250433814,0.2319284285941239,15.175729733580821,0.16268676879324576,1114,0,2.468890434435848,0.5454963452211029,22.094797631056117,0.4251695371123297,0.09394034881386727,0.08203125,,
2.7789550000000744,1200,,,,-0.125,0.1171875,-1.00390625,0.004674845250433814,0.2319284285941239,15.17567506579094,0.16225733877957133,1114,0,2.462364650358734,0.5455103490511395,22.15392220529424,0.4251586225587473,0.09418931049076545,0.08203125,,
2.7857600000007077,1200,,,,-0.03125,0.025390625,-1.00390625,0.004674845250433814,0.2319284285941239,15.175505750777825,0.1624928133357653,1114,0,2.4659106232369736,0.5455153566881062,22.122267998992367,0.4251547197537961,0.09405386651429971,0.08203125,,
2.7928149999994782,1200,,,,-0.03125,0.0234375,-0.91796875,0.004674845250433814,0.2319284285941239,15.175354542072514,0.16186047943417242,1114,0,2.456290161763403,0.5455173549315543,22.208994825754633,0.4251531624016322,0.09442224383931068,0.08203125,,
2.801159999999218,1200,,,,-0.0625,-0.00390625,-0.94921875,0.004674845250433814,0.2319284285941239,15.175320368900433,0.16170264692653494,1114,0,2.4538894716093607,0.5455182973732834,22.230760744717255,0.4251524279036631,0.09451461904761986,0.08203125,,
2.808644999999553,1200,,,,-0.0625,0.0859375,-1.001953125,0.005267362614015761,0.2319284285941239,15.175350103769926,0.16138108049582853,1114,0,2.449014396648874,0.6146608789352163,25.098295860420084,0.3773274606249483,0.0947027624302596,0.08203125,,
2.816704999999143,1200,,,,-0.0625,-0.03125,-0.94140625,0.005267362614015761,0.2319284285941239,15.175477788538585,0.1629240716529603,1114,0,2.472450630587768,0.6146610548474145,24.860397503722574,0.37732735263615913,0.09380507975562218,0.08203125,,
2.8245750000011176,1200,,,,-0.03125,0.060546875,-0.982421875,0.005267362614015761,0.2319284285941239,15.175570032919897,0.16292918024787675,1114,0,2.4725431852578827,0.6146611264041881,24.8594697989099,0.37732730870898235,0.09380156835154897,0.08203125,,0.34446500000078234,4788,
2.832570000000298,1200,,,,-0.03125,0.017578125,-0.998046875,0.005267362614015761,0.2319284285941239,15.17549452346773,0.16188903458376314,1114,0,2.4567461577353753,0.6146611538821781,25.019318823267106,0.37732729184083325,0.09440471815285759,0.08203125,,
2.8402499999990685,1500,,,,-0.0625,0.109375,-1.05078125,0.005267362614015761,0.2318438082063284,15.175716307021544,0.16119773321967493,1114,0,2.446291068676729,0.6146223991295271,25.124663495664663,0.3772134053927785,0.09477359876547296,0.08203125,,
2.847555000000633,1500,,,,-0.0625,0.0078125,-1.03515625,0.005267362614015761,0.2318438082063284,15.1759120554651,0.16187671907834586,1114,0,2.4566268525602064,0.6145705084023224,25.016844042140125,0.37724525507910345,0.094374857119513,0.08203125,,
2.856019999999553,1500,,,,-0.03125,0.05859375,-0.9375,0.005267362614015761,0.2318438082063284,15.175916230995398,0.16152158773262534,1114,0,2.451238084927696,0.6145484611826245,25.070941291316945,0.37725878893289055,0.0945823294896983,0.08203125,,
2.8661500000003723,1500,,,,-0.21875,0.095703125,-0.7890625,0.005267362614015761,0.2318438082063284,15.170926543464958,0.5132411906302936,1114,0,7.78634440213268,0.6145392812103735,7.892526318795393,0.3772644244151449,0.02977569398841726,0.083984375,,
2.874879999999888,1500,,,,0.0625,0.205078125,-0.873046875,0.005267362614015761,0.2318438082063284,15.154258485189821,0.9939238583414052,1114,0,15.062179063902846,0.6145351189646884,4.079988136892145,0.3772669796266767,0.015392448013179712,0.095703125,,
2.8844150000009687,1500,,,,0.1875,0.13671875,-1.00390625,0.005267362614015761,0.2318438082063284,15.144286185116792,1.3062561387443172,1186,0,19.782316796209567,0.6544257497541106,3.3081350202596256,0.3542706079237252,0.011719750047211423,0.099609375,,
2.8928700000001117,1500,,,,-0.09375,-0.2421875,-1.06640625,0.005267362614015761,0.2318438082063284,15.13473672969905,1.5336523336642431,1214,0,23.211424304896884,0.6694144624172984,2.88398701270595,0.3463382123074031,0.009988349062983464,0.10546875,,
2.9008350000008942,1500,,,,-0.375,0.15234375,-0.8984375,0.005267362614015761,0.2318438082063284,15.128931349282535,1.6864760747130743,1433,0,25.514580756541584,0.7906783671393963,3.09892752965058,0.29322138791417623,0.009086718312895927,0.109375,,
2.9089399999994785,1500,,,,0.03125,0.1328125,-1.126953125,0.005267362614015761,0.2318438082063284,15.124047448527746,1.7933039859306195,1629,0,27.12201457284862,0.8984158180712075,3.312496627631032,0.2580584664059785,0.008548177997014399,0.111328125,,
2.9178499999996275,1500,,,,0.0625,0.07421875,-0.861328125,0.005267362614015761,0.2318438082063284,15.120116452009775,1.8823946003910104,1707,0,28.462025566546483,0.9413321349205945,3.3073265735064603,0.24629331094267323,0.008145724121575926,0.11328125,,
2.9258049999987708,1500,,,,-0.4375,0.08984375,-1.09765625,0.005267362614015761,0.2318438082063284,15.117362670998977,1.9424637909899027,1938,0,29.364929603677915,1.0688643868133858,3.6399351241063833,0.21690666380748852,0.007895261842456121,0.1171875,,
2.9333250000001865,1500,,,,-0.0625,0.0234375,-1.078125,0.005267362614015761,0.2318438082063284,15.115250348668527,1.988531900949075,2028,0,30.057157509158994,1.1188966754460097,3.7225631702035042,0.20720752263734438,0.007713430923588871,0.119140625,,
2.941764999999665,1500,,,,-0.03125,-0.041015625,-1.0234375,0.005267362614015761,0.2318438082063284,15.11379315310941,2.022857725755387,2171,0,30.573053245236242,1.19751160835832,3.9168858888665654,0.19360464365282046,0.007583272967427723,0.123046875,,
2.9499300000006334,1500,,,,-0.375,0.390625,-0.9453125,0.005267362614015761,0.2318438082063284,15.112994746190036,2.0396884248953935,2226,0,30.825800449308712,1.227663981796983,3.982585898509942,0.1888495644117285,0.007521096121658948,0.125,,
2.957745000000112,1500,,,,0,0.083984375,-1.14453125,0.0058380148350949445,0.2318438082063284,15.112422154686888,2.0463241253662012,2297,0,30.924914047854447,1.4044150957140051,4.541371056167714,0.1650821106337218,0.007496991191230606,0.126953125,,
2.9657150000007824,1500,,,,0,-0.09375,-0.7890625,0.0058380148350949445,0.2318438082063284,15.11220597664982,2.0426291655430378,2375,0,30.86863268359873,1.4519136240209851,4.703524250338509,0.15968154328922907,0.007510660111923674,0.12890625,,
2.9738899999996646,1500,,,,-0.09375,-0.12890625,-0.953125,0.0058380148350949445,0.2318438082063284,15.112293869273916,2.0349627189064328,2424,0,30.752954621130662,1.4818704145886383,4.818627780143213,0.1564534968266354,0.007538911661093735,0.130859375,,
2.9818450000006704,1500,,,,0.0625,0.265625,-1.10546875,0.0058380148350949445,0.2318438082063284,15.112735877326699,2.021318784994925,2480,0,30.547656921507215,1.51599485488197,4.9627205738801745,0.15293179093564863,0.007589577452766851,0.1328125,,
2.990144999999553,1500,,,,-0.08203125,0.02734375,-0.95703125,0.0058380148350949445,0.237519013308935,15.11309173809948,2.003864210331564,2522,0,30.284583641435194,1.5416269019921107,5.09046754693654,0.15407036099461535,0.007842901725878867,0.1328125,,
2.9968950000004844,1500,,,,0.0625,0.01171875,-0.89453125,0.0058380148350949445,0.237519013308935,15.113559110892712,1.983184175206665,2558,0,29.97297125977294,1.5638250693443145,5.217450935347013,0.1518833646838279,0.007924440031332892,0.1328125,,
3.004429999999702,1500,,,,0.0625,0.09765625,-1.12109375,0.0058380148350949445,0.237519013308935,15.114191247070186,1.9632612224302495,2571,0,29.67310558376759,1.5720926157151087,5.298038694591874,0.1510846186380012,0.00800452155701787,0.134765625,,
3.018094999999739,1500,,,,-0.15625,0.150390625,-0.986328125,0.0058380148350949445,0.237519013308935,15.115410808155685,1.9294445258867134,2616,0,29.16434664032485,1.5990017482929473,5.482727825220831,0.14854205979605972,0.008144156844594732,0.134765625,,
3.035394999999553,1500,,,,-0.0625,-0.017578125,-1.02734375,0.0058380148350949445,0.237519013308935,15.117731724350438,1.8585349037206411,2659,0,28.096832074790125,1.6253631509880506,5.784862672992971,0.14613288923435253,0.008453586962284224,0.13671875,,
3.0438149999994786,1500,,,,0,0.13671875,-0.92578125,0.0058380148350949445,0.237519013308935,15.11884244904202,1.8258140583634554,2680,0,27.604195089643095,1.6385999382454643,5.936054041511451,0.1449524119738825,0.008604453509243982,0.13671875,,
3.0621500000003725,1500,,,,0.03125,-0.015625,-0.884765625,0.0058380148350949445,0.237519013308935,15.121109169200356,1.754348424806092,2709,0,26.5276940523076,1.6561245316333573,6.243002231433281,0.14341857074883205,0.008953624572139305,0.13671875,,
3.0699199999999256,1500,,,,-0.09375,0.15625,-1.044921875,0.0058380148350949445,0.237519013308935,15.121960822268809,1.7241083020179873,2718,0,26.071898196464403,1.6617447527672358,6.373700680499682,0.14293351184855813,0.009110154217353643,0.13671875,,
3.077554999999702,1500,,,,-0.0625,0.0234375,-1.00390625,0.0058380148350949445,0.237519013308935,15.122806753216816,1.695071640954901,2725,0,25.634240859019087,1.6656930826042942,6.497922414652825,0.14259470474451177,0.009265693281701647,0.13671875,,
3.0849199999999253,1500,,,,-0.125,-0.109375,-0.921875,0.0058380148350949445,0.237519013308935,15.12364279046247,1.6669707239794023,2731,0,25.210669771623092,1.6697448930305074,6.6231675245294666,0.14224868379615122,0.009421368629257295,0.13671875,,
3.0931650000000372,1500,,,,0.0625,0.1640625,-1.0859375,0.0058380148350949445,0.237519013308935,15.124660048936645,1.6359557535276197,2738,0,24.743274627207235,1.6741618737267998,6.7661289742382085,0.1418733857438775,0.009599336259549236,0.13671875,,
3.1021699999999255,1500,,,,-0.09375,0.078125,-0.953125,0.0058380148350949445,0.237519013308935,15.125683496607792,1.6061301027979036,2743,0,24.293815589295225,1.6769230412776375,6.90267461327299,0.1416397815894823,0.009776933246072504,0.138671875,,
3.1108300000000746,1500,,,,0,-0.0078125,-0.974609375,0.02906269828238643,0.237519013308935,15.126511943241075,1.577704548113525,2748,0,23.865166689945,8.362703074702488,35.04146098516843,0.028402181828916004,0.009952539464516198,0.138671875,,
3.118269999999553,1500,,,,-0.125,0.2265625,-0.94921875,0.02906269828238643,0.237519013308935,15.12744791589188,1.5495501367127218,2752,0,23.44073898618484,8.375500585294096,35.7305313208356,0.028358784157448035,0.010132744255585135,0.138671875,,
3.132875,1500,,,,0,-0.0625,-0.916015625,0.02906269828238643,0.237519013308935,15.128742207224498,1.509195603382944,2757,0,22.832231223857185,8.390342164288404,36.74779780401581,0.02830862063288444,0.010402794671278276,0.138671875,,
3.140785000000149,1500,,,,-0.01953125,0.17578125,-1.029296875,0.02906269828238643,0.9127060735079602,15.129616737974688,1.4822825851663317,2761,0,22.426367410940923,8.403625198014701,37.47207491978799,0.10860861259300102,0.040697900680191634,0.138671875,,
3.163754999999888,1500,,,,-0.09375,0.1640625,-1.05078125,0.02906269828238643,0.9127060735079602,15.131533510698725,1.4144127940984357,2767,0,21.402234591861497,8.420891497536147,39.34585176791918,0.10838592015762312,0.042645363482513625,0.140625,,
3.1740950000006705,1500,,,,-0.03125,-0.095703125,-0.865234375,0.02906269828238643,0.9127060735079602,15.132288368875106,1.393954816341973,2770,0,21.09372625406907,8.430179385030689,39.96533985267051,0.10826650677548276,0.04326907737943623,0.142578125,,
3.1890449999989943,1500,,,,-0.15625,-0.013671875,-1.044921875,0.02906269828238643,0.9127060735079602,15.133556996124938,1.3507794604354726,2773,0,20.442097953695114,8.440954089980236,41.292014689981706,0.10812830679785124,0.04464835632699722,0.142578125,,
3.1977599999997763,1500,,,,-0.03125,0.044921875,-1.009765625,0.02906269828238643,0.9127060735079602,15.13413662929343,1.332795689445157,2775,0,20.17071206299634,8.446269413264297,41.8739278359894,0.10806026055415861,0.04524907552383049,0.142578125,,
3.2058249999992547,1500,,,,0,0.1953125,-0.984375,0.02906269828238643,0.9127060735079602,15.134748933256528,1.313080987563901,2776,0,19.873151075812178,8.449803930484535,42.51869217040714,0.10801505940453499,0.045926590605896635,0.14453125,,
3.213799999999814,1500,,,,-0.03125,-0.06640625,-0.9375,0.02906269828238643,0.9127060735079602,15.135189688763091,1.2972592688282365,2777,0,19.634265109221474,8.45118394309993,43.04303673240476,0.10799742138533737,0.04648536975694071,0.142578125,,
3.2221499999994414,1500,,,,-0.125,0.0546875,-1.12109375,0.02906269828238643,0.9127060735079602,15.135898979782095,1.28163528517552,2777,0,19.398702205340886,8.451756032393275,43.568667341397315,0.10799011116859109,0.047049852296648605,0.14453125,,
3.230424999999814,1500,,,,-0.0625,0.14453125,-1.01171875,0.02906269828238643,0.9127060735079602,15.136435774920745,1.2653593199326518,2779,0,19.153030078357975,8.457334644491635,44.15664054142548,0.10791887892273681,0.04765335144224908,0.14453125,,
3.238125,1500,,,,0.03125,0.03125,-0.876953125,0.02906269828238643,0.9127060735079602,15.137188883082539,1.2493936247953146,2780,0,18.91230728784583,8.459472173701483,44.729984792167805,0.10789161011077612,0.04825990079457514,0.14453125,,
3.2460850000008943,1500,,,,-0.0625,0.125,-1.15234375,0.02906269828238643,0.9127060735079602,15.137589617731978,1.2370606163465687,2780,0,18.72611594251294,8.461663854485876,45.18643311011331,0.10786366478314985,0.04873974273735486,0.14453125,,
3.253959999999963,1500,,,,-0.0625,-0.021484375,-0.978515625,0.02906269828238643,0.9127060735079602,15.138095544267026,1.2246179567905002,2781,0,18.53838363511966,8.46252072582281,45.64864387524682,0.10785274306305677,0.04923331459053975,0.14453125,,
3.262199999999255,1500,,,,0.125,0.0703125,-0.76953125,0.0384914733825523,0.9127060735079602,15.138585118963547,1.2117258884872077,2781,0,18.343815503715327,11.208460958398758,61.10212434337129,0.0814300979318707,0.049755519691260644,0.14453125,,
3.270109999999404,1500,,,,-0.0625,0.162109375,-1.099609375,0.0384914733825523,0.9127060735079602,15.13894770118304,1.198543248264888,2781,0,18.14468355308818,11.208638385053852,61.77367796059563,0.08142880893766785,0.05030157020030365,0.146484375,,
3.279010000000708,1500,,,,-0.03125,-0.07421875,-0.912109375,0.0384914733825523,0.9127060735079602,15.139446592822932,1.183700482705459,2781,0,17.92057023981802,11.210581867751307,62.55705994691131,0.08141469232150007,0.05093063788115419,0.146484375,,
3.2879550000000743,1500,,,,0.03125,0.1875,-0.9921875,0.0384914733825523,1.3785654751107401,15.139911187868185,1.1719869358061317,2783,0,17.743778121446606,11.216233103435897,63.21220332370492,0.12290806212724312,0.07769289413309846,0.146484375,,
3.296764999999665,1500,,,,-0.125,-0.05859375,-1.09765625,0.0384914733825523,1.3785654751107401,15.140247173658198,1.1609868357932824,2785,0,17.577627659273617,11.227682617188323,63.87484611021906,0.12278272570693358,0.0784272770952362,0.1484375,,
3.3057900000009686,1500,,,,0.01953125,0.0625,-0.9140625,0.0384914733825523,1.3785654751107401,15.140717317105882,1.1469235772296564,2782,0,17.365245667158085,11.214972811766557,64.5828629593004,0.12292187402044995,0.07938646544563108,0.1484375,,
3.313075000000186,1500,,,,-0.0625,0.06640625,-1.07421875,0.0384914733825523,1.3785654751107401,15.141032375295255,1.1406914642854493,2781,0,17.27124639096894,11.211462158894538,64.91403055170912,0.12296036463157167,0.07981852866343137,0.1484375,,
3.32030999999959,1500,,,,-0.125,-0.126953125,-0.966796875,0.0384914733825523,1.3785654751107401,15.14136746179602,1.1302029280779082,2782,0,17.11281784042543,11.21332825616129,65.5259020502875,0.1229399018398727,0.0805574796603146,0.150390625,,
3.330819999999367,1500,,,,0.1875,0.125,-0.91015625,0.0384914733825523,1.3785654751107401,15.141495674702561,1.1210511769747635,2782,0,16.9743915472836,11.214080335184185,66.06469695214948,0.12293165680162732,0.08121442652425154,0.150390625,,
3.338679999998771,1500,,,,-0.0625,0.126953125,-1.0078125,0.0384914733825523,1.3785654751107401,15.141977931926506,1.1099650860182542,2781,0,16.80706683769731,11.208410952588116,66.68867959427803,0.12299383747991662,0.08202296619768863,0.15234375,,
3.346550000000745,1500,,,,-0.09375,-0.09375,-1.00390625,0.0384914733825523,1.3785654751107401,15.14225457420355,1.1028529976728456,2780,0,16.699680848685745,11.206912964850746,67.10854576441037,0.12301027762368277,0.0825504084540174,0.15234375,,
3.3542050000000745,1500,,,,0.0625,0.296875,-1,0.0384914733825523,1.3785654751107401,15.142696385842175,1.095565844434288,2785,0,16.589820952967223,11.22490611003566,67.66140600226306,0.12281309630538734,0.08309706771513846,0.15234375,,
3.3629349999995903,1500,,,,-0.09375,0.01171875,-1.013671875,0.0384914733825523,1.3785654751107401,15.14306680537771,1.0887779147627445,2787,0,16.48743669947208,11.232921782763595,68.13018898882729,0.1227254584133298,0.08361308675440622,0.15234375,,
3.371110000000335,1500,,,,-0.03125,-0.03515625,-1.009765625,0.0384914733825523,1.3785654751107401,15.143459540018332,1.0825454152676688,2783,0,16.393482696338285,11.219692647206465,68.43995784808155,0.12287016395711894,0.08409228842012088,0.154296875,,
3.3791349999997764,1500,,,,-0.03125,0.10546875,-0.943359375,0.0384914733825523,1.3785654751107401,15.143684238441132,1.0753802238716177,2782,0,16.285218546575912,11.214808068750264,68.86495282010361,0.12292367971522158,0.08465133404062261,0.154296875,,
3.3872350000003353,1500,,,,-0.125,-0.1640625,-1.03515625,0.0384914733825523,1.3785654751107401,15.144024037993363,1.068257957031938,2782,0,16.17772418006935,11.212912607230619,69.31081580093146,0.1229444590713902,0.08521380756442284,0.154296875,,
3.3950650000004097,1500,,,,-0.03125,0.08203125,-1.060546875,0.0384914733825523,1.3785654751107401,15.144316252137381,1.0633632456921,2784,0,16.103909283660425,11.221562299099734,69.68222498921746,0.1228496922591017,0.0856043989585485,0.154296875,,
3.4031249999990685,1500,,,,0.0625,0,-0.828125,0.0384914733825523,1.3785654751107401,15.144366163295983,1.0582772278399333,2786,0,16.026937840685758,11.229692385962666,70.06761052916252,0.12276075138389131,0.08601552516233846,0.154296875,,
3.412039999999106,1500,,,,-0.125,-0.12109375,-1.02734375,0.03700985150071329,1.3785654751107401,15.144567554461146,1.0547242532341337,2785,0,15.973342704432921,10.7922905918935,67.56438393385515,0.12773613380520285,0.0863041318664102,0.15625,,
3.420589999999851,1500,,,,0,0.0859375,-0.984375,0.03700985150071329,1.3785654751107401,15.144735879849087,1.0506911882297028,2783,0,15.91244053702365,10.786603738384516,67.78723674276868,0.12780347814252835,0.08663444629396834,0.15625,,
3.428335000000894,1500,,,,-0.0625,-0.078125,-0.83984375,0.03700985150071329,1.3785654751107401,15.144960833442529,1.046443166718108,2785,0,15.848340774369316,10.792279759275313,68.09722174026632,0.12773626201877747,0.08698484558965447,0.15625,,
3.4359000000003723,1500,,,,-0.09375,-0.05078125,-1.0546875,0.03700985150071329,1.5975213009587539,15.14520423349115,1.0410896931511833,2786,0,15.767516028157303,10.798440526115591,68.48536260773074,0.14794000088209155,0.10131724604598046,0.15625,,
3.4441549999993293,1500,,,,-0.03125,0.095703125,-0.939453125,0.03700985150071329,1.5975213009587539,15.145542811786179,1.0368046020463153,2784,0,15.7029684877494,10.790661183332055,68.71733323384264,0.1480466556976497,0.10173371373731362,0.15625,,
3.452344999999739,1500,,,,-0.0625,-0.12109375,-1,0.03700985150071329,1.5975213009587539,15.145729306183576,1.0323597244040472,2783,0,15.635840932429977,10.787655014342405,68.99312330536665,0.14808791149094191,0.1021704753752878,0.15625,,
3.4614700000006704,1500,,,,-0.125,0.10546875,-1.0625,0.03700985150071329,1.5975213009587539,15.145707830999848,1.0283878144014535,2785,0,15.575661373884914,10.795368677442067,69.30921530909903,0.1479820975727234,0.10256523062559987,0.15625,,
3.4692799999993293,1500,,,,0,0.001953125,-0.83984375,0.03700985150071329,1.5975213009587539,15.145623766776747,1.0225386124232616,2786,0,15.486985110764667,10.798014677476266,69.72315528327589,0.14794583529239377,0.1031525044760553,0.15625,,
3.4790849999990314,1500,,,,-0.125,0.095703125,-1.09765625,0.03700985150071329,1.5975213009587539,15.145680948994244,1.0181295857933201,2784,0,15.420265871157289,10.788333781557187,69.96204781226332,0.14807859427650819,0.10359881692745809,0.15625,,
3.490835000000894,1500,,,,-0.03125,0.048828125,-0.90625,0.03700985150071329,1.5975213009587539,15.146067536281398,1.014277362873659,2782,0,15.362313438605835,10.783414278405003,70.19394781586766,0.14814614923568037,0.10398963068571089,0.15625,,
3.498674999998882,1500,,,,-0.03125,0.021484375,-1.029296875,0.03700985150071329,1.5975213009587539,15.146129894803565,1.009672881983027,2782,0,15.292636621775596,10.78109801926102,70.49862156477009,0.14817797761458945,0.10446343168083916,0.15625,,
3.5069199999999254,1500,,,,-0.09375,0.099609375,-0.939453125,0.03700985150071329,1.5975213009587539,15.146222650419363,1.0066475588574622,2785,0,15.246908056956253,10.794150932727225,70.79567143977431,0.1479987922083954,0.10477673866668989,0.158203125,,
3.5145449999999254,1500,,,,0.125,-0.046875,-0.77734375,0.03700985150071329,1.5975213009587539,15.146179683782586,1.003310582962417,2786,0,15.196322368189422,10.799196274525345,71.06453793801705,0.1479296477578809,0.10512552065247427,0.158203125,,
3.5229500000011176,1500,,,,-0.09375,0.1640625,-1.08984375,0.03700985150071329,1.5975213009587539,15.146268720620945,1.0009547469845361,2783,0,15.160729575008931,10.78765739009222,71.15526556106298,0.14808787887776045,0.10537232347921574,0.158203125,,
3.531464999999851,1500,,,,-0.125,0.08984375,-1.05859375,0.03700985150071329,1.5975213009587539,15.146354597603153,0.9995425500253752,2782,0,15.139425898076821,10.783055076005782,71.22499326328858,0.1481510842426766,0.10552059977133538,0.158203125,,
3.54021499999892,1500,,,,0.0625,0.017578125,-0.80078125,0.03700985150071329,1.5975213009587539,15.14659118098804,0.9930597028748722,2782,0,15.041469337759143,10.781162872739731,71.67626134552819,0.14817708625830162,0.10620779560068899,0.158203125,,
3.54894000000041,1500,,,,-0.125,0.158203125,-1.125,0.03700985150071329,1.5975213009587539,15.146897960263992,0.9938622722512291,2783,0,15.053930424345479,10.785343304115589,71.64470008891062,0.14811965237575278,0.10611988071734506,0.16015625,,
3.5568549999995156,1500,,,,0,0.005859375,-0.826171875,0.03700985150071329,1.5975213009587539,15.146949999287996,0.9914199367470984,2785,0,15.016988210205566,10.795541170695573,71.88885693709814,0.14797973308602771,0.10638093861411413,0.16015625,,
3.5642200000006707,1500,,,,0.125,0.20703125,-0.953125,0.03602391937308775,1.5975213009587539,15.146908937065023,0.9915397836412654,2785,0,15.0187628102914,10.505631542881465,69.95004632260805,0.1520633285526963,0.10636836876231073,0.162109375,,
3.5721250000009315,1500,,,,-0.15625,0.052734375,-1.052734375,0.03602391937308775,1.5975213009587539,15.147157574154388,0.9894437120488349,2783,0,14.987259817159941,10.497951810676053,70.04583852383894,0.15217456983695907,0.10659195346234289,0.162109375,,
3.58019000000041,1500,,,,0,-0.11328125,-0.80078125,0.03602391937308775,1.5975213009587539,15.147067818743631,0.9894637214373985,2782,0,14.987474092798731,10.495728148161444,70.03000027339158,0.152206810085739,0.10659042951916362,0.1640625,,
3.5876399999996647,1500,,,,0.0625,0.228515625,-1.0234375,0.03602391937308775,1.7058373061042986,15.147113013523889,0.9909533777199906,2782,0,15.010082803457923,10.495680103958142,69.92419856298339,0.16252756269324478,0.1136460956572018,0.1640625,,
3.594339999999851,1500,,,,-0.25,-0.01171875,-1.10546875,0.03602391937308775,1.7058373061042986,15.146923598753187,0.9922015624354179,2784,0,15.028801260772815,10.50254622207019,69.88279397561297,0.16242130908404187,0.11350454879969454,0.166015625,,
3.6013799999998883,1500,,,,0.03125,-0.072265625,-0.80859375,0.03602391937308775,1.7058373061042986,15.146969841777835,0.9914484179963086,2787,0,15.01743928706843,10.51249213762063,70.00189537421984,0.16226764156138468,0.11359042467201456,0.166015625,,
3.6085800000000745,1500,,,,0,0.125,-1.13671875,0.03602391937308775,1.7058373061042986,15.147101323490476,0.9912849234810563,2789,0,15.015093176416064,10.521530499587735,70.0730283586499,0.16212824799311645,0.11360817319359874,0.16796875,,
3.6163899999996647,1500,,,,-0.125,-0.115234375,-0.951171875,0.03602391937308775,1.7058373061042986,15.147228668289078,0.9879832751301265,2793,0,14.965208588841188,10.534860965396756,70.39568411530247,0.16192309625227738,0.11398687134747033,0.169921875,,
3.6244150000000372,1500,,,,0.125,-0.0546875,-0.765625,0.03602391937308775,1.7058373061042986,15.147266623131273,0.9861513077533899,2792,0,14.93749678929018,10.533480572661146,70.51703991135513,0.16194431596823472,0.11419833792549114,0.169921875,,
3.643430000000633,1500,,,,0.0625,0.017578125,-0.802734375,0.03602391937308775,1.7058373061042986,15.147967431286961,0.979598099786092,2789,0,14.838920111310317,10.522130196464126,70.90900225579146,0.16211900767750728,0.11495697081111036,0.171875,,
3.650910000000149,1500,,,,-0.09375,0.134765625,-1.111328125,0.03602391937308775,1.7058373061042986,15.148211706927071,0.9759479862876813,2789,0,14.783866711234955,10.520858470018547,71.16445700922921,0.16213860408496603,0.11538505719941,0.171875,,
3.65906500000041,1500,,,,-0.0625,0.07421875,-0.91796875,0.03602391937308775,1.7058373061042986,15.14839615898377,0.9739834884275311,2788,0,14.754287735009227,10.517180975222864,71.2822005651111,0.16219529835257504,0.11561637787886289,0.169921875,,
3.666680000000633,1500,,,,0.0625,-0.013671875,-0.892578125,0.03602391937308775,1.7058373061042986,15.148508939890696,0.9736940160126576,2788,0,14.750012506285819,10.515706932035913,71.29286790471922,0.16221803413972063,0.11564988879686336,0.169921875,,
3.6741899999994785,1500,,,,-0.15625,0.13671875,-1.103515625,0.03602391937308775,1.7058373061042986,15.148574457421384,0.9717333431343498,2784,0,14.7203749012297,10.504278770402047,71.35877204815311,0.16239451973712313,0.11588273515790673,0.171875,,
3.6824749999996276,1500,,,,0.0625,-0.0625,-0.8203125,0.03602391937308775,1.7058373061042986,15.148546289938936,0.9696430664994171,2783,0,14.688682877584759,10.49905461439334,71.47716852417803,0.16247532456548383,0.1161327615498761,0.171875,,
3.6913499999996273,1500,,,,0.03125,0.013671875,-0.9921875,0.03602391937308775,1.7058373061042986,15.14873481517207,0.9681401517085866,2785,0,14.666098422153835,10.507351192074184,71.6438066186869,0.16234703446393145,0.11631159542251202,0.171875,,
3.6994149999991057,1500,,,,-0.125,0.02734375,-1.052734375,0.03602391937308775,1.7058373061042986,15.148829977480425,0.9662178297110869,2786,0,14.63706962350339,10.510186975625041,71.8052673517954,0.16230323114711787,0.11654226904579044,0.171875,,
3.707764999999665,1500,,,,0,-0.0859375,-0.83984375,0.03538753022546279,1.7058373061042986,15.148658792119939,0.9648241960105005,2784,0,14.61579253974452,10.315874546462611,70.5803295880863,0.16536041597066947,0.11671192660032902,0.171875,,
3.714930000000633,1500,,,,0,0.11328125,-1.060546875,0.03538753022546279,1.7058373061042986,15.148819980572405,0.9646706019240799,2784,0,14.613621289098312,10.315708772126113,70.58968183212453,0.16536307332692546,0.11672926732929947,0.171875,,
3.723045000000857,1500,,,,-0.1875,-0.01171875,-1.0703125,0.03538753022546279,1.7058373061042986,15.148878937109716,0.9645191638123126,2785,0,14.611384045115019,10.322198116992508,70.64490321465131,0.165259113104614,0.11674714050614571,0.171875,,
3.731214999999851,1500,,,,-0.03125,-0.009765625,-0.845703125,0.03538753022546279,1.7058373061042986,15.148966524700148,0.9623596515956363,2786,0,14.57875414674439,10.324694095103665,70.8201399871284,0.16521916198110576,0.11700844180057954,0.171875,,
3.739429999999702,1500,,,,-0.09375,0.052734375,-1.068359375,0.03538753022546279,1.7583749804108104,15.148919187560653,0.9620049734996811,2784,0,14.573335601578096,10.315941741524753,70.78641447334594,0.17045220150214932,0.12065700183425421,0.171875,,
3.7474900000002234,1500,,,,-0.125,-0.1484375,-0.95703125,0.03538753022546279,1.7583749804108104,15.148939392649607,0.9610362392436913,2783,0,14.558679742442587,10.312498527593894,70.83402279624369,0.17050911335461527,0.12077846422328117,0.171875,,
3.7562550000008197,1500,,,,0.0625,-0.048828125,-0.87890625,0.03538753022546279,1.7583749804108104,15.149035439305017,0.9587776529886287,2782,0,14.524556643538425,10.311038702595832,70.99038515012387,0.1705332538387364,0.12106221370915737,0.171875,,
3.7640649999994786,1500,,,,-0.15625,0.044921875,-1.138671875,0.03538753022546279,1.7583749804108104,15.149177573504652,0.9582905866416731,2784,0,14.51731426405265,10.3180476617934,71.07408074331386,0.17041741209646472,0.12112260907410725,0.173828125,,
3.7723449999997394,1500,,,,-0.0625,-0.25,-0.90234375,0.03538753022546279,1.7583749804108104,15.149251431716896,0.9589936863359305,2786,0,14.52803647573206,10.32471975384304,71.06755115248829,0.1703072841038918,0.12103321624694686,0.17578125,,
3.780389999999665,1500,,,,0.03125,0.115234375,-0.923828125,0.03538753022546279,1.7583749804108104,15.149387070969398,0.9575171081478211,2784,0,14.505797298406607,10.31863637061955,71.13456887856144,0.17040768927738018,0.12121877510338294,0.173828125,,
3.7881199999991804,1500,,,,-0.1875,0.00390625,-1.12890625,0.03538753022546279,1.7583749804108104,15.148796667125517,0.9730262004915847,2783,0,14.740176063032724,10.311935130757455,69.95801872827712,0.17051842919047244,0.11929131462823468,0.17578125,,
3.7994249999998138,1500,,,,-0.03125,-0.17578125,-0.90234375,0.03538753022546279,1.7583749804108104,15.148168730837506,0.9849272240798733,2784,0,14.919843777957322,10.316594705168828,69.14680112408841,0.17044141314670702,0.11785478498163937,0.177734375,,
3.8073600000012666,1500,,,,-0.0625,0.173828125,-1.068359375,0.03538753022546279,1.7583749804108104,15.148024268752895,0.9839175845208036,2787,0,14.90440744877386,10.327149540058706,69.2892325679696,0.17026721396742886,0.11797684587289423,0.177734375,,
3.8155900000007823,1500,,,,0.0625,-0.005859375,-0.8515625,0.03538753022546279,1.7583749804108104,15.14802310176478,0.9782973274222198,2796,0,14.819270516186528,10.362825389060234,69.92803982990466,0.16968103913697913,0.11865462463150286,0.177734375,,
3.824215000000782,1500,,,,-0.09375,-0.0234375,-1.1328125,0.03538753022546279,1.7583749804108104,15.148021821739588,0.9751221540713843,2800,0,14.771171668735041,10.377517004203629,70.2552054565102,0.16944081900309524,0.11904099551781813,0.1796875,,
3.83230999999959,1500,,,,0.0625,0.2109375,-0.828125,0.03538753022546279,1.7583749804108104,15.148150340517988,0.9688776349940651,2799,0,14.67670407645561,10.371039274099003,70.66327167239298,0.16954665139512468,0.11980721088678198,0.1796875,,
3.8403349999990315,1500,,,,-0.1875,-0.107421875,-0.96875,0.03538753022546279,1.7583749804108104,15.148142948962876,0.966913074070725,2797,0,14.646937465244472,10.36570517578262,70.77046106313534,0.16963389857150277,0.12005069213842386,0.1796875,,
3.8470299999993296,1500,,,,0.0625,0.27734375,-0.97265625,0.03538753022546279,1.7583749804108104,15.14805085579159,0.9647254785321588,2795,0,14.61371061068302,10.358696805530334,70.88341271762864,0.16974866756135226,0.12032364861018872,0.181640625,,
3.8546200000001116,1500,,,,-0.1875,-0.15625,-1.00390625,0.03538753022546279,1.7583749804108104,15.14822374141774,0.9623104768151092,2794,0,14.577294411505662,10.355600180631766,71.03924698439397,0.1697994273378307,0.12062423456460815,0.181640625,,
3.863785000000149,1500,,,,-0.0625,-0.21484375,-0.9609375,0.034908271451255586,1.7583749804108104,15.148404899299987,0.9603004003183272,2792,0,14.547019288981886,10.206008781916065,70.15876296834388,0.1722882096208323,0.12087527661028317,0.18359375,,
3.873050000000745,1500,,,,0.0625,0.248046875,-0.990234375,0.034908271451255586,1.7583749804108104,15.148461678463155,0.9607800346865008,2791,0,14.554339536880958,10.201782183967003,70.09443580806607,0.17235958861915823,0.12081448120370261,0.18359375,,
3.8810499999998136,1500,,,,-0.15625,-0.248046875,-1.025390625,0.034908271451255586,1.7926108675515702,15.14850951980657,0.9588047414444176,2790,0,14.524462753406437,10.200471772998522,70.22959779084562,0.17573803520507325,0.12342011529005761,0.185546875,,
3.8894650000007824,1500,,,,0.0625,0.212890625,-0.943359375,0.034908271451255586,1.7926108675515702,15.148681349226646,0.9579828373255885,2790,0,14.512176740673366,10.198415016426946,70.2748815609707,0.17577347702208124,0.12352460279286763,0.185546875,,
3.897445000000298,1500,,,,-0.21875,-0.142578125,-1.04296875,0.034908271451255586,1.7926108675515702,15.14864784716027,0.9562389620783976,2789,0,14.48572729425969,10.19599563158473,70.38649440560111,0.17581518591460504,0.12375014599798066,0.1875,,
3.905554999999702,1500,,,,0.125,0.15234375,-0.890625,0.034908271451255586,1.7926108675515702,15.148616005230359,0.9557581577466768,2788,0,14.478413325570791,10.193437246998267,70.40438076868071,0.17585931262582236,0.12381266007826855,0.189453125,,
3.9134550000000745,1500,,,,-0.25,0.1875,-1.125,0.034908271451255586,1.7926108675515702,15.148585727772064,0.9572199170549174,2788,0,14.50052797383728,10.19242948917715,70.2900577659444,0.17587670039366546,0.12362383430354439,0.19140625,,
3.921299999999814,1500,,,,-0.03125,-0.107421875,-0.9140625,0.034908271451255586,1.7926108675515702,15.148363070591875,0.9593328538086161,2788,0,14.532322375039955,10.190437749866382,70.12256876002839,0.17591107580977813,0.12335336509121732,0.19140625,,
3.9295999999996276,1500,,,,0.125,0.2890625,-0.92578125,0.034908271451255586,1.7926108675515702,15.148147840327649,0.9623358735187084,2787,0,14.577606084112244,10.189639051918082,69.89926187553873,0.17592486430754697,0.12297018160651839,0.19140625,,
3.93868499999959,1500,,,,-0.15625,0.056640625,-1.078125,0.034908271451255586,1.7926108675515702,15.147695903170185,0.966633010589604,2789,0,14.642262894377208,10.194435102524178,69.62335791989472,0.17584209909852813,0.12242717402922418,0.19140625,,
3.9486149999992923,1500,,,,0.0625,0.05078125,-0.888671875,0.034908271451255586,1.7926108675515702,15.147776188973397,0.9626654149755107,2789,0,14.582240250914236,10.196037579343928,69.92092712712429,0.1758144625891931,0.1229311022659349,0.193359375,,
3.956539999999106,1500,,,,-0.15625,0.005859375,-1.12109375,0.034908271451255586,1.7926108675515702,15.147628374840506,0.9580037587530494,2789,0,14.51148491929155,10.19673815402683,70.2666764341346,0.17580238312225793,0.12353049171201462,0.193359375,,
3.9655299999993296,1500,,,,0,-0.06640625,-0.84765625,0.034908271451255586,1.7926108675515702,15.147575587524182,0.9568926155548892,2789,0,14.494603223261402,10.196958325487344,70.35003420530298,0.17579858721898775,0.12367436624099727,0.193359375,,
3.9732249999996276,1500,,,,-0.0625,-0.0078125,-0.986328125,0.034908271451255586,1.7926108675515702,15.14779312277586,0.9564855337686182,2789,0,14.488644990454873,10.197033086314002,70.37948057276449,0.1757972983296025,0.12372522542532742,0.193359375,,
3.9812800000002606,1500,,,,-0.1875,0.015625,-1.078125,0.034908271451255586,1.7926108675515702,15.14785811587137,0.9542329623130268,2789,0,14.454585522605363,10.194106774211518,70.52507149560995,0.1758477625608569,0.12401676026947478,0.193359375,,
3.9891000000005588,1500,,,,0.0625,0,-0.857421875,0.034908271451255586,1.7926108675515702,15.148012736564905,0.9518927099368134,2788,0,14.419282893966132,10.192609291045493,70.68735224905444,0.17587359785550022,0.12432038962920292,0.19140625,,
3.998055000000633,1500,,,,-0.15625,0.1015625,-1.115234375,0.034908271451255586,1.7926108675515702,15.148012138489724,0.9510823056707953,2788,0,14.407006311004002,10.190482718337341,70.73282608722049,0.17591029955095677,0.12442632625088686,0.193359375,,
4.006670000000857,1500,,,,0.03125,-0.001953125,-0.853515625,0.034908271451255586,1.7926108675515702,15.147864682062947,0.9529797156850365,2787,0,14.435607777947752,10.189609396081536,70.58663239415161,0.17592537631922647,0.12417979867048021,0.19140625,,
4.014470000000671,1500,,,,-0.0625,0.095703125,-1.0234375,0.03542719700358248,1.7926108675515702,15.148069609438219,0.951474089559609,2784,0,14.41299574022581,10.327706702648097,71.65551762305795,0.1735729837381935,0.12437461995138874,0.19140625,,
4.022924999999813,1500,,,,-0.1875,0.08203125,-1.03125,0.03542719700358248,1.7926108675515702,15.147933873757252,0.9501464986635091,2782,0,14.392756332136818,10.322467821012768,71.71988174332029,0.1736610758817257,0.12454951825655139,0.19140625,,
4.03125,1500,,,,0.09375,0.025390625,-0.828125,0.03542719700358248,1.7926108675515702,15.147733370302092,0.9520588831672947,2785,0,14.42153411504577,10.33366131083462,71.65438314952684,0.1734729650634143,0.12430098304738371,0.19140625,,
4.039450000000186,1500,,,,0,0.12109375,-1.01171875,0.03542719700358248,1.8106488752501053,15.147609679287447,0.9515455815367105,2785,0,14.41364106116868,10.332124921479162,71.68296253272605,0.17524457834283427,0.12562050543412764,0.19140625,,
4.047730000000447,1500,,,,-0.125,0.0625,-1.060546875,0.03542719700358248,1.8106488752501053,15.147727863330843,0.9504353819207505,2783,0,14.396936517016444,10.325842032561917,71.72249471515902,0.17535120811845986,0.12576626097572985,0.19140625,,
4.055650000000372,1500,,,,0.03125,0.08984375,-0.82421875,0.03542719700358248,1.8106488752501053,15.147807205935154,0.9515248423447278,2782,0,14.413514863495779,10.32256614501356,71.61727200321477,0.17540685618418256,0.12562160530571376,0.19140625,,
4.0636149999992925,1500,,,,-0.0625,0.234375,-1.1171875,0.03542719700358248,1.8106488752501053,15.147751650859801,0.951065768645867,2782,0,14.406508067081678,10.320481724261807,71.63763540898377,0.17544228298893824,0.12568270304081314,0.19140625,,
4.072479999999516,1500,,,,-0.09375,-0.0625,-0.970703125,0.03542719700358248,1.8106488752501053,15.147652769645834,0.9527659268428988,2784,0,14.432167430566016,10.328897843154543,71.56858381007193,0.17529933035886394,0.12545924816637838,0.193359375,,
4.0803600000003355,1500,,,,0.125,0.171875,-0.888671875,0.03542719700358248,1.8106488752501053,15.147794794333572,0.9532860186376957,2786,0,14.440180990631063,10.33582169087878,71.57681539853805,0.17518189935958148,0.12538962471626033,0.193359375,,
4.088775000000372,1500,,,,-0.15625,0.0078125,-1.078125,0.03542719700358248,1.8106488752501053,15.147705262224585,0.9540277780423587,2784,0,14.451331593760665,10.329982936128475,71.48118406326256,0.17528091638152402,0.12529287446645052,0.193359375,,
4.09643499999959,1500,,,,0,-0.11328125,-0.81640625,0.03542719700358248,1.8106488752501053,15.14765538945308,0.9549149588855345,2783,0,14.464722723431832,10.323471875644383,71.36999493893572,0.17539146684962378,0.12517688101390162,0.193359375,,
4.10680999999959,1500,,,,0.0625,0.2578125,-0.97265625,0.03542719700358248,1.8106488752501053,15.14767253145365,0.9568633999137127,2782,0,14.494253439226295,10.321904542730996,71.21377162342472,0.17541809922328921,0.12492184456702574,0.1953125,,
4.120569999999367,1500,,,,-0.15625,-0.08203125,-1.033203125,0.03542719700358248,1.8106488752501053,15.147837884781731,0.957122617346555,2782,0,14.498338243423595,10.321815371904803,71.19309260553878,0.1754196146715193,0.12488664872137403,0.1953125,,
4.128769999999553,1500,,,,0.0625,0.1875,-0.9609375,0.03542719700358248,1.8106488752501053,15.147958076525812,0.9561736869208664,2784,0,14.484078923354401,10.329732593846366,71.31784249801699,0.1752851643351103,0.12500959742290418,0.1953125,,
4.136820000000298,1500,,,,-0.125,-0.126953125,-1,0.03542719700358248,1.8106488752501053,15.14789120383177,0.9558945955441986,2783,0,14.479787335634295,10.326455686708469,71.3163491102897,0.175340787796209,0.12504664835747664,0.197265625,,
4.1451400000005965,1500,,,,0.125,0.10546875,-0.95703125,0.03542719700358248,1.8106488752501053,15.147896010739533,0.9570039888058217,2783,0,14.496596904293527,10.325327094268687,71.22586881898182,0.1753599531248892,0.12490165017376159,0.197265625,,
4.1528899999996645,1500,,,,-0.0625,0.12890625,-1.041015625,0.03542719700358248,1.8106488752501053,15.148118687762002,0.9566669024162568,2782,0,14.491703782455089,10.321364121209024,71.22257172897062,0.17542728402822877,0.12494382319919027,0.197265625,,
4.16144000000041,1500,,,,-0.125,-0.21484375,-0.98828125,0.03563613758368389,1.8106488752501053,15.148045265232835,0.9602122968376952,2782,0,14.545339336730594,10.380844187105629,71.36886907059926,0.1744221223837623,0.12448309615422772,0.197265625,,
4.169739999999292,1500,,,,0.03125,0.138671875,-0.935546875,0.03563613758368389,1.8106488752501053,15.14765480353395,0.9707154345369513,2786,0,14.704062314828196,10.394971119174587,70.6945529514783,0.1741850799287146,0.12313936356377997,0.197265625,,
4.1779649999989195,1500,,,,0,0.078125,-1.04296875,0.03563613758368389,1.8106488752501053,15.147216482985147,0.9776819552668159,2787,0,14.809160227934662,10.401135282607086,70.23447057441734,0.17408185030319678,0.12226546592660001,0.1953125,,
4.186325000001117,1500,,,,-0.15625,-0.189453125,-0.931640625,0.03563613758368389,1.8232329087551293,15.14705705927179,0.9759202564585462,2788,0,14.782319809876757,10.404691350330527,70.38605228509985,0.17523181105196461,0.1233387541471632,0.197265625,,
